Timestamp,Accel_X,Accel_Y,Accel_Z,Gyro_X,Gyro_Y,Gyro_Z,Mag_X,Mag_Y,Mag_Z,Lux,IR,Full_Spectrum,Temp,Switch_Pressed
2024-03-10T11:37:23,0.32841490184999994,0.07716852884999999,9.84586679335,-0.012370021073509813,0.0003054326190990077,-0.0038179077387375964,-0.5551,0.38374,-1.72466,47.301888000000005,319,20906797,11.5,0
2024-03-10T11:37:23,0.31106693799999996,0.06161518194999999,9.8404829425,-0.02977968036215325,-0.0024434609527920616,-0.014966198335851376,-0.5489400000000001,0.38206000000000007,-1.7302600000000001,47.301888000000005,319,20906797,11.5,0
2024-03-10T11:37:23,0.29132615154999997,0.06520441585,9.7686982645,-0.03466660226773738,-0.0007635815477475193,-0.014508049407202865,-0.5489400000000001,0.38206000000000007,-1.7302600000000001,47.301888000000005,319,20906797,11.5,0
2024-03-10T11:37:23,0.2775674216,0.08554340794999998,9.848857821599998,-0.04077525464971753,0.0035124751196385882,-0.016798794050445424,-0.55174,0.38374,-1.7372600000000002,47.301888000000005,319,20906797,11.5,0
2024-03-10T11:37:23,0.30329026454999997,0.0502492746,9.83509909165,-0.04673119072214818,0.004276056667386108,-0.01756237559819294,-0.54978,0.37954000000000004,-1.72578,47.301888000000005,319,20906797,11.5,0
2024-03-10T11:37:23,0.29910282499999996,0.07537391189999999,9.81117086565,-0.04673119072214818,0.0056505034533316425,-0.018478673455489966,-0.54978,0.37954000000000004,-1.72578,47.301888000000005,319,20906797,11.5,0
2024-03-10T11:37:23,0.30508488149999996,0.08554340794999998,9.798608546999999,-0.051770828937281806,0.0056505034533316425,-0.01893682238413848,-0.5590200000000001,0.38234,-1.7308200000000002,47.301888000000005,319,20906797,11.5,0
2024-03-10T11:37:23,0.30448667585,0.0729810893,9.8632147572,-0.050854531079984784,0.008246680715673207,-0.015729779883598898,-0.5453000000000001,0.38150000000000006,-1.7143000000000002,47.301888000000005,319,20906797,11.5,0
2024-03-10T11:37:23,0.32542387359999997,0.09152546445000001,9.839286531199999,-0.04260785036431157,0.006719517620178169,-0.01664607774089592,-0.5453000000000001,0.38150000000000006,-1.7143000000000002,47.301888000000005,319,20906797,11.5,0
2024-03-10T11:37:23,0.2919243572,0.060418770649999995,9.860223728949999,-0.03436116964863837,0.004123340357836604,-0.019547687622336492,-0.5525800000000001,0.3899,-1.7309600000000003,47.301888000000005,319,20906797,11.5,0
2024-03-10T11:37:23,0.30508488149999996,0.08015955709999999,9.851848849849999,-0.027488935718910694,0.0022907446432425577,-0.013286318930806834,-0.5472600000000001,0.3831800000000001,-1.7218600000000002,47.301888000000005,319,20906797,11.5,0
2024-03-10T11:37:23,0.3152543775499999,0.0634097989,9.861420140249999,-0.02351831167062359,0.002901609881440573,-0.015882496193148403,-0.5472600000000001,0.3831800000000001,-1.7218600000000002,47.301888000000005,319,20906797,11.5,0
2024-03-10T11:37:23,0.31226334929999994,0.0681954441,9.914062237449999,-0.016340645121796914,0.001069014166846527,-0.012828170002158324,-0.5551,0.38542000000000004,-1.7287200000000003,47.138688,319,20906796,11.5,0
2024-03-10T11:37:23,0.32602207924999993,0.0789631458,9.846464998999998,-0.015424347264499889,-0.0018325957145940463,-0.014813482026301873,-0.54978,0.38234,-1.73432,47.138688,319,20906796,11.5,0
2024-03-10T11:37:23,0.32482566794999995,0.05802594804999999,9.83509909165,-0.012980886311707827,0.03726277953007894,-0.012217304763960308,-0.54978,0.38234,-1.73432,47.138688,319,20906796,11.5,0
2024-03-10T11:37:23,0.29491538544999996,0.060418770649999995,9.896714273599999,-0.008857545953871223,-0.0016798794050445422,-0.013286318930806834,-0.55986,0.38122,-1.7367000000000004,47.138688,319,20906796,11.5,0
2024-03-10T11:37:23,0.3218346397,0.05682953674999999,9.8404829425,-0.008857545953871223,-0.0012217304763960308,-0.01466076571675237,-0.5455800000000001,0.39130000000000004,-1.7137400000000003,47.138688,319,20906796,11.5,0
2024-03-10T11:37:23,0.30687949845,0.07238288365,9.851250644199999,-0.0019853120241435504,-0.00015271630954950385,-0.014813482026301873,-0.5455800000000001,0.39130000000000004,-1.7137400000000003,47.138688,319,20906796,11.5,0
2024-03-10T11:37:23,0.30747770409999997,0.07238288365,9.847661410299999,-0.006261368691529657,-0.0022907446432425577,-0.012828170002158324,-0.5455800000000001,0.38374,-1.7360000000000002,47.138688,319,20906796,11.5,0
2024-03-10T11:37:23,0.34337004309999997,0.09391828705,9.869795019349999,-0.0044287729769356115,-0.002138028333693054,-0.013286318930806834,-0.5455800000000001,0.38430000000000003,-1.73516,47.138688,319,20906796,11.5,0
2024-03-10T11:37:23,0.2835494781,0.051445685899999996,9.89013401145,-0.0019853120241435504,-0.00045814892864851157,-0.013133602621257331,-0.54922,0.38430000000000003,-1.73516,47.138688,319,20906796,11.5,0
2024-03-10T11:37:23,0.30867411539999995,0.07716852884999999,9.802197780899998,-0.004581489286485115,-0.0013744467859455349,-0.015118914645400881,-0.54474,0.38346,-1.72368,47.138688,319,20906796,11.5,0
2024-03-10T11:37:23,0.3062812928,0.0693918554,9.8979106849,-0.013744467859455347,-0.001069014166846527,-0.012370021073509813,-0.54474,0.38346,-1.72368,47.138688,319,20906796,11.5,0
2024-03-10T11:37:23,0.3098705267,0.07058826669999999,9.826724212550001,-0.01466076571675237,-0.0006108652381980154,-0.013133602621257331,-0.5531400000000001,0.38430000000000003,-1.73166,47.138688,319,20906796,11.5,0
2024-03-10T11:37:23,0.32243284534999994,0.06879364974999999,9.800403163949998,-0.013439035240356337,0.0003054326190990077,-0.016035212502697904,-0.54362,0.38542000000000004,-1.73292,47.138688,319,20906796,11.5,0
2024-03-10T11:37:23,0.2979064137,0.0765703232,9.84227755945,-0.013439035240356337,0.0015271630954950385,-0.013133602621257331,-0.54362,0.38542000000000004,-1.73292,47.243136,318,20841259,11.5,0
2024-03-10T11:37:23,0.30807590975,0.04905286329999999,9.8440721764,-0.01664607774089592,0.0019853120241435504,-0.014813482026301873,-0.5553800000000001,0.38458000000000003,-1.72788,47.243136,318,20841259,11.5,0
2024-03-10T11:37:23,0.2955135911,0.05563312545,9.77767134925,-0.017409659288643436,-0.003054326190990077,-0.014049900478554353,-0.5478200000000001,0.38010000000000005,-1.7238200000000001,47.243136,318,20841259,11.5,0
2024-03-10T11:37:23,0.31046873235,0.07477570624999999,9.9098747979,-0.01466076571675237,-0.0007635815477475193,-0.012980886311707827,-0.5478200000000001,0.38010000000000005,-1.7238200000000001,47.243136,318,20841259,11.5,0
2024-03-10T11:37:23,0.31465617189999995,0.08255237969999998,9.841679353799998,-0.013439035240356337,0.0007635815477475193,-0.015118914645400881,-0.5548200000000001,0.38178,-1.7143000000000002,47.243136,318,20841259,11.5,0
2024-03-10T11:37:23,0.3062812928,0.06640082715,9.82433138995,-0.016798794050445424,-0.00045814892864851157,-0.014813482026301873,-0.5394200000000001,0.38598000000000005,-1.7260600000000001,47.243136,318,20841259,11.5,0
2024-03-10T11:37:23,0.31106693799999996,0.07836494014999999,9.9014999188,-0.014508049407202865,0.0012217304763960308,-0.015729779883598898,-0.5394200000000001,0.38598000000000005,-1.7260600000000001,47.079936,318,20841258,11.5,0
2024-03-10T11:37:23,0.30568308715,0.07477570624999999,9.8560362894,-0.015729779883598898,0.0,-0.012064588454410803,-0.5523,0.38430000000000003,-1.7208800000000002,47.079936,318,20841258,11.5,0
2024-03-10T11:37:23,0.24346969954999997,0.09391828705,9.78724263965,-0.012370021073509813,0.0027488935718910697,-0.01145372321621279,-0.5461400000000001,0.38570000000000004,-1.71892,47.079936,318,20841258,11.5,0
2024-03-10T11:37:23,0.3152543775499999,0.07178467799999999,9.8608219346,-0.016493361431346415,0.0013744467859455349,-0.014049900478554353,-0.5461400000000001,0.38570000000000004,-1.71892,47.079936,318,20841258,11.5,0
2024-03-10T11:37:23,0.2979064137,0.08015955709999999,9.811769071299999,-0.012980886311707827,-0.0006108652381980154,-0.014813482026301873,-0.54446,0.38598000000000005,-1.7164000000000001,47.079936,318,20841258,11.5,0
2024-03-10T11:37:23,0.3176472001499999,0.07178467799999999,9.8333044747,-0.010231992739816757,0.0027488935718910697,-0.014049900478554353,-0.54446,0.38598000000000005,-1.7164000000000001,47.079936,318,20841258,11.5,0
2024-03-10T11:37:23,0.2955135911,0.06879364974999999,9.8380901199,-0.014202616788103858,-0.0015271630954950385,-0.01618792881224741,-0.5450200000000001,0.38766,-1.7344600000000003,47.079936,318,20841258,11.5,0
2024-03-10T11:37:23,0.30508488149999996,0.06879364974999999,9.839286531199999,-0.018173240836390957,-0.001069014166846527,-0.016493361431346415,-0.5441800000000001,0.38234,-1.7334800000000004,46.916736,318,20841257,11.5,0
2024-03-10T11:37:23,0.3002992363,0.06759723845,9.83390268035,-0.012217304763960308,0.0003054326190990077,-0.012522737383059314,-0.54362,0.38066,-1.7270400000000001,46.916736,318,20841257,11.5,0
2024-03-10T11:37:23,0.33200413574999993,0.0729810893,9.82792062385,-0.013897184169004852,0.00015271630954950385,-0.014202616788103858,-0.54362,0.38066,-1.7270400000000001,46.916736,318,20841257,11.5,0
2024-03-10T11:37:23,0.30448667585,0.0669990328,9.84227755945,-0.016798794050445424,-0.0027488935718910697,-0.012370021073509813,-0.5453000000000001,0.38934,-1.7259200000000001,46.916736,318,20841257,11.5,0
2024-03-10T11:37:23,0.31405796625,0.05563312545,9.823134978649998,-0.012217304763960308,-0.00045814892864851157,-0.014049900478554353,-0.54838,0.38654,-1.7206000000000001,46.916736,318,20841257,11.5,0
2024-03-10T11:37:23,0.30687949845,0.05982056499999999,9.844670382049998,-0.015577063574049392,0.003207042500539581,-0.014355333097653362,-0.5489400000000001,0.38570000000000004,-1.72368,46.857983999999995,317,20775719,11.5,0
2024-03-10T11:37:23,0.30508488149999996,0.07956135144999998,9.844670382049998,-0.013286318930806834,0.002138028333693054,-0.013286318930806834,-0.5489400000000001,0.38570000000000004,-1.72368,46.857983999999995,317,20775719,11.5,0
2024-03-10T11:37:23,0.30867411539999995,0.0873380249,9.8057870148,-0.014508049407202865,0.0016798794050445422,-0.011301006906663285,-0.55062,0.38514000000000004,-1.72158,46.857983999999995,317,20775719,11.5,0
2024-03-10T11:37:23,0.2895315346,0.06400800455,9.836893708599998,-0.017715091907742446,0.001069014166846527,-0.013744467859455347,-0.5523,0.39326000000000005,-1.7239600000000002,46.857983999999995,317,20775719,11.5,0
2024-03-10T11:37:23,0.34037901484999994,0.07477570624999999,9.9014999188,-0.013133602621257331,-0.0009162978572970231,-0.012980886311707827,-0.5523,0.39326000000000005,-1.7239600000000002,46.857983999999995,317,20775719,11.5,0
2024-03-10T11:37:23,0.28773691765000003,0.07836494014999999,9.837491914249998,-0.016493361431346415,0.00015271630954950385,-0.014202616788103858,-0.5489400000000001,0.38626000000000005,-1.7253600000000002,46.857983999999995,317,20775719,11.5,0
2024-03-10T11:37:23,0.29910282499999996,0.06161518194999999,9.868598608049998,-0.014508049407202865,0.0,-0.012675453692608819,-0.5537000000000001,0.38262000000000007,-1.72256,46.694784,317,20775718,11.5,0
2024-03-10T11:37:23,0.31405796625,0.06759723845,9.84227755945,-0.010384709049366262,0.00015271630954950385,-0.014508049407202865,-0.5537000000000001,0.38262000000000007,-1.72256,46.694784,317,20775718,11.5,0
2024-03-10T11:37:24,0.3038884702,0.07058826669999999,9.84108114815,-0.01618792881224741,0.0009162978572970231,-0.015577063574049392,-0.5402600000000001,0.3831800000000001,-1.72368,46.694784,317,20775718,11.5,0
2024-03-10T11:37:24,0.29730820804999997,0.0729810893,9.8979106849,-0.018173240836390957,-0.0019853120241435504,-0.015729779883598898,-0.5525800000000001,0.39186,-1.73012,46.694784,317,20775718,11.5,0
2024-03-10T11:37:24,0.32841490184999994,0.060418770649999995,9.8763752815,-0.012217304763960308,-0.0012217304763960308,-0.013897184169004852,-0.5525800000000001,0.39186,-1.73012,46.694784,317,20775718,11.5,0
2024-03-10T11:37:24,0.28534409504999997,0.0681954441,9.8440721764,-0.016340645121796914,0.0012217304763960308,-0.012064588454410803,-0.54166,0.38542000000000004,-1.7340400000000002,46.694784,317,20775718,11.5,0
2024-03-10T11:37:24,0.29910282499999996,0.05563312545,9.847661410299999,-0.015577063574049392,-0.002138028333693054,-0.014355333097653362,-0.54698,0.38626000000000005,-1.7232600000000002,46.694784,317,20775718,11.5,0
2024-03-10T11:37:24,0.2907279459,0.0693918554,9.832706269049998,-0.011301006906663285,0.0019853120241435504,-0.016493361431346415,-0.54698,0.38626000000000005,-1.7232600000000002,46.799231999999996,316,20710181,11.5,0
2024-03-10T11:37:24,0.30508488149999996,0.0693918554,9.84706320465,-0.019089538693687978,0.002901609881440573,-0.014355333097653362,-0.5489400000000001,0.38122,-1.7276000000000002,46.799231999999996,316,20710181,11.5,0
2024-03-10T11:37:24,0.3026920589,0.09391828705,9.812367276949999,-0.014355333097653362,-0.0024434609527920616,-0.013591751549905842,-0.54698,0.38374,-1.73292,46.799231999999996,316,20710181,11.5,0
2024-03-10T11:37:24,0.3278166962,0.07118647234999999,9.794421107449999,-0.019089538693687978,0.0016798794050445422,-0.012675453692608819,-0.54698,0.38374,-1.73292,46.799231999999996,316,20710181,11.5,0
2024-03-10T11:37:24,0.26500510294999996,0.062213387599999996,9.836893708599998,-0.012828170002158324,0.00045814892864851157,-0.012980886311707827,-0.55034,0.38234,-1.7287200000000003,46.799231999999996,316,20710181,11.5,0
2024-03-10T11:37:24,0.31944181709999997,0.05503491979999999,9.863812962849998,-0.01786780821729195,0.0009162978572970231,-0.012064588454410803,-0.55034,0.38234,-1.7416,46.799231999999996,316,20710181,11.5,0
2024-03-10T11:37:24,0.2895315346,0.07058826669999999,9.86620578545,-0.015882496193148403,0.0006108652381980154,-0.015424347264499889,-0.5509000000000001,0.39074000000000003,-1.7416,46.531583999999995,317,20775717,11.5,0
2024-03-10T11:37:24,0.31166514365,0.08434699664999999,9.8452685877,-0.01618792881224741,-0.0003054326190990077,-0.014355333097653362,-0.54698,0.38682000000000005,-1.7241000000000002,46.531583999999995,317,20775717,11.5,0
2024-03-10T11:37:24,0.31345976059999997,0.06759723845,9.868598608049998,-0.013286318930806834,-0.0012217304763960308,-0.014508049407202865,-0.54698,0.38682000000000005,-1.7241000000000002,46.531583999999995,317,20775717,11.5,0
2024-03-10T11:37:24,0.28893332894999996,0.060418770649999995,9.84227755945,-0.01664607774089592,-0.0024434609527920616,-0.013744467859455347,-0.54586,0.38822,-1.7332000000000003,46.531583999999995,317,20775717,11.5,0
2024-03-10T11:37:24,0.28175486115,0.0681954441,9.84706320465,-0.015424347264499889,-0.0018325957145940463,-0.01466076571675237,-0.5542600000000001,0.38626000000000005,-1.7178000000000002,46.531583999999995,317,20775717,11.5,0
2024-03-10T11:37:24,0.30747770409999997,0.07238288365,9.785448022699999,-0.015882496193148403,-0.0018325957145940463,-0.014813482026301873,-0.5542600000000001,0.38626000000000005,-1.7178000000000002,46.531583999999995,317,20775717,11.5,0
2024-03-10T11:37:24,0.31046873235,0.0729810893,9.861420140249999,-0.017409659288643436,0.0006108652381980154,-0.013133602621257331,-0.55174,0.38514000000000004,-1.7222800000000003,46.531583999999995,317,20775717,11.5,0
2024-03-10T11:37:24,0.30448667585,0.0634097989,9.81356368825,-0.013897184169004852,0.00015271630954950385,-0.012828170002158324,-0.55678,0.38206000000000007,-1.7176600000000002,46.472832,316,20710179,11.5,0
2024-03-10T11:37:24,0.30448667585,0.06161518194999999,9.8452685877,-0.011759155835311796,-0.0015271630954950385,-0.014966198335851376,-0.55678,0.38206000000000007,-1.7176600000000002,46.472832,316,20710179,11.5,0
2024-03-10T11:37:24,0.3062812928,0.06400800455,9.7519485063,-0.013744467859455347,-0.0015271630954950385,-0.014049900478554353,-0.55174,0.38374,-1.73544,46.472832,316,20710179,11.5,0
2024-03-10T11:37:24,0.2907279459,0.07357929495,9.889535805799998,-0.015424347264499889,-0.0018325957145940463,-0.012675453692608819,-0.5464200000000001,0.3829,-1.70856,46.472832,316,20710179,11.5,0
2024-03-10T11:37:24,0.29611179675,0.07597211755,9.807581631749999,-0.012980886311707827,0.0003054326190990077,-0.014355333097653362,-0.5464200000000001,0.3829,-1.70856,46.472832,316,20710179,11.5,0
2024-03-10T11:37:24,0.27517459899999996,0.05443671415,9.864411168499998,-0.012370021073509813,0.001069014166846527,-0.014508049407202865,-0.5439,0.38374,-1.72844,46.472832,316,20710179,11.5,0
2024-03-10T11:37:24,0.45702911659999995,0.05204389154999999,9.8548398781,-0.012980886311707827,-0.001069014166846527,-0.01114829059711378,-0.5439,0.38374,-1.7141600000000001,46.74047999999999,315,20644643,11.5,0
2024-03-10T11:37:24,0.30927232104999997,0.0681954441,9.8452685877,-0.01069014166846527,0.0012217304763960308,-0.01069014166846527,-0.54978,0.38402000000000003,-1.7141600000000001,46.74047999999999,315,20644643,11.5,0
2024-03-10T11:37:24,0.29252256285,0.08673981925,9.84586679335,-0.013286318930806834,-0.0016798794050445422,-0.011301006906663285,-0.5450200000000001,0.38234,-1.7287200000000003,46.74047999999999,315,20644643,11.5,0
2024-03-10T11:37:24,0.28893332894999996,0.0681954441,9.8201439504,-0.012828170002158324,0.00015271630954950385,-0.012370021073509813,-0.55678,0.38682000000000005,-1.7185000000000001,46.74047999999999,315,20644643,11.5,0
2024-03-10T11:37:24,0.31286155495,0.0873380249,9.823733184299998,-0.01466076571675237,-0.0015271630954950385,-0.012980886311707827,-0.5453000000000001,0.38066,-1.7208800000000002,46.74047999999999,315,20644643,11.5,0
2024-03-10T11:37:24,0.3296113131499999,0.0502492746,9.82911703515,-0.015577063574049392,0.0012217304763960308,-0.01145372321621279,-0.5453000000000001,0.38066,-1.7208800000000002,46.74047999999999,315,20644643,11.5,0
2024-03-10T11:37:24,0.31046873235,0.08913264185,9.89491965665,-0.014966198335851376,0.0007635815477475193,-0.013286318930806834,-0.55034,0.38094000000000006,-1.7133200000000002,46.799231999999996,316,20710181,11.5,0
2024-03-10T11:37:24,0.3002992363,0.07058826669999999,9.794421107449999,-0.013286318930806834,-0.0019853120241435504,-0.014049900478554353,-0.54446,0.38514000000000004,-1.7315200000000002,46.799231999999996,316,20710181,11.5,0
2024-03-10T11:37:24,0.29312076849999996,0.05084748024999999,9.87697348715,-0.015118914645400881,0.00015271630954950385,-0.012675453692608819,-0.54446,0.38514000000000004,-1.7315200000000002,46.799231999999996,316,20710181,11.5,0
2024-03-10T11:37:24,0.29850461935,0.08075776274999999,9.851250644199999,-0.013286318930806834,0.0,-0.012980886311707827,-0.5441800000000001,0.38850000000000007,-1.7213000000000003,46.799231999999996,316,20710181,11.5,0
2024-03-10T11:37:24,0.31106693799999996,0.07597211755,9.8739824589,-0.013286318930806834,0.0016798794050445422,-0.014355333097653362,-0.5453000000000001,0.3773,-1.73012,46.799231999999996,316,20710181,11.5,0
2024-03-10T11:37:24,0.29910282499999996,0.08075776274999999,9.839884736850001,-0.013897184169004852,-0.0015271630954950385,-0.015271630954950386,-0.5453000000000001,0.3773,-1.73012,46.799231999999996,316,20710181,11.5,0
2024-03-10T11:37:24,0.30807590975,0.06759723845,9.847661410299999,-0.018478673455489966,0.0025961772623415654,-0.014355333097653362,-0.55286,0.38878,-1.7249400000000001,46.857983999999995,317,20775719,11.5,0
2024-03-10T11:37:24,0.3026920589,0.06281159324999999,9.81356368825,-0.01466076571675237,0.0,-0.01618792881224741,-0.55062,0.3831800000000001,-1.7327800000000002,46.857983999999995,317,20775719,11.5,0
2024-03-10T11:37:24,0.31166514365,0.0646062102,9.82433138995,-0.018020524526841455,-0.001069014166846527,-0.016340645121796914,-0.55062,0.3831800000000001,-1.7327800000000002,46.857983999999995,317,20775719,11.5,0
2024-03-10T11:37:24,0.30149564759999997,0.0634097989,9.844670382049998,-0.016340645121796914,0.0,-0.013133602621257331,-0.5489400000000001,0.38206000000000007,-1.7260600000000001,46.857983999999995,317,20775719,11.5,0
2024-03-10T11:37:24,0.29132615154999997,0.0669990328,9.798010341349999,-0.015118914645400881,0.0012217304763960308,-0.013744467859455347,-0.5441800000000001,0.38262000000000007,-1.7409000000000001,46.857983999999995,317,20775719,11.5,0
2024-03-10T11:37:24,0.45224347139999993,0.06879364974999999,9.8811609267,-0.014508049407202865,-0.038331793696925465,-0.01664607774089592,-0.5441800000000001,0.38262000000000007,-1.7409000000000001,46.857983999999995,317,20775719,11.5,0
2024-03-10T11:37:24,0.30568308715,0.059222359349999996,9.7974121357,-0.015271630954950386,0.0,-0.013591751549905842,-0.54866,0.38038000000000005,-1.7173800000000001,46.857983999999995,317,20775719,11.5,0
2024-03-10T11:37:24,0.2919243572,0.058624153699999994,9.8452685877,-0.017256942979093935,0.002138028333693054,-0.014966198335851376,-0.54866,0.38038000000000005,-1.7173800000000001,46.916736,318,20841257,11.5,0
2024-03-10T11:37:24,0.2907279459,0.07477570624999999,9.853643466800001,-0.013133602621257331,-0.0006108652381980154,-0.013439035240356337,-0.5542600000000001,0.3831800000000001,-1.72144,46.916736,318,20841257,11.5,0
2024-03-10T11:37:24,0.27816562724999994,0.08075776274999999,9.855438083749998,-0.013897184169004852,0.0018325957145940463,-0.013439035240356337,-0.55398,0.38850000000000007,-1.7238200000000001,46.916736,318,20841257,11.5,0
2024-03-10T11:37:24,0.3038884702,0.09631110964999999,9.745368244149999,-0.01756237559819294,-0.002138028333693054,-0.012828170002158324,-0.55398,0.38850000000000007,-1.7238200000000001,46.916736,318,20841257,11.5,0
2024-03-10T11:37:24,0.16510475939999997,0.07836494014999999,9.836893708599998,-0.013439035240356337,0.038942658935123484,-0.014202616788103858,-0.55062,0.38178,-1.7213000000000003,46.916736,318,20841257,11.5,0
2024-03-10T11:37:24,0.3152543775499999,0.0646062102,9.85902731765,-0.014202616788103858,-0.0007635815477475193,-0.013133602621257331,-0.5537000000000001,0.38626000000000005,-1.73334,46.916736,318,20841257,11.5,0
2024-03-10T11:37:24,0.2727817764,0.08195417405,9.883553749299999,-0.018478673455489966,-0.0007635815477475193,-0.014813482026301873,-0.5537000000000001,0.38626000000000005,-1.73334,46.753536,318,20841256,11.5,0
2024-03-10T11:37:24,0.3296113131499999,0.06759723845,9.848857821599998,-0.015577063574049392,0.0007635815477475193,-0.013286318930806834,-0.54978,0.38402000000000003,-1.7229800000000002,46.753536,318,20841256,11.5,0
2024-03-10T11:37:24,0.30329026454999997,0.0897308475,9.837491914249998,-0.014508049407202865,-0.0022907446432425577,-0.012522737383059314,-0.5565,0.38458000000000003,-1.7369800000000002,46.753536,318,20841256,11.5,0
2024-03-10T11:37:24,0.28534409504999997,0.057427742399999995,9.828518829499998,-0.015118914645400881,-0.001069014166846527,-0.01466076571675237,-0.5565,0.38458000000000003,-1.7369800000000002,46.753536,318,20841256,11.5,0
2024-03-10T11:37:24,0.32482566794999995,0.08135596839999999,9.71545796165,-0.015729779883598898,-0.0012217304763960308,-0.014508049407202865,-0.54698,0.38458000000000003,-1.7169600000000003,46.753536,318,20841256,11.5,0
2024-03-10T11:37:24,0.32542387359999997,0.05084748024999999,9.7962157244,-0.015118914645400881,0.0009162978572970231,-0.013133602621257331,-0.55034,0.37814000000000003,-1.7262000000000002,46.753536,318,20841256,11.5,0
2024-03-10T11:37:24,0.30568308715,0.057427742399999995,9.863812962849998,-0.016035212502697904,-0.0015271630954950385,-0.015577063574049392,-0.55034,0.37814000000000003,-1.7262000000000002,46.427136,318,20841254,11.5,0
2024-03-10T11:37:24,0.30807590975,0.0681954441,9.8620183459,-0.012370021073509813,0.00045814892864851157,-0.012675453692608819,-0.54978,0.38010000000000005,-1.7311,46.427136,318,20841254,11.5,0
2024-03-10T11:37:24,0.28654050634999995,0.07058826669999999,9.841679353799998,-0.01756237559819294,-0.0025961772623415654,-0.012064588454410803,-0.5511800000000001,0.38038000000000005,-1.72788,46.427136,318,20841254,11.5,0
2024-03-10T11:37:24,0.31824540579999994,0.0897308475,9.868598608049998,-0.012217304763960308,0.00045814892864851157,-0.014355333097653362,-0.5511800000000001,0.38038000000000005,-1.72788,46.427136,318,20841254,11.5,0
2024-03-10T11:37:24,0.15912270289999997,0.07477570624999999,9.82911703515,-0.016035212502697904,-0.0027488935718910697,-0.015424347264499889,-0.5455800000000001,0.38094000000000006,-1.7228400000000001,46.427136,318,20841254,11.5,0
2024-03-10T11:37:24,0.2763710103,0.10827522265,9.855438083749998,-0.013591751549905842,0.0027488935718910697,-0.015424347264499889,-0.5489400000000001,0.38458000000000003,-1.7263400000000002,46.427136,318,20841254,11.5,0
2024-03-10T11:37:25,0.2943171798,0.0646062102,9.8249295956,-0.014049900478554353,-0.0009162978572970231,-0.011759155835311796,-0.5489400000000001,0.38458000000000003,-1.7263400000000002,46.427136,318,20841254,11.5,0
2024-03-10T11:37:25,0.3218346397,0.0765703232,9.8404829425,-0.017256942979093935,-0.0003054326190990077,-0.016798794050445424,-0.5511800000000001,0.39214000000000004,-1.71794,46.531583999999995,317,20775717,11.5,0
2024-03-10T11:37:25,0.30508488149999996,0.06281159324999999,9.8380901199,-0.012675453692608819,0.00015271630954950385,-0.014813482026301873,-0.5430600000000001,0.38346,-1.73292,46.531583999999995,317,20775717,11.5,0
2024-03-10T11:37:25,0.30687949845,0.08195417405,9.8500542329,-0.019089538693687978,-0.0022907446432425577,-0.012980886311707827,-0.5430600000000001,0.38346,-1.73292,46.531583999999995,317,20775717,11.5,0
2024-03-10T11:37:25,0.29850461935,0.07118647234999999,9.839286531199999,-0.014508049407202865,-0.0038179077387375964,-0.015729779883598898,-0.55062,0.38514000000000004,-1.7108,46.531583999999995,317,20775717,11.5,0
2024-03-10T11:37:25,0.28235306679999994,0.08015955709999999,9.8261260069,-0.013744467859455347,0.0003054326190990077,-0.012828170002158324,-0.54222,0.38514000000000004,-1.7245200000000003,46.531583999999995,317,20775717,11.5,0
2024-03-10T11:37:25,0.31645078885,0.05503491979999999,9.72622566335,-0.013133602621257331,-0.0007635815477475193,-0.014202616788103858,-0.54222,0.38514000000000004,-1.7245200000000003,46.531583999999995,317,20775717,11.5,0
2024-03-10T11:37:25,0.27517459899999996,0.07357929495,9.851848849849999,-0.01756237559819294,0.001069014166846527,-0.013591751549905842,-0.5514600000000001,0.37814000000000003,-1.7110800000000002,46.694784,317,20775718,11.5,0
2024-03-10T11:37:25,0.29910282499999996,0.05443671415,9.83390268035,-0.015882496193148403,-0.0003054326190990077,-0.0119118721448613,-0.5439,0.38682000000000005,-1.7232600000000002,46.694784,317,20775718,11.5,0
2024-03-10T11:37:25,0.30508488149999996,0.0789631458,9.839286531199999,-0.014508049407202865,0.003054326190990077,-0.014966198335851376,-0.5439,0.38682000000000005,-1.7232600000000002,46.694784,317,20775718,11.5,0
2024-03-10T11:37:25,0.33200413574999993,0.07118647234999999,9.846464998999998,-0.011759155835311796,0.00045814892864851157,-0.01466076571675237,-0.5509000000000001,0.38570000000000004,-1.70534,46.694784,317,20775718,11.5,0
2024-03-10T11:37:25,0.29730820804999997,0.08135596839999999,9.863812962849998,-0.012980886311707827,-0.0016798794050445422,-0.012217304763960308,-0.5509000000000001,0.38570000000000004,-1.70534,46.694784,317,20775718,11.5,0
2024-03-10T11:37:25,0.3062812928,0.048454657649999996,9.839884736850001,-0.016340645121796914,0.0013744467859455349,-0.01466076571675237,-0.5439,0.37954000000000004,-1.7248,46.694784,317,20775718,11.5,0
2024-03-10T11:37:25,0.2895315346,0.0681954441,9.8452685877,-0.016951510359994926,0.0013744467859455349,-0.013591751549905842,-0.5500600000000001,0.38094000000000006,-1.72466,46.694784,317,20775719,11.5,0
2024-03-10T11:37:25,0.32004002274999993,0.07716852884999999,9.8380901199,-0.009926560120717751,0.00015271630954950385,-0.012980886311707827,-0.5500600000000001,0.38094000000000006,-1.72466,46.857983999999995,317,20775719,11.5,0
2024-03-10T11:37:25,0.29850461935,0.06759723845,9.83390268035,-0.015577063574049392,0.00045814892864851157,-0.015882496193148403,-0.55062,0.37786000000000003,-1.71836,46.857983999999995,317,20775719,11.5,0
2024-03-10T11:37:25,0.45702911659999995,0.04725824635,9.918249676999999,-0.012217304763960308,-0.00045814892864851157,-0.013133602621257331,-0.5537000000000001,0.37842000000000003,-1.7295600000000002,46.857983999999995,317,20775719,11.5,0
2024-03-10T11:37:25,0.2919243572,0.0741775006,9.8404829425,-0.015729779883598898,0.0012217304763960308,-0.012217304763960308,-0.5537000000000001,0.37842000000000003,-1.7295600000000002,46.857983999999995,317,20775719,11.5,0
2024-03-10T11:37:25,0.31824540579999994,0.0681954441,9.86740219675,-0.012370021073509813,0.0009162978572970231,-0.009773843811168246,-0.5495,0.38234,-1.7299800000000003,46.857983999999995,317,20775719,11.5,0
2024-03-10T11:37:25,0.29970103065,0.06879364974999999,9.807581631749999,-0.015424347264499889,-0.001069014166846527,-0.012980886311707827,-0.5478200000000001,0.37870000000000004,-1.73068,46.857983999999995,317,20775719,11.5,0
2024-03-10T11:37:25,0.2955135911,0.0765703232,9.8572327007,-0.01618792881224741,0.00473420559603462,-0.015577063574049392,-0.5478200000000001,0.37870000000000004,-1.73068,46.753536,318,20841256,11.5,0
2024-03-10T11:37:25,0.31345976059999997,0.04905286329999999,9.84586679335,-0.014966198335851376,-0.0015271630954950385,-0.012522737383059314,-0.5551,0.38206000000000007,-1.72256,46.753536,318,20841256,11.5,0
2024-03-10T11:37:25,0.31226334929999994,0.08255237969999998,9.812965482600001,-0.015118914645400881,-0.0003054326190990077,-0.014508049407202865,-0.55174,0.37394000000000005,-1.7137400000000003,46.753536,318,20841256,11.5,0
2024-03-10T11:37:25,0.2967100024,0.09930213789999999,9.807581631749999,-0.015577063574049392,0.0025961772623415654,-0.014355333097653362,-0.55174,0.37394000000000005,-1.7137400000000003,46.753536,318,20841256,11.5,0
2024-03-10T11:37:25,0.30149564759999997,0.05982056499999999,9.89013401145,-0.015882496193148403,-0.0003054326190990077,-0.012675453692608819,-0.55034,0.3829,-1.7245200000000003,46.753536,318,20841256,11.5,0
2024-03-10T11:37:25,0.30867411539999995,0.07357929495,9.84227755945,-0.016493361431346415,-0.00015271630954950385,-0.012675453692608819,-0.5618200000000001,0.37814000000000003,-1.7217200000000004,46.753536,318,20841256,11.5,0
2024-03-10T11:37:25,0.29730820804999997,0.08015955709999999,9.839884736850001,-0.013591751549905842,-0.0007635815477475193,-0.013897184169004852,-0.5618200000000001,0.37814000000000003,-1.7217200000000004,46.753536,318,20841256,11.5,0
2024-03-10T11:37:25,0.29252256285,0.07836494014999999,9.88175913235,-0.012828170002158324,-0.0007635815477475193,-0.014355333097653362,-0.55286,0.38374,-1.7264800000000002,46.753536,318,20841256,11.5,0
2024-03-10T11:37:25,0.3236292566499999,0.10109675484999998,9.8572327007,-0.013897184169004852,0.004123340357836604,-0.014202616788103858,-0.55286,0.38374,-1.7264800000000002,46.753536,318,20841256,11.5,0
2024-03-10T11:37:25,0.30508488149999996,0.08673981925,9.75613594585,-0.013439035240356337,0.0003054326190990077,-0.013439035240356337,-0.54866,0.39326000000000005,-1.7264800000000002,46.753536,318,20841256,11.5,0
2024-03-10T11:37:25,0.2943171798,0.07477570624999999,9.809974454349998,-0.011301006906663285,-0.003054326190990077,-0.014355333097653362,-0.5531400000000001,0.38346,-1.7290000000000003,46.753536,318,20841256,11.5,0
2024-03-10T11:37:25,0.28534409504999997,0.06999006104999998,9.882357337999998,-0.013286318930806834,0.00015271630954950385,-0.014355333097653362,-0.5531400000000001,0.38346,-1.7290000000000003,46.753536,318,20841256,11.5,0
2024-03-10T11:37:25,0.16570296504999998,0.10348957745,9.8727860476,-0.014202616788103858,0.03756821214917795,-0.013897184169004852,-0.5551,0.38094000000000006,-1.7276000000000002,46.753536,318,20841256,11.5,0
2024-03-10T11:37:25,0.31405796625,0.08673981925,9.851848849849999,-0.014202616788103858,0.0025961772623415654,-0.013286318930806834,-0.5439,0.38206000000000007,-1.7235400000000003,46.753536,318,20841256,11.5,0
2024-03-10T11:37:25,0.32422746229999994,0.05503491979999999,9.8548398781,-0.013439035240356337,0.0009162978572970231,-0.014355333097653362,-0.5439,0.38206000000000007,-1.7235400000000003,46.753536,318,20841256,11.5,0
2024-03-10T11:37:25,0.2787638329,0.0693918554,9.856634495049999,-0.017715091907742446,0.0012217304763960308,-0.014813482026301873,-0.5525800000000001,0.3901800000000001,-1.7420200000000001,46.753536,318,20841256,11.5,0
2024-03-10T11:37:25,0.31046873235,0.05802594804999999,9.850652438549998,-0.010079276430267254,-0.0035124751196385882,-0.012522737383059314,-0.55398,0.3829,-1.7305400000000002,46.753536,318,20841256,11.5,0
2024-03-10T11:37:25,0.2895315346,0.04247260115,9.834500885999999,-0.015882496193148403,0.00015271630954950385,-0.013286318930806834,-0.55398,0.3829,-1.7305400000000002,46.753536,318,20841256,11.5,0
2024-03-10T11:37:25,0.30687949845,0.0897308475,9.868598608049998,-0.018478673455489966,-0.0007635815477475193,-0.016035212502697904,-0.5500600000000001,0.37982000000000005,-1.7484600000000003,46.753536,318,20841256,11.5,0
2024-03-10T11:37:25,0.30329026454999997,0.08195417405,9.84706320465,-0.015882496193148403,0.0003054326190990077,-0.014813482026301873,-0.5573400000000001,0.38346,-1.72158,46.590336,318,20841255,11.5,0
2024-03-10T11:37:25,0.3158525832,0.0729810893,9.851848849849999,-0.012828170002158324,-0.00015271630954950385,-0.015424347264499889,-0.55174,0.39214000000000004,-1.7395000000000003,46.590336,318,20841255,11.5,0
2024-03-10T11:37:25,0.3098705267,0.10648060570000001,9.8333044747,-0.018784106074588976,0.0012217304763960308,-0.014508049407202865,-0.55174,0.39214000000000004,-1.7395000000000003,46.590336,318,20841255,11.5,0
2024-03-10T11:37:25,0.32422746229999994,0.0729810893,9.8452685877,-0.01863138976503947,0.00045814892864851157,-0.016035212502697904,-0.55286,0.37086,-1.7297000000000002,46.590336,318,20841255,11.5,0
2024-03-10T11:37:25,0.31405796625,0.06580262149999999,9.860223728949999,-0.013286318930806834,0.0009162978572970231,-0.012370021073509813,-0.5584600000000001,0.38570000000000004,-1.74062,46.590336,318,20841255,11.5,0
2024-03-10T11:37:25,0.31645078885,0.08255237969999998,9.84586679335,-0.012980886311707827,0.00015271630954950385,-0.014813482026301873,-0.5584600000000001,0.38570000000000004,-1.74062,46.590336,318,20841255,11.5,0
2024-03-10T11:37:25,0.29611179675,0.06640082715,9.842875765099999,-0.01664607774089592,0.001069014166846527,-0.015882496193148403,-0.55034,0.38234,-1.73012,46.857983999999995,317,20775719,11.5,0
2024-03-10T11:37:25,0.27457639335,0.06101697629999999,9.87697348715,-0.013286318930806834,0.0019853120241435504,-0.013439035240356337,-0.55034,0.38234,-1.73012,46.857983999999995,317,20775719,11.5,0
2024-03-10T11:37:25,0.3098705267,0.058624153699999994,9.878768104099999,-0.015118914645400881,-0.0027488935718910697,-0.014966198335851376,-0.5531400000000001,0.38346,-1.7213000000000003,46.857983999999995,317,20775719,11.5,0
2024-03-10T11:37:25,0.30209385325,0.07058826669999999,9.8153583052,-0.018173240836390957,0.0003054326190990077,-0.012828170002158324,-0.5531400000000001,0.38262000000000007,-1.7326400000000002,46.857983999999995,317,20775719,11.5,0
2024-03-10T11:37:25,0.44685962055,0.07716852884999999,9.8189475391,-0.014202616788103858,-0.038331793696925465,-0.013897184169004852,-0.5531400000000001,0.38262000000000007,-1.7326400000000002,46.857983999999995,317,20775719,11.5,0
2024-03-10T11:37:25,0.30089744194999996,0.09032905315,9.834500885999999,-0.016035212502697904,-0.0016798794050445422,-0.012522737383059314,-0.5461400000000001,0.38262000000000007,-1.7280200000000001,46.857983999999995,317,20775719,11.5,0
2024-03-10T11:37:25,0.2907279459,0.07836494014999999,9.830313446449999,-0.014355333097653362,0.00045814892864851157,-0.013439035240356337,-0.5489400000000001,0.38038000000000005,-1.7295600000000002,46.857983999999995,317,20775719,11.5,0
2024-03-10T11:37:25,0.32243284534999994,0.060418770649999995,9.826724212550001,-0.012828170002158324,-0.0019853120241435504,-0.013286318930806834,-0.5489400000000001,0.38038000000000005,-1.7295600000000002,46.857983999999995,317,20775719,11.5,0
2024-03-10T11:37:25,0.30149564759999997,0.0693918554,9.844670382049998,-0.014355333097653362,-0.0022907446432425577,-0.012980886311707827,-0.5455800000000001,0.37254000000000004,-1.74608,46.857983999999995,317,20775719,11.5,0
2024-03-10T11:37:25,0.31645078885,0.057427742399999995,9.848259615949999,-0.01710422666954443,-0.002138028333693054,-0.011301006906663285,-0.5618200000000001,0.37478,-1.7294200000000002,46.857983999999995,317,20775719,11.5,0
2024-03-10T11:37:25,0.31106693799999996,0.06759723845,9.873384253249998,-0.014966198335851376,0.0024434609527920616,-0.011301006906663285,-0.5618200000000001,0.37478,-1.7294200000000002,46.857983999999995,317,20775719,11.5,0
2024-03-10T11:37:25,0.30089744194999996,0.0693918554,9.838688325549999,-0.015424347264499889,0.002138028333693054,-0.0119118721448613,-0.5495,0.37506000000000006,-1.7462200000000003,46.857983999999995,317,20775719,11.5,0
2024-03-10T11:37:25,0.2883351233,0.09990034354999999,9.837491914249998,-0.016035212502697904,0.0,-0.015882496193148403,-0.5579000000000001,0.38122,-1.7259200000000001,46.857983999999995,317,20775719,11.5,0
2024-03-10T11:37:25,0.28295127244999996,0.09391828705,9.8991070962,-0.019853120241435502,-0.002138028333693054,-0.014202616788103858,-0.5579000000000001,0.38122,-1.7259200000000001,46.427136,318,20841254,11.5,0
2024-03-10T11:37:25,0.33439695834999994,0.07357929495,9.91884788265,-0.014508049407202865,-0.038484510006474966,-0.012064588454410803,-0.54922,0.37786000000000003,-1.73656,46.427136,318,20841254,11.5,0
2024-03-10T11:37:25,0.29611179675,0.0789631458,9.848857821599998,-0.012980886311707827,0.0019853120241435504,-0.012370021073509813,-0.55062,0.37982000000000005,-1.7326400000000002,46.427136,318,20841254,11.5,0
2024-03-10T11:37:25,0.30927232104999997,0.0681954441,9.84227755945,-0.01863138976503947,0.0016798794050445422,-0.014508049407202865,-0.55062,0.37982000000000005,-1.7326400000000002,46.427136,318,20841254,11.5,0
2024-03-10T11:37:26,0.31226334929999994,0.038883367249999995,9.766305441899998,-0.01786780821729195,0.0016798794050445422,-0.014966198335851376,-0.54586,0.37758,-1.7159800000000003,46.427136,318,20841254,11.5,0
2024-03-10T11:37:26,0.32602207924999993,0.062213387599999996,9.8380901199,-0.012980886311707827,-0.0006108652381980154,-0.014508049407202865,-0.55286,0.38346,-1.7311,46.427136,318,20841254,11.5,0
2024-03-10T11:37:26,0.31645078885,0.08913264185,9.842875765099999,-0.013744467859455347,-0.001069014166846527,-0.011301006906663285,-0.55286,0.38346,-1.7311,46.427136,318,20841254,11.5,0
2024-03-10T11:37:26,0.31286155495,0.08315058534999999,9.97627562505,-0.016798794050445424,0.002138028333693054,-0.01664607774089592,-0.5514600000000001,0.37674,-1.72144,46.857983999999995,317,20775719,11.5,0
2024-03-10T11:37:26,0.30867411539999995,0.0693918554,9.844670382049998,-0.014508049407202865,-0.0013744467859455349,-0.012675453692608819,-0.5514600000000001,0.37674,-1.72144,46.857983999999995,317,20775719,11.5,0
2024-03-10T11:37:26,0.31106693799999996,0.060418770649999995,9.9158568544,-0.014202616788103858,0.0027488935718910697,-0.014813482026301873,-0.55454,0.38654,-1.7281600000000001,46.857983999999995,317,20775719,11.5,0
2024-03-10T11:37:26,0.30089744194999996,0.04606183504999999,9.83390268035,-0.013439035240356337,0.0035124751196385882,-0.013897184169004852,-0.5472600000000001,0.38122,-1.72116,46.857983999999995,317,20775719,11.5,0
2024-03-10T11:37:26,0.29910282499999996,0.057427742399999995,9.835697297299998,-0.010384709049366262,0.0007635815477475193,-0.012370021073509813,-0.5472600000000001,0.38122,-1.72116,46.857983999999995,317,20775719,11.5,0
2024-03-10T11:37:26,0.29012974025,0.10408778309999998,9.87218784195,-0.017256942979093935,0.0009162978572970231,-0.012828170002158324,-0.55762,0.38374,-1.72032,46.857983999999995,317,20775719,11.5,0
2024-03-10T11:37:26,0.29132615154999997,0.0693918554,9.859625523299998,-0.014202616788103858,0.001069014166846527,-0.015118914645400881,-0.5525800000000001,0.38178,-1.7339,46.590336,318,20841255,11.5,0
2024-03-10T11:37:26,0.2919243572,0.07776673449999999,9.843473970749999,-0.015118914645400881,-0.0012217304763960308,-0.013286318930806834,-0.5525800000000001,0.38178,-1.7339,46.590336,318,20841255,11.5,0
2024-03-10T11:37:26,0.30568308715,0.05682953674999999,9.88175913235,-0.01786780821729195,0.0018325957145940463,-0.012675453692608819,-0.5565,0.37758,-1.7242400000000002,46.590336,318,20841255,11.5,0
2024-03-10T11:37:26,0.32422746229999994,0.06640082715,9.8452685877,-0.014355333097653362,0.0,-0.013897184169004852,-0.5514600000000001,0.38094000000000006,-1.7360000000000002,46.590336,318,20841255,11.5,0
2024-03-10T11:37:26,0.32662028489999995,0.06580262149999999,9.835697297299998,-0.014966198335851376,0.0024434609527920616,-0.013744467859455347,-0.5514600000000001,0.38094000000000006,-1.7360000000000002,46.590336,318,20841255,11.5,0
2024-03-10T11:37:26,0.2835494781,0.07597211755,9.820742156049999,-0.015118914645400881,-0.0019853120241435504,-0.015118914645400881,-0.55874,0.38626000000000005,-1.7313800000000001,46.590336,318,20841255,11.5,0
2024-03-10T11:37:26,0.28594230069999993,0.08673981925,9.852447055499999,-0.014049900478554353,-0.0009162978572970231,-0.0119118721448613,-0.5523,0.38094000000000006,-1.7248,46.590336,318,20841255,11.5,0
2024-03-10T11:37:26,0.30149564759999997,0.0729810893,9.84586679335,-0.011606439525762293,0.0015271630954950385,-0.01466076571675237,-0.5523,0.38094000000000006,-1.7248,46.694784,317,20775718,11.5,0
2024-03-10T11:37:26,0.30568308715,0.07597211755,9.84945602725,-0.014049900478554353,-0.0018325957145940463,-0.013133602621257331,-0.5531400000000001,0.38850000000000007,-1.7360000000000002,46.694784,317,20775718,11.5,0
2024-03-10T11:37:26,0.31046873235,0.0729810893,9.861420140249999,-0.013286318930806834,0.0,-0.013286318930806834,-0.5531400000000001,0.37898000000000004,-1.7311,46.694784,317,20775718,11.5,0
2024-03-10T11:37:26,0.2979064137,0.06879364974999999,9.8380901199,-0.014355333097653362,0.00045814892864851157,-0.013439035240356337,-0.5489400000000001,0.37898000000000004,-1.7311,46.694784,317,20775718,11.5,0
2024-03-10T11:37:26,0.29730820804999997,0.04307080679999999,9.847661410299999,-0.013439035240356337,0.0003054326190990077,-0.012980886311707827,-0.54754,0.38402000000000003,-1.7304000000000002,46.694784,317,20775718,11.5,0
2024-03-10T11:37:26,0.27337998204999997,0.06879364974999999,9.905089152699999,-0.017256942979093935,0.0018325957145940463,-0.010995574287564279,-0.54754,0.38402000000000003,-1.7304000000000002,46.694784,317,20775718,11.5,0
2024-03-10T11:37:26,0.3098705267,0.10229316614999999,9.84586679335,-0.014355333097653362,-0.0006108652381980154,-0.01466076571675237,-0.54838,0.37870000000000004,-1.72844,46.694784,317,20775718,11.5,0
2024-03-10T11:37:26,0.29970103065,0.06400800455,9.868598608049998,-0.013286318930806834,0.0007635815477475193,-0.0119118721448613,-0.5464200000000001,0.38766,-1.73292,46.694784,317,20775718,11.5,0
2024-03-10T11:37:26,0.28414768374999994,0.0669990328,9.877571692799998,-0.014202616788103858,0.0003054326190990077,-0.014813482026301873,-0.5500600000000001,0.38822,-1.7309600000000003,46.694784,317,20775718,11.5,0
2024-03-10T11:37:26,0.2943171798,0.058624153699999994,9.807581631749999,-0.01618792881224741,-0.0009162978572970231,-0.015882496193148403,-0.5500600000000001,0.38822,-1.7309600000000003,46.694784,317,20775718,11.5,0
2024-03-10T11:37:26,0.30747770409999997,0.07537391189999999,9.839286531199999,-0.01618792881224741,-0.00015271630954950385,-0.015882496193148403,-0.54922,0.37982000000000005,-1.72578,46.694784,317,20775718,11.5,0
2024-03-10T11:37:26,0.32303105099999996,0.09870393224999999,9.8189475391,-0.010079276430267254,-0.0025961772623415654,-0.012522737383059314,-0.5523,0.3829,-1.72214,46.694784,317,20775718,11.5,0
2024-03-10T11:37:26,0.4390829471,0.12861421474999998,9.8177511278,-0.015882496193148403,0.0006108652381980154,-0.012828170002158324,-0.5531400000000001,0.38598000000000005,-1.7220000000000002,46.694784,317,20775718,11.5,0
2024-03-10T11:37:26,0.3158525832,0.07537391189999999,9.9122676205,-0.015118914645400881,-0.001069014166846527,-0.014355333097653362,-0.5531400000000001,0.38598000000000005,-1.7220000000000002,46.694784,317,20775718,11.5,0
2024-03-10T11:37:26,0.32841490184999994,0.056231331100000004,9.8727860476,-0.014813482026301873,-0.00045814892864851157,-0.013591751549905842,-0.5523,0.37870000000000004,-1.72018,46.694784,317,20775718,11.5,0
2024-03-10T11:37:26,0.31704899449999996,0.046660040699999995,9.84945602725,-0.015424347264499889,-0.002138028333693054,-0.014508049407202865,-0.5397000000000001,0.37674,-1.7290000000000003,46.694784,317,20775718,11.5,0
2024-03-10T11:37:26,0.28235306679999994,0.07178467799999999,9.870991430649998,-0.013286318930806834,0.0012217304763960308,-0.014355333097653362,-0.5397000000000001,0.37674,-1.7290000000000003,46.694784,317,20775718,11.5,0
2024-03-10T11:37:26,0.30747770409999997,0.05503491979999999,9.848857821599998,-0.016951510359994926,-0.00045814892864851157,-0.013439035240356337,-0.55622,0.38626000000000005,-1.7228400000000001,46.694784,317,20775718,11.5,0
2024-03-10T11:37:26,0.32243284534999994,0.0646062102,9.691529735649999,-0.015271630954950386,-0.0016798794050445422,-0.014049900478554353,-0.5408200000000001,0.3871,-1.7292800000000002,46.694784,317,20775718,11.5,0
2024-03-10T11:37:26,0.30448667585,0.08374879099999999,9.88175913235,-0.013133602621257331,-0.0013744467859455349,-0.013133602621257331,-0.55174,0.3831800000000001,-1.7133200000000002,46.694784,317,20775718,11.5,0
2024-03-10T11:37:26,0.4354937132,0.0765703232,9.8991070962,-0.016798794050445424,-0.0025961772623415654,-0.017256942979093935,-0.5464200000000001,0.38514000000000004,-1.7322200000000003,46.694784,317,20775718,11.5,0
2024-03-10T11:37:26,0.29012974025,0.060418770649999995,9.85304526115,-0.015577063574049392,0.0006108652381980154,-0.012064588454410803,-0.5464200000000001,0.38514000000000004,-1.7322200000000003,46.694784,317,20775718,11.5,0
2024-03-10T11:37:26,0.33140593009999997,0.08374879099999999,9.8321080634,-0.015271630954950386,0.0009162978572970231,-0.014355333097653362,-0.55622,0.38066,-1.7094,46.694784,317,20775718,11.5,0
2024-03-10T11:37:26,0.3038884702,0.09152546445000001,9.821340361699999,-0.01664607774089592,-0.0013744467859455349,-0.014202616788103858,-0.5453000000000001,0.37674,-1.7292800000000002,46.427136,318,20841254,11.5,0
2024-03-10T11:37:26,0.3098705267,0.030508488149999995,9.822536773,-0.013439035240356337,0.0006108652381980154,-0.012828170002158324,-0.5523,0.37842000000000003,-1.7222800000000003,46.427136,318,20841254,11.5,0
2024-03-10T11:37:26,0.3062812928,0.04606183504999999,9.860223728949999,-0.01664607774089592,-0.0027488935718910697,-0.012064588454410803,-0.5523,0.37842000000000003,-1.7222800000000003,46.427136,318,20841254,11.5,0
2024-03-10T11:37:26,0.30747770409999997,0.0646062102,9.855438083749998,-0.01466076571675237,-0.002138028333693054,-0.014508049407202865,-0.5531400000000001,0.38150000000000006,-1.7308200000000002,46.427136,318,20841254,11.5,0
2024-03-10T11:37:26,0.29611179675,0.07178467799999999,9.856634495049999,-0.01618792881224741,0.0009162978572970231,-0.013286318930806834,-0.5520200000000001,0.37982000000000005,-1.7355800000000001,46.427136,318,20841254,11.5,0
2024-03-10T11:37:26,0.31226334929999994,0.06161518194999999,9.851848849849999,-0.01710422666954443,0.00015271630954950385,-0.014049900478554353,-0.5520200000000001,0.37982000000000005,-1.7355800000000001,46.427136,318,20841254,11.5,0
2024-03-10T11:37:26,0.346959277,0.07477570624999999,9.8440721764,-0.013591751549905842,-0.0027488935718910697,-0.012828170002158324,-0.5570600000000001,0.38570000000000004,-1.72578,46.590336,318,20841255,11.5,0
2024-03-10T11:37:26,0.31405796625,0.059222359349999996,9.858429112,-0.014049900478554353,0.0022907446432425577,-0.014049900478554353,-0.5464200000000001,0.38514000000000004,-1.7234,46.590336,318,20841255,11.5,0
2024-03-10T11:37:26,0.30089744194999996,0.07058826669999999,9.85424167245,-0.014355333097653362,0.0018325957145940463,-0.012675453692608819,-0.5464200000000001,0.38122,-1.7318000000000002,46.590336,318,20841255,11.5,0
2024-03-10T11:37:26,0.30867411539999995,0.0526420972,9.82911703515,-0.015271630954950386,0.0012217304763960308,-0.013286318930806834,-0.5464200000000001,0.38122,-1.7318000000000002,46.590336,318,20841255,11.5,0
2024-03-10T11:37:26,0.2955135911,0.07537391189999999,9.8608219346,-0.014049900478554353,-0.001069014166846527,-0.014966198335851376,-0.5542600000000001,0.38374,-1.7290000000000003,46.590336,318,20841255,11.5,0
2024-03-10T11:37:26,0.2979064137,0.07477570624999999,9.822536773,-0.01756237559819294,-0.0022907446432425577,-0.012217304763960308,-0.54866,0.3831800000000001,-1.7285800000000002,46.590336,318,20841254,11.5,0
2024-03-10T11:37:26,0.4558327053,0.08554340794999998,9.826724212550001,-0.014508049407202865,0.0,-0.013897184169004852,-0.54866,0.3831800000000001,-1.7285800000000002,46.427136,318,20841254,11.5,0
2024-03-10T11:37:26,0.3415754261499999,0.06520441585,9.8333044747,-0.013897184169004852,0.0015271630954950385,-0.01710422666954443,-0.5523,0.38514000000000004,-1.7262000000000002,46.427136,318,20841254,11.5,0
2024-03-10T11:37:26,0.3026920589,0.0789631458,9.8859465719,-0.012675453692608819,0.0006108652381980154,-0.014813482026301873,-0.5531400000000001,0.38374,-1.7346000000000001,46.427136,318,20841254,11.5,0
2024-03-10T11:37:26,0.15553346899999998,0.0646062102,9.88415195495,-0.012217304763960308,0.004581489286485115,-0.013591751549905842,-0.5509000000000001,0.39158000000000004,-1.7390800000000002,46.427136,318,20841254,11.5,0
2024-03-10T11:37:26,0.31944181709999997,0.08195417405,9.864411168499998,-0.011759155835311796,-0.0022907446432425577,-0.010537425358915765,-0.5509000000000001,0.39158000000000004,-1.7390800000000002,46.427136,318,20841254,11.5,0
2024-03-10T11:37:26,0.31645078885,0.07477570624999999,9.829715240799999,-0.012370021073509813,-0.0003054326190990077,-0.013286318930806834,-0.5525800000000001,0.38122,-1.7197600000000002,46.694784,317,20775718,11.5,0
2024-03-10T11:37:26,0.2739781877,0.08135596839999999,9.848259615949999,-0.015729779883598898,-0.00015271630954950385,-0.010231992739816757,-0.5481,0.38738000000000006,-1.74244,46.694784,317,20775718,11.5,0
2024-03-10T11:37:27,0.29132615154999997,0.06999006104999998,9.8751788702,-0.014508049407202865,-0.0003054326190990077,-0.014508049407202865,-0.5542600000000001,0.38122,-1.7277400000000003,46.694784,317,20775718,11.5,0
2024-03-10T11:37:27,0.31345976059999997,0.07477570624999999,9.850652438549998,-0.016340645121796914,0.0003054326190990077,-0.014508049407202865,-0.5542600000000001,0.38122,-1.7277400000000003,46.694784,317,20775718,11.5,0
2024-03-10T11:37:27,0.3026920589,0.06640082715,9.807581631749999,-0.018020524526841455,-0.001069014166846527,-0.012828170002158324,-0.5514600000000001,0.38822,-1.7337600000000002,46.694784,317,20775718,11.5,0
2024-03-10T11:37:27,0.28474588939999995,0.06520441585,9.851250644199999,-0.014966198335851376,-0.0003054326190990077,-0.01756237559819294,-0.54866,0.38206000000000007,-1.7353000000000003,46.694784,317,20775718,11.5,0
2024-03-10T11:37:27,0.29012974025,0.059222359349999996,9.84108114815,-0.016035212502697904,-0.0035124751196385882,-0.013439035240356337,-0.5520200000000001,0.3899,-1.74468,46.694784,317,20775718,11.5,0
2024-03-10T11:37:27,0.28594230069999993,0.060418770649999995,9.877571692799998,-0.012217304763960308,0.0012217304763960308,-0.016340645121796914,-0.5520200000000001,0.3899,-1.74468,46.694784,317,20775718,11.5,0
2024-03-10T11:37:27,0.31106693799999996,0.06759723845,9.828518829499998,-0.015118914645400881,0.0003054326190990077,-0.01114829059711378,-0.55062,0.38262000000000007,-1.73292,46.694784,317,20775718,11.5,0
2024-03-10T11:37:27,0.31465617189999995,0.06101697629999999,9.853643466800001,-0.013133602621257331,-0.0003054326190990077,-0.014202616788103858,-0.5489400000000001,0.3890600000000001,-1.7432800000000002,46.694784,317,20775718,11.5,0
2024-03-10T11:37:27,0.27996024419999993,0.05084748024999999,9.861420140249999,-0.01145372321621279,-0.0007635815477475193,-0.014813482026301873,-0.5489400000000001,0.3890600000000001,-1.7432800000000002,46.694784,317,20775718,11.5,0
2024-03-10T11:37:27,0.2955135911,0.08135596839999999,9.83390268035,-0.013286318930806834,-0.0012217304763960308,-0.013133602621257331,-0.5495,0.37786000000000003,-1.7376800000000001,46.694784,317,20775718,11.5,0
2024-03-10T11:37:27,0.31106693799999996,0.08913264185,9.84945602725,-0.014202616788103858,0.001069014166846527,-0.014966198335851376,-0.55454,0.38234,-1.7453800000000002,46.427136,318,20841254,11.5,0
2024-03-10T11:37:27,0.3152543775499999,0.07956135144999998,9.870991430649998,-0.010079276430267254,-0.0016798794050445422,-0.013133602621257331,-0.5450200000000001,0.38038000000000005,-1.7305400000000002,46.427136,318,20841254,11.5,0
2024-03-10T11:37:27,0.3062812928,0.07537391189999999,9.848259615949999,-0.01618792881224741,-0.0015271630954950385,-0.014355333097653362,-0.5450200000000001,0.38038000000000005,-1.7305400000000002,46.427136,318,20841254,11.5,0
2024-03-10T11:37:27,0.31405796625,0.056231331100000004,9.8931250397,-0.018784106074588976,-0.0012217304763960308,-0.015577063574049392,-0.5425,0.38206000000000007,-1.7516800000000001,46.427136,318,20841254,11.5,0
2024-03-10T11:37:27,0.2955135911,0.05982056499999999,9.856634495049999,-0.013897184169004852,0.0007635815477475193,-0.014813482026301873,-0.5537000000000001,0.38122,-1.73516,46.427136,318,20841254,11.5,0
2024-03-10T11:37:27,0.31106693799999996,0.07178467799999999,9.852447055499999,-0.009315694882519735,0.001069014166846527,-0.013133602621257331,-0.5537000000000001,0.38122,-1.73516,46.427136,318,20841254,11.5,0
2024-03-10T11:37:27,0.29850461935,0.09690931529999999,9.8500542329,-0.013744467859455347,-0.0007635815477475193,-0.015577063574049392,-0.54586,0.38626000000000005,-1.7544800000000003,46.427136,318,20841254,11.5,0
2024-03-10T11:37:27,0.2715853651,0.07716852884999999,9.9038927414,-0.012064588454410803,0.0013744467859455349,-0.014202616788103858,-0.5601400000000001,0.38598000000000005,-1.72662,46.427136,318,20841254,11.5,0
2024-03-10T11:37:27,0.3397808092,0.07058826669999999,9.825527801249999,-0.016798794050445424,-0.0007635815477475193,-0.01466076571675237,-0.54922,0.38626000000000005,-1.7472000000000003,46.427136,318,20841254,11.5,0
2024-03-10T11:37:27,0.32602207924999993,0.07956135144999998,9.842875765099999,-0.014202616788103858,0.0012217304763960308,-0.013439035240356337,-0.54922,0.38626000000000005,-1.7472000000000003,46.427136,318,20841254,11.5,0
2024-03-10T11:37:27,0.27816562724999994,0.04606183504999999,9.823134978649998,-0.012370021073509813,0.0016798794050445422,-0.012064588454410803,-0.5537000000000001,0.38066,-1.7239600000000002,46.427136,318,20841254,11.5,0
2024-03-10T11:37:27,0.28474588939999995,0.07836494014999999,9.870393224999999,-0.015424347264499889,0.0012217304763960308,-0.013133602621257331,-0.5495,0.38542000000000004,-1.7369800000000002,46.694784,317,20775718,11.5,0
2024-03-10T11:37:27,0.34037901484999994,0.08315058534999999,9.7603233854,-0.013897184169004852,0.0016798794050445422,-0.013591751549905842,-0.5495,0.3890600000000001,-1.71794,46.694784,317,20775718,11.5,0
2024-03-10T11:37:27,0.31884361145,0.05802594804999999,9.67119074355,-0.0119118721448613,-0.0015271630954950385,-0.013591751549905842,-0.55034,0.3890600000000001,-1.71794,46.694784,317,20775718,11.5,0
2024-03-10T11:37:27,0.2608176634,0.05204389154999999,9.921240705249998,-0.013286318930806834,-0.0013744467859455349,-0.016340645121796914,-0.54866,0.38794000000000006,-1.73642,46.694784,317,20775718,11.5,0
2024-03-10T11:37:27,0.2620140747,0.08793623055000001,9.86620578545,-0.015882496193148403,0.0016798794050445422,-0.014202616788103858,-0.55062,0.39326000000000005,-1.7260600000000001,46.694784,317,20775718,11.5,0
2024-03-10T11:37:27,0.3236292566499999,0.056231331100000004,9.8261260069,-0.016798794050445424,0.0007635815477475193,-0.014355333097653362,-0.55062,0.39326000000000005,-1.7260600000000001,46.694784,317,20775718,11.5,0
2024-03-10T11:37:27,0.31884361145,0.0693918554,9.865607579799999,-0.016035212502697904,-0.0003054326190990077,-0.013897184169004852,-0.5464200000000001,0.38682000000000005,-1.7315200000000002,46.694784,317,20775718,11.5,0
2024-03-10T11:37:27,0.30747770409999997,0.10289137179999999,9.861420140249999,-0.018020524526841455,-0.0025961772623415654,-0.01466076571675237,-0.55342,0.38598000000000005,-1.7222800000000003,46.694784,317,20775718,11.5,0
2024-03-10T11:37:27,0.30747770409999997,0.06520441585,9.8500542329,-0.015424347264499889,0.00045814892864851157,-0.014355333097653362,-0.5514600000000001,0.38346,-1.72256,46.694784,317,20775718,11.5,0
2024-03-10T11:37:27,0.31226334929999994,0.023928225999999997,9.837491914249998,-0.015882496193148403,-0.0025961772623415654,-0.015118914645400881,-0.5514600000000001,0.38346,-1.72256,46.694784,317,20775718,11.5,0
2024-03-10T11:37:27,0.29611179675,0.07716852884999999,9.838688325549999,-0.014508049407202865,-0.001069014166846527,-0.014202616788103858,-0.5523,0.3896200000000001,-1.7304000000000002,46.694784,317,20775718,11.5,0
2024-03-10T11:37:27,0.2835494781,0.08015955709999999,9.829715240799999,-0.018173240836390957,0.0024434609527920616,-0.015424347264499889,-0.55566,0.38514000000000004,-1.7250800000000002,46.694784,317,20775718,11.5,0
2024-03-10T11:37:27,0.32063822839999995,0.0646062102,9.859625523299998,-0.012675453692608819,-0.0006108652381980154,-0.0119118721448613,-0.55286,0.38430000000000003,-1.7291400000000001,46.694784,317,20775718,11.5,0
2024-03-10T11:37:27,0.33260234139999995,0.0382851616,9.869196813699999,-0.016798794050445424,0.00015271630954950385,-0.015882496193148403,-0.55286,0.38430000000000003,-1.7291400000000001,46.694784,317,20775718,11.5,0
2024-03-10T11:37:27,0.29132615154999997,0.1004985492,9.828518829499998,-0.016493361431346415,0.0003054326190990077,-0.01145372321621279,-0.5489400000000001,0.38122,-1.7441200000000001,46.694784,317,20775718,11.5,0
2024-03-10T11:37:27,0.3026920589,0.05443671415,9.84706320465,-0.013133602621257331,0.0006108652381980154,-0.016035212502697904,-0.5525800000000001,0.38374,-1.7287200000000003,46.694784,317,20775718,11.5,0
2024-03-10T11:37:27,0.31405796625,0.046660040699999995,9.855438083749998,-0.017409659288643436,0.0007635815477475193,-0.013897184169004852,-0.5525800000000001,0.38374,-1.7287200000000003,46.694784,317,20775718,11.5,0
2024-03-10T11:37:27,0.32602207924999993,0.09212367009999999,9.948159959499998,-0.012522737383059314,-0.0013744467859455349,-0.015577063574049392,-0.55286,0.37842000000000003,-1.7435600000000002,46.694784,317,20775718,11.5,0
2024-03-10T11:37:27,0.29850461935,0.08255237969999998,9.838688325549999,-0.012522737383059314,-0.0003054326190990077,-0.013897184169004852,-0.55062,0.37982000000000005,-1.7410400000000001,46.427136,318,20841254,11.5,0
2024-03-10T11:37:27,0.31405796625,0.0681954441,9.870393224999999,-0.016798794050445424,0.002138028333693054,-0.011301006906663285,-0.5537000000000001,0.38066,-1.71192,46.427136,318,20841254,11.5,0
2024-03-10T11:37:27,0.29371897415,0.04725824635,9.84945602725,-0.014813482026301873,-0.0013744467859455349,-0.013286318930806834,-0.5537000000000001,0.38066,-1.71192,46.427136,318,20841254,11.5,0
2024-03-10T11:37:27,0.2955135911,0.07597211755,9.870393224999999,-0.014355333097653362,-0.0007635815477475193,-0.013133602621257331,-0.5548200000000001,0.38206000000000007,-1.7143000000000002,46.427136,318,20841254,11.5,0
2024-03-10T11:37:27,0.15912270289999997,0.06580262149999999,9.88175913235,-0.012522737383059314,0.0006108652381980154,-0.012064588454410803,-0.5441800000000001,0.38794000000000006,-1.72662,46.427136,318,20841254,11.5,0
2024-03-10T11:37:27,0.3038884702,0.08255237969999998,9.809974454349998,-0.017715091907742446,-0.0024434609527920616,-0.013744467859455347,-0.5441800000000001,0.38794000000000006,-1.72662,46.427136,318,20841254,11.5,0
2024-03-10T11:37:27,0.30508488149999996,0.07597211755,9.87218784195,-0.01466076571675237,-0.0013744467859455349,-0.01466076571675237,-0.5461400000000001,0.39298,-1.7234,46.427136,318,20841254,11.5,0
2024-03-10T11:37:27,0.31884361145,0.07178467799999999,9.865607579799999,-0.014049900478554353,-0.0012217304763960308,-0.012980886311707827,-0.5430600000000001,0.38794000000000006,-1.7315200000000002,46.427136,318,20841254,11.5,0
2024-03-10T11:37:27,0.35353953914999997,0.04905286329999999,9.8249295956,-0.019394971312786988,0.0007635815477475193,-0.014049900478554353,-0.5520200000000001,0.38654,-1.7339,46.427136,318,20841254,11.5,0
2024-03-10T11:37:27,0.29730820804999997,0.058624153699999994,9.865607579799999,-0.016951510359994926,-0.0019853120241435504,-0.013897184169004852,-0.5520200000000001,0.38654,-1.7339,46.427136,318,20841254,11.5,0
2024-03-10T11:37:27,0.2835494781,0.09930213789999999,9.8452685877,-0.01114829059711378,0.0013744467859455349,-0.013897184169004852,-0.5495,0.3773,-1.7336200000000002,46.427136,318,20841254,11.5,0
2024-03-10T11:37:27,0.2895315346,0.07597211755,9.8333044747,-0.015271630954950386,0.002138028333693054,-0.014202616788103858,-0.55286,0.37786000000000003,-1.7346000000000001,46.427136,318,20841254,11.5,0
2024-03-10T11:37:27,0.28235306679999994,0.06580262149999999,9.83150985775,-0.015577063574049392,-0.0013744467859455349,-0.014049900478554353,-0.54166,0.38206000000000007,-1.7227000000000003,46.427136,318,20841254,11.5,0
2024-03-10T11:37:27,0.31884361145,0.05982056499999999,9.860223728949999,-0.013744467859455347,0.0006108652381980154,-0.013286318930806834,-0.54166,0.38206000000000007,-1.7227000000000003,46.427136,318,20841254,11.5,0
2024-03-10T11:37:27,0.30089744194999996,0.05204389154999999,9.883553749299999,-0.014049900478554353,-0.00015271630954950385,-0.016340645121796914,-0.5481,0.38066,-1.72886,46.427136,318,20841254,11.5,0
2024-03-10T11:37:27,0.30448667585,0.05982056499999999,9.72024360685,-0.01832595714594046,0.0013744467859455349,-0.013439035240356337,-0.54334,0.38374,-1.72032,46.427136,318,20841254,11.5,0
2024-03-10T11:37:27,0.29491538544999996,0.0789631458,9.84227755945,-0.016340645121796914,0.0013744467859455349,-0.014049900478554353,-0.54334,0.38374,-1.72032,46.427136,318,20841254,11.5,0
2024-03-10T11:37:28,0.28055844984999995,0.0741775006,9.879366309749999,-0.016798794050445424,-0.00015271630954950385,-0.01466076571675237,-0.5430600000000001,0.38178,-1.7411800000000002,46.857983999999995,317,20775719,11.5,0
2024-03-10T11:37:28,0.28654050634999995,0.08554340794999998,9.85902731765,-0.015271630954950386,0.0015271630954950385,-0.014508049407202865,-0.55454,0.38514000000000004,-1.7262000000000002,46.857983999999995,317,20775719,11.5,0
2024-03-10T11:37:28,0.3218346397,0.06999006104999998,9.8560362894,-0.01863138976503947,-0.0024434609527920616,-0.012370021073509813,-0.55174,0.38430000000000003,-1.7234,46.857983999999995,317,20775719,11.5,0
2024-03-10T11:37:28,0.30687949845,0.0634097989,9.8500542329,-0.015424347264499889,0.001069014166846527,-0.015882496193148403,-0.55174,0.38430000000000003,-1.7234,46.857983999999995,317,20775719,11.5,0
2024-03-10T11:37:28,0.2679961312,0.08554340794999998,9.83390268035,-0.014355333097653362,-0.0013744467859455349,-0.015882496193148403,-0.55622,0.38122,-1.7173800000000001,46.857983999999995,317,20775719,11.5,0
2024-03-10T11:37:28,0.2679961312,0.08315058534999999,9.84586679335,-0.011606439525762293,0.00045814892864851157,-0.013591751549905842,-0.5464200000000001,0.37842000000000003,-1.7172400000000003,46.857983999999995,317,20775719,11.5,0
2024-03-10T11:37:28,0.28235306679999994,0.08434699664999999,9.887142983199999,-0.019242255003237483,0.0025961772623415654,-0.014049900478554353,-0.5464200000000001,0.37842000000000003,-1.7172400000000003,46.590336,318,20841255,11.5,0
2024-03-10T11:37:28,0.31106693799999996,0.0669990328,9.859625523299998,-0.00916297857297023,0.00015271630954950385,-0.01618792881224741,-0.54978,0.38738000000000006,-1.7255000000000003,46.590336,318,20841255,11.5,0
2024-03-10T11:37:28,0.31226334929999994,0.07238288365,9.869196813699999,-0.01618792881224741,0.0007635815477475193,-0.013286318930806834,-0.5430600000000001,0.38374,-1.7231200000000002,46.590336,318,20841255,11.5,0
2024-03-10T11:37:28,0.3278166962,0.031106693799999998,9.8799645154,-0.016340645121796914,-0.0012217304763960308,-0.014813482026301873,-0.55454,0.38402000000000003,-1.7305400000000002,46.590336,318,20841255,11.5,0
2024-03-10T11:37:28,0.30209385325,0.0669990328,9.8620183459,-0.013439035240356337,-0.00045814892864851157,-0.012828170002158324,-0.55454,0.38402000000000003,-1.7305400000000002,46.590336,318,20841255,11.5,0
2024-03-10T11:37:28,0.2895315346,0.06999006104999998,9.8440721764,-0.016035212502697904,0.0,-0.016035212502697904,-0.54922,0.38038000000000005,-1.7332000000000003,46.590336,318,20841255,11.5,0
2024-03-10T11:37:28,0.28175486115,0.0765703232,9.829715240799999,-0.014049900478554353,0.0015271630954950385,-0.014355333097653362,-0.5531400000000001,0.38234,-1.7242400000000002,46.590336,318,20841255,11.5,0
2024-03-10T11:37:28,0.27936203854999997,0.09032905315,9.8404829425,-0.012980886311707827,0.002138028333693054,-0.013744467859455347,-0.5531400000000001,0.38234,-1.7242400000000002,46.590336,318,20841255,11.5,0
2024-03-10T11:37:28,0.3236292566499999,0.05503491979999999,9.848857821599998,-0.014966198335851376,-0.0024434609527920616,-0.014049900478554353,-0.55174,0.38234,-1.73068,46.590336,318,20841255,11.5,0
2024-03-10T11:37:28,0.32422746229999994,0.05682953674999999,9.870393224999999,-0.012980886311707827,0.003054326190990077,-0.012522737383059314,-0.5478200000000001,0.38150000000000006,-1.7280200000000001,46.590336,318,20841255,11.5,0
2024-03-10T11:37:28,0.30807590975,0.059222359349999996,9.873384253249998,-0.01710422666954443,0.0003054326190990077,-0.014508049407202865,-0.55062,0.38206000000000007,-1.7281600000000001,46.590336,318,20841255,11.5,0
2024-03-10T11:37:28,0.28713871199999996,0.08015955709999999,9.878169898449999,-0.013439035240356337,0.004276056667386108,-0.014202616788103858,-0.55062,0.38206000000000007,-1.7281600000000001,46.753536,318,20841256,11.5,0
2024-03-10T11:37:28,0.2979064137,0.08255237969999998,9.89731247925,-0.01664607774089592,0.0009162978572970231,-0.013133602621257331,-0.5551,0.37954000000000004,-1.7280200000000001,46.753536,318,20841256,11.5,0
2024-03-10T11:37:28,0.30209385325,0.05682953674999999,9.985846915449999,-0.016493361431346415,0.0025961772623415654,-0.015424347264499889,-0.5542600000000001,0.38626000000000005,-1.72466,46.753536,318,20841256,11.5,0
2024-03-10T11:37:28,0.31405796625,0.0526420972,9.89372324535,-0.0119118721448613,-0.003207042500539581,-0.013286318930806834,-0.5537000000000001,0.3871,-1.7186400000000002,46.753536,318,20841256,11.5,0
2024-03-10T11:37:28,0.28175486115,0.058624153699999994,9.90808018095,-0.013286318930806834,0.0007635815477475193,-0.01466076571675237,-0.5537000000000001,0.3871,-1.7186400000000002,46.753536,318,20841256,11.5,0
2024-03-10T11:37:28,0.30508488149999996,0.06281159324999999,9.815956510849999,-0.013744467859455347,0.0003054326190990077,-0.013439035240356337,-0.5520200000000001,0.38038000000000005,-1.7232600000000002,46.753536,318,20841256,11.5,0
2024-03-10T11:37:28,0.32004002274999993,0.06759723845,9.84945602725,-0.014813482026301873,0.0024434609527920616,-0.012064588454410803,-0.5489400000000001,0.38402000000000003,-1.7155600000000002,46.753536,318,20841256,11.5,0
2024-03-10T11:37:28,0.3098705267,0.0669990328,9.862616551549998,-0.010537425358915765,-0.0016798794050445422,-0.012522737383059314,-0.5489400000000001,0.38850000000000007,-1.7252200000000002,46.753536,318,20841256,11.5,0
2024-03-10T11:37:28,0.34217363179999993,0.0849452023,9.877571692799998,-0.016493361431346415,-0.0007635815477475193,-0.0119118721448613,-0.5489400000000001,0.38850000000000007,-1.7252200000000002,46.753536,318,20841256,11.5,0
2024-03-10T11:37:28,0.15433705769999997,0.030508488149999995,9.8979106849,-0.014355333097653362,-0.0009162978572970231,-0.012522737383059314,-0.5520200000000001,0.3896200000000001,-1.7295600000000002,46.753536,318,20841256,11.5,0
2024-03-10T11:37:28,0.3158525832,0.0789631458,9.858429112,-0.016035212502697904,-0.0025961772623415654,-0.013591751549905842,-0.5525800000000001,0.38878,-1.7280200000000001,46.753536,318,20841256,11.5,0
2024-03-10T11:37:28,0.29611179675,0.06999006104999998,9.862616551549998,-0.017256942979093935,0.0003054326190990077,-0.01466076571675237,-0.5525800000000001,0.38878,-1.7280200000000001,46.753536,318,20841256,11.5,0
2024-03-10T11:37:28,0.28654050634999995,0.09212367009999999,9.8380901199,-0.011606439525762293,0.0016798794050445422,-0.0119118721448613,-0.55566,0.3899,-1.7312400000000003,46.916736,318,20841257,11.5,0
2024-03-10T11:37:28,0.3038884702,0.07118647234999999,9.841679353799998,-0.01893682238413848,0.00015271630954950385,-0.016493361431346415,-0.5509000000000001,0.39214000000000004,-1.73292,46.916736,318,20841257,11.5,0
2024-03-10T11:37:28,0.3152543775499999,0.07178467799999999,9.92482993915,-0.0119118721448613,-0.0007635815477475193,-0.011301006906663285,-0.55454,0.39046000000000003,-1.73642,46.916736,318,20841257,11.5,0
2024-03-10T11:37:28,0.2979064137,0.020937197749999997,9.762118002349998,-0.015729779883598898,0.0027488935718910697,-0.0119118721448613,-0.55454,0.39046000000000003,-1.73642,46.916736,318,20841257,11.5,0
2024-03-10T11:37:28,0.27457639335,0.05982056499999999,9.92482993915,-0.01145372321621279,-0.0009162978572970231,-0.013744467859455347,-0.5514600000000001,0.3901800000000001,-1.7220000000000002,46.916736,318,20841257,11.5,0
2024-03-10T11:37:28,0.2727817764,0.09511469834999998,9.869196813699999,-0.01664607774089592,0.0018325957145940463,-0.014966198335851376,-0.5570600000000001,0.38794000000000006,-1.73544,46.649088,319,20906793,11.5,0
2024-03-10T11:37:28,0.3332005470499999,0.0897308475,9.84586679335,-0.018784106074588976,-0.0003054326190990077,-0.014355333097653362,-0.5455800000000001,0.37450000000000006,-1.7241000000000002,46.649088,319,20906793,11.5,0
2024-03-10T11:37:28,0.33140593009999997,0.03529413334999999,9.80638522045,-0.015271630954950386,-0.0015271630954950385,-0.013286318930806834,-0.5455800000000001,0.37450000000000006,-1.7241000000000002,46.649088,319,20906793,11.5,0
2024-03-10T11:37:28,0.28175486115,0.0765703232,9.93320481825,-0.018173240836390957,-0.001069014166846527,-0.01466076571675237,-0.5489400000000001,0.38878,-1.7326400000000002,46.649088,319,20906793,11.5,0
2024-03-10T11:37:28,0.27696921594999996,0.08614161359999999,9.87218784195,-0.010537425358915765,0.00045814892864851157,-0.011606439525762293,-0.5565,0.38178,-1.71612,46.649088,319,20906793,11.5,0
2024-03-10T11:37:28,0.33619157529999993,0.07178467799999999,9.76451082495,-0.014355333097653362,0.006108652381980154,-0.010384709049366262,-0.5565,0.38178,-1.71612,46.649088,319,20906793,11.5,0
2024-03-10T11:37:28,0.32841490184999994,0.06640082715,9.9505527821,-0.016951510359994926,-0.0006108652381980154,-0.015882496193148403,-0.55398,0.3871,-1.7213000000000003,46.753536,318,20841256,11.5,0
2024-03-10T11:37:28,0.43788653580000003,0.10109675484999998,9.84706320465,-0.017256942979093935,-0.0044287729769356115,-0.013439035240356337,-0.5553800000000001,0.38010000000000005,-1.7204600000000003,46.753536,318,20841256,11.5,0
2024-03-10T11:37:28,0.3355933696499999,0.06759723845,9.793224696149998,-0.015729779883598898,0.005192354524683131,-0.013897184169004852,-0.55174,0.39102000000000003,-1.72438,46.753536,318,20841256,11.5,0
2024-03-10T11:37:28,0.3158525832,0.04486542375,9.830313446449999,-0.016951510359994926,-0.00045814892864851157,-0.012370021073509813,-0.55174,0.39102000000000003,-1.72438,46.753536,318,20841256,11.5,0
2024-03-10T11:37:28,0.26620151425,0.07477570624999999,9.84108114815,-0.010995574287564279,-0.0012217304763960308,-0.016951510359994926,-0.5525800000000001,0.37646,-1.7091200000000002,46.753536,318,20841256,11.5,0
2024-03-10T11:37:28,0.2703889538,0.10707881135,9.8620183459,-0.012980886311707827,0.0009162978572970231,-0.013897184169004852,-0.55566,0.3901800000000001,-1.73642,46.753536,318,20841256,11.5,0
2024-03-10T11:37:28,0.33619157529999993,0.07178467799999999,9.838688325549999,-0.016493361431346415,0.00015271630954950385,-0.012370021073509813,-0.55566,0.3901800000000001,-1.73642,46.753536,318,20841256,11.5,0
2024-03-10T11:37:28,0.31884361145,0.051445685899999996,9.820742156049999,-0.015118914645400881,-0.0003054326190990077,-0.015271630954950386,-0.5570600000000001,0.38934,-1.7213000000000003,46.753536,318,20841256,11.5,0
2024-03-10T11:37:28,0.28534409504999997,0.07537391189999999,9.8799645154,-0.015729779883598898,-0.001069014166846527,-0.014966198335851376,-0.5525800000000001,0.38486000000000004,-1.7206000000000001,46.753536,318,20841256,11.5,0
2024-03-10T11:37:28,0.26620151425,0.08075776274999999,9.9086783866,-0.014355333097653362,-0.0006108652381980154,-0.014508049407202865,-0.5601400000000001,0.37786000000000003,-1.7229800000000002,46.753536,318,20841256,11.5,0
2024-03-10T11:37:28,0.32542387359999997,0.059222359349999996,9.843473970749999,-0.012522737383059314,-0.00015271630954950385,-0.013744467859455347,-0.5601400000000001,0.37786000000000003,-1.7229800000000002,46.753536,318,20841256,11.5,0
2024-03-10T11:37:28,0.30329026454999997,0.0765703232,9.858429112,-0.0070249502392771765,0.0013744467859455349,-0.012217304763960308,-0.5478200000000001,0.39214000000000004,-1.7315200000000002,46.753536,318,20841256,11.5,0
2024-03-10T11:37:28,0.31645078885,0.10169496049999999,9.8931250397,-0.01710422666954443,0.003207042500539581,-0.013744467859455347,-0.54922,0.38374,-1.7196200000000001,46.916736,318,20841257,11.5,0
2024-03-10T11:37:28,0.29491538544999996,0.07477570624999999,9.69392255825,-0.012828170002158324,0.0015271630954950385,-0.014355333097653362,-0.54922,0.38374,-1.7196200000000001,46.916736,318,20841257,11.5,0
2024-03-10T11:37:28,0.3278166962,0.05802594804999999,9.835697297299998,-0.015424347264499889,0.002138028333693054,-0.013286318930806834,-0.5500600000000001,0.38738000000000006,-1.7294200000000002,46.916736,318,20841257,11.5,0
2024-03-10T11:37:28,0.26620151425,0.08075776274999999,9.842875765099999,-0.018784106074588976,-0.0015271630954950385,-0.015882496193148403,-0.55398,0.38626000000000005,-1.7220000000000002,46.916736,318,20841257,11.5,0
2024-03-10T11:37:29,0.28773691765000003,0.08853443620000001,9.85424167245,-0.012828170002158324,-0.0015271630954950385,-0.013744467859455347,-0.5514600000000001,0.38542000000000004,-1.7309600000000003,46.916736,318,20841257,11.5,0
2024-03-10T11:37:29,0.31405796625,0.0849452023,9.762118002349998,-0.015424347264499889,0.0007635815477475193,-0.016035212502697904,-0.5514600000000001,0.38542000000000004,-1.7309600000000003,46.916736,318,20841257,11.5,0
2024-03-10T11:37:29,0.32303105099999996,0.038883367249999995,9.87697348715,-0.015424347264499889,0.0012217304763960308,-0.012522737383059314,-0.5537000000000001,0.3871,-1.7133200000000002,46.753536,318,20841256,11.5,0
2024-03-10T11:37:29,0.31465617189999995,0.07118647234999999,9.841679353799998,-0.017409659288643436,0.001069014166846527,-0.015882496193148403,-0.5514600000000001,0.37926000000000004,-1.7229800000000002,46.753536,318,20841256,11.5,0
2024-03-10T11:37:29,0.30329026454999997,0.06520441585,9.8799645154,-0.017409659288643436,-0.0033597588100890844,-0.016340645121796914,-0.5548200000000001,0.3899,-1.72788,46.753536,318,20841256,11.5,0
2024-03-10T11:37:29,0.2883351233,0.08673981925,9.848857821599998,-0.015118914645400881,0.0019853120241435504,-0.013897184169004852,-0.5548200000000001,0.3899,-1.72788,46.753536,318,20841256,11.5,0
2024-03-10T11:37:29,0.29371897415,0.08015955709999999,9.8177511278,-0.01786780821729195,0.00045814892864851157,-0.014202616788103858,-0.5525800000000001,0.38542000000000004,-1.72242,46.753536,318,20841256,11.5,0
2024-03-10T11:37:29,0.31884361145,0.08434699664999999,9.84227755945,-0.012217304763960308,-0.005192354524683131,-0.015118914645400881,-0.5495,0.38878,-1.7360000000000002,46.753536,318,20841257,11.5,0
2024-03-10T11:37:29,0.35234312785,0.07836494014999999,9.71306513905,-0.012064588454410803,0.003207042500539581,-0.012675453692608819,-0.5495,0.38878,-1.7360000000000002,46.916736,318,20841257,11.5,0
2024-03-10T11:37:29,0.2775674216,0.03529413334999999,9.7794659662,-0.018478673455489966,-0.0016798794050445422,-0.016340645121796914,-0.5570600000000001,0.3773,-1.7204600000000003,46.916736,318,20841257,11.5,0
2024-03-10T11:37:29,0.27517459899999996,0.046660040699999995,9.9349994352,-0.015729779883598898,-0.007330382858376185,-0.015118914645400881,-0.5461400000000001,0.3901800000000001,-1.7217200000000004,46.916736,318,20841257,11.5,0
2024-03-10T11:37:29,0.28654050634999995,0.08853443620000001,9.774680320999998,-0.015882496193148403,0.0013744467859455349,-0.012522737383059314,-0.5455800000000001,0.37954000000000004,-1.72466,46.916736,318,20841257,11.5,0
2024-03-10T11:37:29,0.3062812928,0.06101697629999999,9.847661410299999,-0.014966198335851376,0.0025961772623415654,-0.012980886311707827,-0.5455800000000001,0.37954000000000004,-1.72466,46.916736,318,20841257,11.5,0
2024-03-10T11:37:29,0.30508488149999996,0.05982056499999999,9.89491965665,-0.01618792881224741,-0.001069014166846527,-0.013439035240356337,-0.5537000000000001,0.38038000000000005,-1.7263400000000002,46.812288,319,20906794,11.5,0
2024-03-10T11:37:29,0.3062812928,0.06759723845,9.7974121357,-0.015577063574049392,-0.038331793696925465,-0.015729779883598898,-0.55398,0.37926000000000004,-1.7115000000000002,46.812288,319,20906794,11.5,0
2024-03-10T11:37:29,0.36011980130000004,0.07537391189999999,9.894321451,-0.014813482026301873,0.0009162978572970231,-0.00946841119206924,-0.55398,0.3831800000000001,-1.7271800000000002,46.812288,319,20906794,11.5,0
2024-03-10T11:37:29,0.33619157529999993,0.041874395499999995,9.79561751875,-0.009621127501618741,-0.0009162978572970231,-0.010842857978014774,-0.5489400000000001,0.3831800000000001,-1.7271800000000002,46.812288,319,20906794,11.5,0
2024-03-10T11:37:29,0.26380869165,0.05802594804999999,9.862616551549998,-0.0119118721448613,-0.0012217304763960308,-0.016035212502697904,-0.5500600000000001,0.38206000000000007,-1.7239600000000002,46.812288,319,20906794,11.5,0
2024-03-10T11:37:29,0.21355941705,0.09930213789999999,9.861420140249999,-0.018784106074588976,-0.00015271630954950385,-0.015882496193148403,-0.5464200000000001,0.3890600000000001,-1.7206000000000001,46.812288,319,20906794,11.5,0
2024-03-10T11:37:29,0.31645078885,0.06759723845,9.85902731765,-0.010995574287564279,0.0,-0.013286318930806834,-0.5464200000000001,0.3890600000000001,-1.7206000000000001,46.812288,319,20906794,11.5,0
2024-03-10T11:37:29,0.34516466005,0.05682953674999999,9.9014999188,-0.01664607774089592,0.0003054326190990077,-0.012675453692608819,-0.5478200000000001,0.38514000000000004,-1.72214,46.812288,319,20906794,11.5,0
2024-03-10T11:37:29,0.33080772444999995,0.04007977854999999,9.851250644199999,-0.015424347264499889,-0.0003054326190990077,-0.012675453692608819,-0.54838,0.38542000000000004,-1.7248,46.812288,319,20906794,11.5,0
2024-03-10T11:37:29,0.30209385325,0.07597211755,9.8380901199,-0.015882496193148403,0.0015271630954950385,-0.012064588454410803,-0.5623800000000001,0.38458000000000003,-1.7190600000000003,46.812288,319,20906794,11.5,0
2024-03-10T11:37:29,0.2608176634,0.0693918554,9.848857821599998,-0.014813482026301873,0.0003054326190990077,-0.010384709049366262,-0.5623800000000001,0.38458000000000003,-1.7190600000000003,46.812288,319,20906794,11.5,0
2024-03-10T11:37:29,0.28893332894999996,0.08195417405,9.905089152699999,-0.017409659288643436,0.00045814892864851157,-0.013286318930806834,-0.5500600000000001,0.38402000000000003,-1.7197600000000002,46.812288,319,20906794,11.5,0
2024-03-10T11:37:29,0.3152543775499999,0.11844471869999999,9.8560362894,-0.015882496193148403,0.003207042500539581,-0.012675453692608819,-0.5579000000000001,0.38262000000000007,-1.7302600000000001,46.975488,319,20906795,11.5,0
2024-03-10T11:37:29,0.32662028489999995,0.048454657649999996,9.84706320465,-0.016798794050445424,-0.0015271630954950385,-0.013897184169004852,-0.5579000000000001,0.38262000000000007,-1.7302600000000001,46.975488,319,20906795,11.5,0
2024-03-10T11:37:29,0.34875389395,0.030508488149999995,9.814760099549998,-0.010537425358915765,0.0022907446432425577,-0.014813482026301873,-0.5500600000000001,0.38850000000000007,-1.72984,46.975488,319,20906795,11.5,0
2024-03-10T11:37:29,0.1579262916,0.08255237969999998,9.88295554365,-0.016493361431346415,-0.00045814892864851157,-0.012980886311707827,-0.55174,0.37954000000000004,-1.73194,46.975488,319,20906795,11.5,0
2024-03-10T11:37:29,0.2955135911,0.09930213789999999,9.904490947049998,-0.014355333097653362,0.0016798794050445422,-0.015271630954950386,-0.54586,0.38626000000000005,-1.7358600000000002,46.975488,319,20906795,11.5,0
2024-03-10T11:37:29,0.2667997199,0.08374879099999999,9.846464998999998,-0.009773843811168246,0.0009162978572970231,-0.013439035240356337,-0.54586,0.38626000000000005,-1.7358600000000002,46.975488,319,20906795,11.5,0
2024-03-10T11:37:29,0.2967100024,0.09272187574999999,9.8093762487,-0.012980886311707827,0.0,-0.014966198335851376,-0.54838,0.38626000000000005,-1.7302600000000001,46.975488,319,20906795,11.5,0
2024-03-10T11:37:29,0.3176472001499999,0.057427742399999995,9.8273224182,-0.010079276430267254,0.0007635815477475193,-0.012217304763960308,-0.54754,0.38010000000000005,-1.72466,46.975488,319,20906795,11.5,0
2024-03-10T11:37:29,0.32662028489999995,0.047856451999999994,9.857830906349998,-0.016493361431346415,0.0015271630954950385,-0.013133602621257331,-0.5525800000000001,0.37702,-1.7229800000000002,46.975488,319,20906795,11.5,0
2024-03-10T11:37:29,0.3062812928,0.0634097989,9.871589636299998,-0.014355333097653362,0.0019853120241435504,-0.012217304763960308,-0.5525800000000001,0.37702,-1.7229800000000002,46.975488,319,20906795,11.5,0
2024-03-10T11:37:29,0.27577280465,0.09332008139999999,9.85304526115,-0.016493361431346415,-0.002138028333693054,-0.015424347264499889,-0.5439,0.38234,-1.74062,46.975488,319,20906795,11.5,0
2024-03-10T11:37:29,0.27996024419999993,0.08075776274999999,9.83390268035,-0.014355333097653362,-0.0015271630954950385,-0.014202616788103858,-0.54222,0.37786000000000003,-1.7285800000000002,46.975488,319,20906795,11.5,0
2024-03-10T11:37:29,0.33260234139999995,0.09272187574999999,9.94157969735,-0.01618792881224741,0.0016798794050445422,-0.017715091907742446,-0.54222,0.38094000000000006,-1.7250800000000002,46.975488,319,20906795,11.5,0
2024-03-10T11:37:29,0.31166514365,0.05204389154999999,9.8751788702,-0.015882496193148403,-0.003207042500539581,-0.015271630954950386,-0.55342,0.38094000000000006,-1.7250800000000002,46.975488,319,20906795,11.5,0
2024-03-10T11:37:29,0.32243284534999994,0.0382851616,9.936794052149999,-0.014508049407202865,-0.0022907446432425577,-0.014355333097653362,-0.55818,0.38542000000000004,-1.7157000000000002,46.975488,319,20906795,11.5,0
2024-03-10T11:37:29,0.3337987527,0.048454657649999996,9.869196813699999,-0.01466076571675237,-0.0007635815477475193,-0.014355333097653362,-0.5509000000000001,0.38598000000000005,-1.7255000000000003,46.975488,319,20906795,11.5,0
2024-03-10T11:37:29,0.30927232104999997,0.09511469834999998,9.84108114815,-0.014966198335851376,0.0006108652381980154,-0.015424347264499889,-0.5509000000000001,0.38598000000000005,-1.7255000000000003,46.975488,319,20906795,11.5,0
2024-03-10T11:37:29,0.27517459899999996,0.107677017,9.81715292215,-0.015577063574049392,-0.0013744467859455349,-0.012370021073509813,-0.5548200000000001,0.38374,-1.7308200000000002,47.138688,319,20906796,11.5,0
2024-03-10T11:37:29,0.2727817764,0.07477570624999999,9.882357337999998,-0.01664607774089592,-0.0013744467859455349,-0.01466076571675237,-0.5481,0.38262000000000007,-1.7242400000000002,47.138688,319,20906796,11.5,0
2024-03-10T11:37:29,0.32004002274999993,0.09272187574999999,9.892526834049999,-0.014049900478554353,0.0015271630954950385,-0.012828170002158324,-0.5590200000000001,0.38682000000000005,-1.7262000000000002,47.138688,319,20906796,11.5,0
2024-03-10T11:37:29,0.35772697870000003,0.062213387599999996,9.8153583052,-0.01145372321621279,0.004123340357836604,-0.015729779883598898,-0.5590200000000001,0.38682000000000005,-1.7262000000000002,47.138688,319,20906796,11.5,0
2024-03-10T11:37:29,0.33858439789999994,0.049651068949999995,9.86620578545,-0.01466076571675237,0.0019853120241435504,-0.012675453692608819,-0.5453000000000001,0.38654,-1.7239600000000002,47.138688,319,20906796,11.5,0
2024-03-10T11:37:29,0.27337998204999997,0.0789631458,9.914062237449999,-0.011759155835311796,0.00015271630954950385,-0.012522737383059314,-0.55986,0.3890600000000001,-1.7369800000000002,47.138688,319,20906796,11.5,0
2024-03-10T11:37:29,0.3062812928,0.08614161359999999,9.80159957525,-0.011301006906663285,0.0016798794050445422,-0.013133602621257331,-0.55286,0.38486000000000004,-1.7417400000000003,47.138688,319,20906796,11.5,0
2024-03-10T11:37:29,0.33020951879999993,0.0669990328,9.830911652099998,-0.015882496193148403,0.003207042500539581,-0.01145372321621279,-0.55286,0.38486000000000004,-1.7417400000000003,47.138688,319,20906796,11.5,0
2024-03-10T11:37:29,0.32243284534999994,0.059222359349999996,9.8404829425,-0.016798794050445424,-0.0013744467859455349,-0.017409659288643436,-0.54922,0.38262000000000007,-1.7339,47.138688,319,20906796,11.5,0
2024-03-10T11:37:29,0.29850461935,0.048454657649999996,9.68435126785,-0.013591751549905842,0.003207042500539581,-0.014049900478554353,-0.5455800000000001,0.38570000000000004,-1.7309600000000003,47.138688,319,20906796,11.5,0
2024-03-10T11:37:29,0.29371897415,0.05682953674999999,9.859625523299998,-0.01710422666954443,-0.0019853120241435504,-0.012370021073509813,-0.5455800000000001,0.38570000000000004,-1.7309600000000003,47.138688,319,20906796,11.5,0
2024-03-10T11:37:29,0.30747770409999997,0.08255237969999998,9.886544777549998,-0.013591751549905842,-0.0003054326190990077,-0.013133602621257331,-0.5511800000000001,0.38654,-1.7196200000000001,47.138688,319,20906796,11.5,0
2024-03-10T11:37:29,0.28773691765000003,0.12023933564999999,9.855438083749998,-0.01786780821729195,0.0,-0.015118914645400881,-0.5559400000000001,0.38682000000000005,-1.72466,47.138688,319,20906796,11.5,0
2024-03-10T11:37:30,0.2967100024,0.07836494014999999,9.808179837399999,-0.01466076571675237,0.0013744467859455349,-0.012217304763960308,-0.5509000000000001,0.38598000000000005,-1.7234,47.138688,319,20906796,11.5,0
2024-03-10T11:37:30,0.30209385325,0.0370887503,9.85902731765,-0.015271630954950386,-0.00015271630954950385,-0.013897184169004852,-0.5509000000000001,0.38598000000000005,-1.7234,47.138688,319,20906796,11.5,0
2024-03-10T11:37:30,0.2895315346,0.0729810893,9.869795019349999,-0.013591751549905842,0.001069014166846527,-0.012217304763960308,-0.5500600000000001,0.3831800000000001,-1.7295600000000002,47.138688,319,20906796,11.5,0
2024-03-10T11:37:30,0.45044885445,0.07118647234999999,9.85304526115,-0.0119118721448613,-0.0016798794050445422,-0.013439035240356337,-0.5537000000000001,0.3829,-1.7337600000000002,47.138688,319,20906796,11.5,0
2024-03-10T11:37:30,0.3038884702,0.06580262149999999,9.84586679335,-0.011759155835311796,0.0009162978572970231,-0.014202616788103858,-0.5537000000000001,0.3829,-1.7337600000000002,47.138688,319,20906797,11.5,0
2024-03-10T11:37:30,0.3212364340499999,0.07477570624999999,9.843473970749999,-0.013744467859455347,0.002138028333693054,-0.016340645121796914,-0.54334,0.38234,-1.7287200000000003,47.301888000000005,319,20906797,11.5,0
2024-03-10T11:37:30,0.30927232104999997,0.049651068949999995,9.84706320465,-0.014355333097653362,-0.0019853120241435504,-0.013286318930806834,-0.55986,0.39270000000000005,-1.7276000000000002,47.301888000000005,319,20906797,11.5,0
2024-03-10T11:37:30,0.3098705267,0.0681954441,9.860223728949999,-0.014813482026301873,-0.0013744467859455349,-0.012675453692608819,-0.55062,0.38402000000000003,-1.7269,47.301888000000005,319,20906797,11.5,0
2024-03-10T11:37:30,0.2895315346,0.08015955709999999,9.9026963301,-0.015118914645400881,-0.00045814892864851157,-0.014508049407202865,-0.55062,0.38402000000000003,-1.7269,47.301888000000005,319,20906797,11.5,0
2024-03-10T11:37:30,0.3098705267,0.07956135144999998,9.856634495049999,-0.013744467859455347,-0.0018325957145940463,-0.010995574287564279,-0.5509000000000001,0.38458000000000003,-1.7171,47.301888000000005,319,20906797,11.5,0
2024-03-10T11:37:30,0.32243284534999994,0.11844471869999999,9.84586679335,-0.016951510359994926,-0.0013744467859455349,-0.01466076571675237,-0.5472600000000001,0.37954000000000004,-1.7210200000000002,47.034240000000004,320,20972333,11.5,0
2024-03-10T11:37:30,0.30747770409999997,0.05982056499999999,9.8273224182,-0.012980886311707827,-0.00015271630954950385,-0.014355333097653362,-0.5570600000000001,0.38598000000000005,-1.7200400000000002,47.034240000000004,320,20972333,11.5,0
2024-03-10T11:37:30,0.31046873235,0.05982056499999999,9.91286582615,-0.012217304763960308,0.00045814892864851157,-0.015577063574049392,-0.5570600000000001,0.38598000000000005,-1.7200400000000002,47.034240000000004,320,20972333,11.5,0
2024-03-10T11:37:30,0.28414768374999994,0.06879364974999999,9.878169898449999,-0.013133602621257331,-0.001069014166846527,-0.015729779883598898,-0.5514600000000001,0.38122,-1.73754,47.034240000000004,320,20972333,11.5,0
2024-03-10T11:37:30,0.3026920589,0.0741775006,9.862616551549998,-0.012217304763960308,0.0019853120241435504,-0.013591751549905842,-0.5559400000000001,0.3831800000000001,-1.72886,47.034240000000004,320,20972333,11.5,0
2024-03-10T11:37:30,0.30568308715,0.08793623055000001,9.8452685877,-0.016951510359994926,0.0013744467859455349,-0.017715091907742446,-0.5559400000000001,0.3831800000000001,-1.72886,47.034240000000004,320,20972333,11.5,0
2024-03-10T11:37:30,0.3158525832,0.09272187574999999,9.82911703515,-0.015577063574049392,-0.0009162978572970231,-0.013439035240356337,-0.54362,0.38094000000000006,-1.71262,47.19744000000001,320,20972334,11.5,0
2024-03-10T11:37:30,0.2979064137,0.04606183504999999,9.8333044747,-0.015424347264499889,0.001069014166846527,-0.015882496193148403,-0.54278,0.38794000000000006,-1.7231200000000002,47.19744000000001,320,20972334,11.5,0
2024-03-10T11:37:30,0.30568308715,0.053240302850000004,9.862616551549998,-0.01756237559819294,0.0007635815477475193,-0.017256942979093935,-0.55342,0.38038000000000005,-1.71402,47.19744000000001,320,20972334,11.5,0
2024-03-10T11:37:30,0.25902304644999996,0.044267218100000005,9.873384253249998,-0.017715091907742446,-0.00015271630954950385,-0.014813482026301873,-0.55342,0.38038000000000005,-1.71402,47.19744000000001,320,20972334,11.5,0
2024-03-10T11:37:30,0.2955135911,0.07956135144999998,9.84586679335,-0.012522737383059314,0.0027488935718910697,-0.011759155835311796,-0.54362,0.38654,-1.7315200000000002,47.19744000000001,320,20972334,11.5,0
2024-03-10T11:37:30,0.2739781877,0.0765703232,9.8548398781,-0.011759155835311796,0.0006108652381980154,-0.013133602621257331,-0.55398,0.38402000000000003,-1.7291400000000001,47.19744000000001,320,20972334,11.5,0
2024-03-10T11:37:30,0.3278166962,0.04127618984999999,9.837491914249998,-0.010995574287564279,0.0038179077387375964,-0.013133602621257331,-0.55398,0.38402000000000003,-1.7291400000000001,47.19744000000001,320,20972334,11.5,0
2024-03-10T11:37:30,0.3236292566499999,0.09391828705,9.871589636299998,-0.013133602621257331,0.0013744467859455349,-0.016798794050445424,-0.5495,0.38570000000000004,-1.74566,47.19744000000001,320,20972334,11.5,0
2024-03-10T11:37:30,0.29850461935,0.062213387599999996,9.8608219346,-0.014355333097653362,-0.00015271630954950385,-0.013591751549905842,-0.5590200000000001,0.3896200000000001,-1.7274600000000002,47.19744000000001,320,20972334,11.5,0
2024-03-10T11:37:30,0.33499516399999996,0.09272187574999999,10.034301573099999,-0.013286318930806834,-0.00045814892864851157,-0.010231992739816757,-0.55174,0.37954000000000004,-1.73516,47.19744000000001,320,20972334,11.5,0
2024-03-10T11:37:30,0.28893332894999996,0.06400800455,9.84945602725,-0.010384709049366262,0.0006108652381980154,-0.010842857978014774,-0.55174,0.37954000000000004,-1.73516,47.19744000000001,320,20972334,11.5,0
2024-03-10T11:37:30,0.29730820804999997,0.062213387599999996,9.792626490499998,-0.017715091907742446,0.0018325957145940463,-0.013897184169004852,-0.55762,0.37954000000000004,-1.71836,47.19744000000001,320,20972334,11.5,0
2024-03-10T11:37:30,0.24167508259999998,0.07716852884999999,9.809974454349998,-0.012522737383059314,0.0006108652381980154,-0.01863138976503947,-0.54586,0.3896200000000001,-1.72886,47.19744000000001,320,20972334,11.5,0
2024-03-10T11:37:30,0.28474588939999995,0.09870393224999999,10.042676452199998,-0.017256942979093935,-0.003054326190990077,-0.016340645121796914,-0.55818,0.39270000000000005,-1.7194800000000003,47.19744000000001,320,20972334,11.5,0
2024-03-10T11:37:30,0.32662028489999995,0.07118647234999999,9.75374312325,-0.013439035240356337,0.002901609881440573,-0.011606439525762293,-0.55818,0.39270000000000005,-1.7194800000000003,47.19744000000001,320,20972334,11.5,0
2024-03-10T11:37:30,0.40558343069999997,0.047856451999999994,9.936195846499999,-0.015729779883598898,0.002901609881440573,-0.014355333097653362,-0.54922,0.38234,-1.71892,47.19744000000001,320,20972334,11.5,0
2024-03-10T11:37:30,0.39481572899999995,0.028115665550000002,9.843473970749999,-0.013591751549905842,-0.003207042500539581,-0.013744467859455347,-0.55174,0.37982000000000005,-1.7297000000000002,47.19744000000001,320,20972334,11.5,0
2024-03-10T11:37:30,0.27816562724999994,0.10827522265,9.837491914249998,-0.013744467859455347,0.0033597588100890844,-0.019089538693687978,-0.55174,0.37982000000000005,-1.7297000000000002,47.360640000000004,320,20972335,11.5,0
2024-03-10T11:37:30,0.20338992099999997,0.059222359349999996,9.85424167245,-0.015424347264499889,-0.00045814892864851157,-0.015118914645400881,-0.5500600000000001,0.38178,-1.7229800000000002,47.360640000000004,320,20972335,11.5,0
2024-03-10T11:37:30,0.22492532440000002,0.056231331100000004,9.7950193131,-0.014355333097653362,0.0009162978572970231,-0.012522737383059314,-0.5461400000000001,0.39102000000000003,-1.7297000000000002,47.360640000000004,320,20972335,11.5,0
2024-03-10T11:37:30,0.23928225999999997,0.0729810893,9.8811609267,-0.010537425358915765,0.0007635815477475193,-0.015424347264499889,-0.5481,0.38626000000000005,-1.7220000000000002,47.360640000000004,320,20972335,11.5,0
2024-03-10T11:37:30,0.3397808092,0.09092725880000001,9.8799645154,-0.013439035240356337,0.001069014166846527,-0.01466076571675237,-0.5481,0.38626000000000005,-1.7220000000000002,47.360640000000004,320,20972335,11.5,0
2024-03-10T11:37:30,0.41814574934999993,0.07118647234999999,9.8739824589,-0.014508049407202865,0.0007635815477475193,-0.013591751549905842,-0.5500600000000001,0.3901800000000001,-1.7253600000000002,47.360640000000004,320,20972335,11.5,0
2024-03-10T11:37:30,0.3900300838,0.028713871199999998,9.8045906035,-0.013744467859455347,-0.002901609881440573,-0.013286318930806834,-0.55174,0.38598000000000005,-1.7292800000000002,47.09299200000001,321,21037871,11.5,0
2024-03-10T11:37:30,0.24406790519999996,0.10827522265,9.8560362894,-0.015271630954950386,-0.0006108652381980154,-0.01710422666954443,-0.55174,0.38598000000000005,-1.7292800000000002,47.09299200000001,321,21037871,11.5,0
2024-03-10T11:37:30,0.1878365741,0.11425727914999999,9.8751788702,-0.012828170002158324,0.0006108652381980154,-0.010842857978014774,-0.5542600000000001,0.3896200000000001,-1.7217200000000004,47.09299200000001,321,21037871,11.5,0
2024-03-10T11:37:30,0.2715853651,0.0634097989,9.84586679335,-0.009926560120717751,0.0015271630954950385,-0.012522737383059314,-0.5467000000000001,0.38206000000000007,-1.7290000000000003,47.09299200000001,321,21037871,11.5,0
2024-03-10T11:37:30,0.35593236175,0.051445685899999996,9.87218784195,-0.010995574287564279,0.0015271630954950385,-0.012217304763960308,-0.55034,0.37954000000000004,-1.7295600000000002,47.09299200000001,321,21037871,11.5,0
2024-03-10T11:37:30,0.38883367249999995,0.0634097989,9.945767136899999,-0.014508049407202865,-0.0022907446432425577,-0.011606439525762293,-0.55034,0.37954000000000004,-1.7295600000000002,47.09299200000001,321,21037871,11.5,0
2024-03-10T11:37:30,0.3505485109,0.05682953674999999,9.837491914249998,-0.016951510359994926,0.0012217304763960308,-0.013897184169004852,-0.5450200000000001,0.38822,-1.72158,47.256192000000006,321,21037872,11.5,0
2024-03-10T11:37:30,0.27577280465,0.06759723845,9.856634495049999,-0.013897184169004852,0.0007635815477475193,-0.012064588454410803,-0.5500600000000001,0.39102000000000003,-1.7326400000000002,47.256192000000006,321,21037872,11.5,0
2024-03-10T11:37:30,0.20518453794999997,0.0945164927,9.87577707585,-0.012064588454410803,-0.00015271630954950385,-0.01618792881224741,-0.5551,0.38402000000000003,-1.71402,47.256192000000006,321,21037872,11.5,0
2024-03-10T11:37:30,0.2763710103,0.08434699664999999,9.898508890549998,-0.015118914645400881,0.0024434609527920616,-0.013591751549905842,-0.5551,0.38402000000000003,-1.71402,47.256192000000006,321,21037872,11.5,0
2024-03-10T11:37:30,0.34337004309999997,0.07477570624999999,9.84227755945,-0.0119118721448613,0.0012217304763960308,-0.013744467859455347,-0.5472600000000001,0.38402000000000003,-1.7280200000000001,47.256192000000006,321,21037872,11.5,0
2024-03-10T11:37:30,0.346959277,0.047856451999999994,9.863812962849998,-0.013439035240356337,0.0006108652381980154,-0.014813482026301873,-0.5525800000000001,0.3831800000000001,-1.7172400000000003,47.256192000000006,321,21037872,11.5,0
2024-03-10T11:37:30,0.30747770409999997,0.07118647234999999,9.821340361699999,-0.013591751549905842,-0.0033597588100890844,-0.014049900478554353,-0.5478200000000001,0.39382000000000006,-1.73292,47.41939200000001,321,21037873,11.5,0
2024-03-10T11:37:30,0.26620151425,0.07597211755,9.8668039911,-0.015882496193148403,0.00045814892864851157,-0.013744467859455347,-0.5478200000000001,0.39382000000000006,-1.73292,47.41939200000001,321,21037873,11.5,0
2024-03-10T11:37:30,0.24586252214999998,0.08075776274999999,9.843473970749999,-0.014355333097653362,-0.0019853120241435504,-0.015118914645400881,-0.54838,0.3829,-1.71486,47.41939200000001,321,21037873,11.5,0
2024-03-10T11:37:30,0.2979064137,0.10348957745,9.8572327007,-0.01863138976503947,0.0016798794050445422,-0.014049900478554353,-0.5455800000000001,0.3896200000000001,-1.7173800000000001,47.41939200000001,321,21037873,11.5,0
2024-03-10T11:37:30,0.34516466005,0.045463629400000004,9.8548398781,-0.014813482026301873,0.0044287729769356115,-0.013591751549905842,-0.5511800000000001,0.38402000000000003,-1.72662,47.41939200000001,321,21037873,11.5,0
2024-03-10T11:37:31,0.37686955949999995,0.038883367249999995,9.86620578545,-0.015882496193148403,0.0006108652381980154,-0.01466076571675237,-0.5511800000000001,0.38402000000000003,-1.72662,47.41939200000001,321,21037873,11.5,0
2024-03-10T11:37:31,0.34636107135,0.05563312545,9.863812962849998,-0.008704829644321718,0.0006108652381980154,-0.011606439525762293,-0.55174,0.38094000000000006,-1.7267600000000003,47.41939200000001,321,21037873,11.5,0
2024-03-10T11:37:31,0.27936203854999997,0.11006983959999998,9.8452685877,-0.014049900478554353,0.0013744467859455349,-0.014355333097653362,-0.55286,0.38430000000000003,-1.7249400000000001,47.41939200000001,321,21037873,11.5,0
2024-03-10T11:37:31,0.26021945775,0.10468598874999999,9.77767134925,-0.012980886311707827,0.0018325957145940463,-0.014813482026301873,-0.5495,0.38738000000000006,-1.7348800000000002,47.41939200000001,321,21037873,11.5,0
2024-03-10T11:37:31,0.3158525832,0.1280160091,9.89013401145,-0.011301006906663285,0.03772092845872745,-0.01114829059711378,-0.5495,0.38738000000000006,-1.7348800000000002,47.41939200000001,321,21037873,11.5,0
2024-03-10T11:37:31,0.30807590975,0.053240302850000004,9.771689292749999,-0.0119118721448613,0.005192354524683131,-0.012522737383059314,-0.5553800000000001,0.3890600000000001,-1.7182200000000003,47.41939200000001,321,21037873,11.5,0
2024-03-10T11:37:31,0.40079778549999995,-0.013758729949999998,9.9505527821,-0.014508049407202865,-0.00473420559603462,-0.014966198335851376,-0.55454,0.38878,-1.73418,47.41939200000001,321,21037873,11.5,0
2024-03-10T11:37:31,0.35413774480000004,-0.053240302850000004,9.72383284075,-0.014966198335851376,0.0016798794050445422,-0.014049900478554353,-0.55454,0.38878,-1.73418,47.41939200000001,321,21037873,11.5,0
2024-03-10T11:37:31,0.28235306679999994,0.10947163395000001,9.850652438549998,-0.015729779883598898,-0.0035124751196385882,-0.015577063574049392,-0.55818,0.38794000000000006,-1.7283000000000002,47.41939200000001,321,21037873,11.5,0
2024-03-10T11:37:31,0.22612173569999997,0.20458633229999998,9.83390268035,-0.014049900478554353,-0.004581489286485115,-0.012980886311707827,-0.5472600000000001,0.38458000000000003,-1.71164,47.41939200000001,321,21037873,11.5,0
2024-03-10T11:37:31,0.2835494781,0.18424734019999997,9.752546711949998,-0.010384709049366262,0.0035124751196385882,-0.011759155835311796,-0.55566,0.38430000000000003,-1.7199,47.41939200000001,321,21037873,11.5,0
2024-03-10T11:37:31,0.24287149389999999,0.0167497582,9.930213789999998,-0.015271630954950386,0.0015271630954950385,-0.012370021073509813,-0.55566,0.38430000000000003,-1.7199,47.41939200000001,321,21037873,11.5,0
2024-03-10T11:37:31,0.29132615154999997,-0.020338992099999998,9.7950193131,-0.012828170002158324,0.0015271630954950385,-0.013286318930806834,-0.5467000000000001,0.38094000000000006,-1.72242,47.31494400000001,322,21103410,11.5,0
2024-03-10T11:37:31,0.3158525832,-0.01734796385,9.892526834049999,-0.014508049407202865,-0.0038179077387375964,-0.01466076571675237,-0.5573400000000001,0.38626000000000005,-1.7235400000000003,47.31494400000001,322,21103410,11.5,0
2024-03-10T11:37:31,0.3415754261499999,0.05682953674999999,9.87458066455,-0.009926560120717751,-0.0013744467859455349,-0.012980886311707827,-0.5573400000000001,0.38626000000000005,-1.7235400000000003,47.31494400000001,322,21103410,11.5,0
2024-03-10T11:37:31,0.32602207924999993,0.15852449724999998,9.8249295956,-0.015118914645400881,-0.003207042500539581,-0.014508049407202865,-0.5430600000000001,0.38794000000000006,-1.7273200000000002,47.31494400000001,322,21103410,11.5,0
2024-03-10T11:37:31,0.26979074815,0.17288143285000002,9.86620578545,-0.013133602621257331,-0.0022907446432425577,-0.012675453692608819,-0.55398,0.39074000000000003,-1.71934,47.31494400000001,322,21103410,11.5,0
2024-03-10T11:37:31,0.21296121140000002,0.08554340794999998,9.84945602725,-0.01710422666954443,-0.0009162978572970231,-0.013897184169004852,-0.5551,0.38038000000000005,-1.7340400000000002,47.47814400000001,322,21103411,11.5,0
2024-03-10T11:37:31,0.2907279459,0.007178467799999999,9.8739824589,-0.01618792881224741,0.0,-0.013439035240356337,-0.5551,0.38038000000000005,-1.7340400000000002,47.47814400000001,322,21103411,11.5,0
2024-03-10T11:37:31,0.36311082955,-0.007178467799999999,9.769894675799998,-0.015882496193148403,0.0024434609527920616,-0.014202616788103858,-0.55398,0.39046000000000003,-1.7229800000000002,47.47814400000001,322,21103411,11.5,0
2024-03-10T11:37:31,0.3439682487499999,0.032901310749999996,9.87218784195,-0.015424347264499889,-0.0022907446432425577,-0.01618792881224741,-0.55818,0.38542000000000004,-1.7141600000000001,47.47814400000001,322,21103411,11.5,0
2024-03-10T11:37:31,0.31226334929999994,0.14895320685,9.8632147572,-0.014049900478554353,0.0013744467859455349,-0.012980886311707827,-0.55174,0.38654,-1.7197600000000002,47.47814400000001,322,21103411,11.5,0
2024-03-10T11:37:31,0.2500499617,0.17288143285000002,9.8452685877,-0.014966198335851376,-0.004123340357836604,-0.013744467859455347,-0.55174,0.38654,-1.7197600000000002,47.47814400000001,322,21103411,11.5,0
2024-03-10T11:37:31,0.2787638329,0.11066804524999999,9.9014999188,-0.015271630954950386,0.0012217304763960308,-0.0119118721448613,-0.5601400000000001,0.38346,-1.7269,47.47814400000001,322,21103411,11.5,0
2024-03-10T11:37:31,0.28055844984999995,0.00418743955,9.865607579799999,-0.013133602621257331,0.003054326190990077,-0.012370021073509813,-0.5551,0.38234,-1.7157000000000002,47.47814400000001,322,21103411,11.5,0
2024-03-10T11:37:31,0.32004002274999993,-0.028713871199999998,9.692127941299999,-0.012675453692608819,-0.0013744467859455349,-0.015577063574049392,-0.5551,0.38234,-1.7157000000000002,47.47814400000001,322,21103411,11.5,0
2024-03-10T11:37:31,0.34576286570000003,0.05802594804999999,9.8273224182,-0.013744467859455347,-0.0012217304763960308,-0.014049900478554353,-0.5573400000000001,0.38066,-1.7108,47.47814400000001,322,21103411,11.5,0
2024-03-10T11:37:31,0.32004002274999993,0.11964112999999998,9.8608219346,-0.016035212502697904,-0.0019853120241435504,-0.013897184169004852,-0.5509000000000001,0.38626000000000005,-1.7134600000000002,47.47814400000001,322,21103411,11.5,0
2024-03-10T11:37:31,0.26380869165,0.14117653339999997,9.838688325549999,-0.014202616788103858,-0.0013744467859455349,-0.014508049407202865,-0.55398,0.38850000000000007,-1.7150000000000003,47.47814400000001,322,21103411,11.5,0
2024-03-10T11:37:31,0.25304098994999996,0.11425727914999999,9.870991430649998,-0.015424347264499889,-0.0015271630954950385,-0.014508049407202865,-0.55398,0.38850000000000007,-1.7150000000000003,47.64134400000001,322,21103412,11.5,0
2024-03-10T11:37:31,0.27816562724999994,0.04247260115,9.7842516114,-0.015118914645400881,0.001069014166846527,-0.012980886311707827,-0.5523,0.38682000000000005,-1.71486,47.64134400000001,322,21103412,11.5,0
2024-03-10T11:37:31,0.3158525832,0.0131605243,9.858429112,-0.01466076571675237,0.0007635815477475193,-0.014355333097653362,-0.5511800000000001,0.38122,-1.7122000000000002,47.64134400000001,322,21103412,11.5,0
2024-03-10T11:37:31,0.36011980130000004,0.048454657649999996,9.853643466800001,-0.016951510359994926,0.0,-0.013133602621257331,-0.5511800000000001,0.38122,-1.7122000000000002,47.64134400000001,322,21103412,11.5,0
2024-03-10T11:37:31,0.33080772444999995,0.09272187574999999,9.82433138995,-0.016035212502697904,-0.0016798794050445422,-0.01466076571675237,-0.5481,0.38402000000000003,-1.72438,47.64134400000001,322,21103412,11.5,0
2024-03-10T11:37:31,0.27218357075,0.12442677519999999,9.888339394499999,-0.017256942979093935,-0.0018325957145940463,-0.01710422666954443,-0.5542600000000001,0.38206000000000007,-1.7200400000000002,47.64134400000001,322,21103412,11.5,0
2024-03-10T11:37:31,0.25184457865,0.04366901245,9.87697348715,-0.015729779883598898,0.0,-0.014508049407202865,-0.55398,0.38850000000000007,-1.73754,47.37369600000001,323,21168948,11.5,0
2024-03-10T11:37:31,0.28654050634999995,0.0646062102,9.8141618939,-0.014813482026301873,-0.001069014166846527,-0.013133602621257331,-0.55398,0.38850000000000007,-1.73754,47.37369600000001,323,21168948,11.5,0
2024-03-10T11:37:31,0.32243284534999994,0.049651068949999995,9.8249295956,-0.015118914645400881,0.0027488935718910697,-0.014049900478554353,-0.55174,0.38430000000000003,-1.7285800000000002,47.37369600000001,323,21168948,11.5,0
2024-03-10T11:37:31,0.33200413574999993,0.04905286329999999,9.90688376965,-0.016798794050445424,0.00015271630954950385,-0.012522737383059314,-0.5511800000000001,0.38150000000000006,-1.7220000000000002,47.37369600000001,323,21168948,11.5,0
2024-03-10T11:37:31,0.29012974025,0.08195417405,9.859625523299998,-0.016340645121796914,-0.0015271630954950385,-0.015271630954950386,-0.5478200000000001,0.38262000000000007,-1.7186400000000002,47.37369600000001,323,21168948,11.5,0
2024-03-10T11:37:31,0.2775674216,0.10648060570000001,9.88175913235,-0.013133602621257331,0.0022907446432425577,-0.013439035240356337,-0.5478200000000001,0.38262000000000007,-1.7186400000000002,47.37369600000001,323,21168948,11.5,0
2024-03-10T11:37:31,0.2763710103,0.09212367009999999,9.863812962849998,-0.015577063574049392,-0.001069014166846527,-0.012370021073509813,-0.55566,0.39046000000000003,-1.73754,47.53689600000001,323,21168949,11.5,0
2024-03-10T11:37:31,0.30508488149999996,0.08315058534999999,9.823134978649998,-0.012217304763960308,-0.0007635815477475193,-0.013591751549905842,-0.5500600000000001,0.38486000000000004,-1.72368,47.53689600000001,323,21168949,11.5,0
2024-03-10T11:37:31,0.33080772444999995,0.028713871199999998,9.94397251995,-0.015424347264499889,-0.0022907446432425577,-0.015729779883598898,-0.5500600000000001,0.38486000000000004,-1.72368,47.53689600000001,323,21168949,11.5,0
2024-03-10T11:37:31,0.33678978094999995,0.07776673449999999,9.796813930049998,-0.011606439525762293,-0.0044287729769356115,-0.014049900478554353,-0.5559400000000001,0.38346,-1.7285800000000002,47.53689600000001,323,21168949,11.5,0
2024-03-10T11:37:31,0.30927232104999997,0.0693918554,9.919446088299999,-0.015577063574049392,0.0012217304763960308,-0.010995574287564279,-0.5607000000000001,0.3829,-1.72438,47.53689600000001,323,21168949,11.5,0
2024-03-10T11:37:31,0.30089744194999996,0.058624153699999994,9.808179837399999,-0.012828170002158324,0.0018325957145940463,-0.013439035240356337,-0.54922,0.3831800000000001,-1.7255000000000003,47.53689600000001,324,21234486,11.5,0
2024-03-10T11:37:31,0.26021945775,0.023330020349999998,9.91286582615,-0.014355333097653362,-0.003970624048287101,-0.012370021073509813,-0.54922,0.3831800000000001,-1.7255000000000003,47.432447999999994,324,21234486,11.5,0
2024-03-10T11:37:31,0.26021945775,0.022731814700000002,9.7567341515,-0.01664607774089592,0.003207042500539581,-0.018020524526841455,-0.5593,0.37786000000000003,-1.7204600000000003,47.432447999999994,324,21234486,11.5,0
2024-03-10T11:37:31,0.32901310749999996,0.0873380249,9.91286582615,-0.01618792881224741,-0.038789942625573975,-0.012522737383059314,-0.5537000000000001,0.38234,-1.7287200000000003,47.432447999999994,324,21234486,11.5,0
2024-03-10T11:37:31,0.32303105099999996,0.11485548479999999,9.932606612599997,-0.01786780821729195,0.0,-0.017409659288643436,-0.5570600000000001,0.38486000000000004,-1.7182200000000003,47.432447999999994,324,21234486,11.5,0
2024-03-10T11:37:31,0.32422746229999994,0.10408778309999998,9.830911652099998,-0.015882496193148403,-0.0003054326190990077,-0.013439035240356337,-0.5570600000000001,0.38486000000000004,-1.7182200000000003,47.432447999999994,324,21234486,11.5,0
2024-03-10T11:37:31,0.31046873235,0.04127618984999999,9.8799645154,-0.012675453692608819,0.0036651914291880926,-0.011301006906663285,-0.55342,0.38066,-1.7207400000000002,47.595648,324,21234487,11.5,0
2024-03-10T11:37:31,0.26261228035,0.0167497582,9.83629550295,-0.015271630954950386,-0.0006108652381980154,-0.012217304763960308,-0.5520200000000001,0.38458000000000003,-1.7158400000000003,47.595648,324,21234487,11.5,0
2024-03-10T11:37:31,0.27218357075,0.051445685899999996,9.865607579799999,-0.01710422666954443,-0.0007635815477475193,-0.016798794050445424,-0.5520200000000001,0.38458000000000003,-1.7158400000000003,47.595648,324,21234487,11.5,0
2024-03-10T11:37:31,0.3158525832,0.08195417405,9.844670382049998,-0.013133602621257331,0.003207042500539581,-0.015118914645400881,-0.5441800000000001,0.38234,-1.72116,47.595648,324,21234487,11.5,0
2024-03-10T11:37:32,0.346959277,0.08853443620000001,9.86500937415,-0.014508049407202865,-0.0009162978572970231,-0.015118914645400881,-0.5635,0.38486000000000004,-1.7263400000000002,47.595648,324,21234487,11.5,0
2024-03-10T11:37:32,0.30807590975,0.11306086784999998,9.846464998999998,-0.008857545953871223,-0.0012217304763960308,-0.01466076571675237,-0.5500600000000001,0.38766,-1.72984,47.595648,324,21234487,11.5,0
2024-03-10T11:37:32,0.27098715944999996,0.07836494014999999,9.890732217099998,-0.01466076571675237,0.0018325957145940463,-0.013744467859455347,-0.5500600000000001,0.38766,-1.72984,47.595648,324,21234487,11.5,0
2024-03-10T11:37:32,0.27816562724999994,0.029910282499999996,9.9026963301,-0.012217304763960308,-0.0009162978572970231,-0.013286318930806834,-0.55566,0.38626000000000005,-1.7194800000000003,47.595648,324,21234487,11.5,0
2024-03-10T11:37:32,0.31046873235,0.029910282499999996,9.8668039911,-0.016035212502697904,0.0009162978572970231,-0.014966198335851376,-0.5537000000000001,0.38458000000000003,-1.73432,47.595648,324,21234487,11.5,0
2024-03-10T11:37:32,0.31405796625,0.06101697629999999,9.886544777549998,-0.014813482026301873,0.0027488935718910697,-0.013897184169004852,-0.5537000000000001,0.38458000000000003,-1.73432,47.595648,324,21234487,11.5,0
2024-03-10T11:37:32,0.3152543775499999,0.07776673449999999,9.837491914249998,-0.016493361431346415,-0.003054326190990077,-0.011301006906663285,-0.55678,0.38458000000000003,-1.7399200000000001,47.595648,324,21234487,11.5,0
2024-03-10T11:37:32,0.31106693799999996,0.0873380249,9.851848849849999,-0.014508049407202865,-0.0003054326190990077,-0.012522737383059314,-0.5520200000000001,0.38598000000000005,-1.7269,47.595648,324,21234487,11.5,0
2024-03-10T11:37:32,0.28773691765000003,0.0646062102,9.785448022699999,-0.01618792881224741,0.00015271630954950385,-0.01466076571675237,-0.5537000000000001,0.39214000000000004,-1.7220000000000002,47.595648,324,21234487,11.5,0
2024-03-10T11:37:32,0.2715853651,0.056231331100000004,9.841679353799998,-0.012828170002158324,0.0013744467859455349,-0.013133602621257331,-0.5537000000000001,0.39214000000000004,-1.7220000000000002,47.595648,324,21234487,11.5,0
2024-03-10T11:37:32,0.29910282499999996,0.06999006104999998,9.852447055499999,-0.015882496193148403,0.0012217304763960308,-0.016340645121796914,-0.5590200000000001,0.38094000000000006,-1.7137400000000003,47.595648,324,21234487,11.5,0
2024-03-10T11:37:32,0.30209385325,0.06580262149999999,9.88534836625,-0.013286318930806834,0.003970624048287101,-0.014049900478554353,-0.55062,0.38542000000000004,-1.7196200000000001,47.595648,324,21234487,11.5,0
2024-03-10T11:37:32,0.3176472001499999,0.06161518194999999,9.865607579799999,-0.013286318930806834,-0.03756821214917795,-0.012980886311707827,-0.55062,0.38542000000000004,-1.7313800000000001,47.595648,324,21234487,11.5,0
2024-03-10T11:37:32,0.2703889538,0.06520441585,9.88774118885,-0.016493361431346415,0.00045814892864851157,-0.014355333097653362,-0.55286,0.38738000000000006,-1.7313800000000001,47.595648,324,21234487,11.5,0
2024-03-10T11:37:32,0.28534409504999997,0.07537391189999999,9.851250644199999,-0.017256942979093935,0.0025961772623415654,-0.01466076571675237,-0.55874,0.38766,-1.7309600000000003,47.595648,324,21234487,11.5,0
2024-03-10T11:37:32,0.2967100024,0.04486542375,9.84108114815,-0.012828170002158324,0.0027488935718910697,-0.013133602621257331,-0.5525800000000001,0.38430000000000003,-1.7264800000000002,47.595648,324,21234487,11.5,0
2024-03-10T11:37:32,0.3158525832,0.09391828705,9.8440721764,-0.014508049407202865,-0.038331793696925465,-0.013591751549905842,-0.5525800000000001,0.38430000000000003,-1.7264800000000002,47.595648,324,21234487,11.5,0
2024-03-10T11:37:32,0.179461695,0.0789631458,9.85304526115,-0.01114829059711378,0.0019853120241435504,-0.013591751549905842,-0.5542600000000001,0.38178,-1.7325000000000002,47.595648,324,21234487,11.5,0
2024-03-10T11:37:32,0.33738798659999997,0.049651068949999995,9.871589636299998,-0.012675453692608819,-0.0013744467859455349,-0.01466076571675237,-0.5531400000000001,0.38542000000000004,-1.7362800000000003,47.595648,324,21234487,11.5,0
2024-03-10T11:37:32,0.30209385325,0.049651068949999995,9.853643466800001,-0.016035212502697904,0.001069014166846527,-0.013286318930806834,-0.55062,0.39942,-1.7389400000000002,47.432447999999994,324,21234486,11.5,0
2024-03-10T11:37:32,0.27577280465,0.08434699664999999,9.8680004024,-0.01466076571675237,-0.0018325957145940463,-0.012064588454410803,-0.55062,0.39942,-1.7389400000000002,47.432447999999994,324,21234486,11.5,0
2024-03-10T11:37:32,0.2979064137,0.05443671415,9.862616551549998,-0.01466076571675237,0.0024434609527920616,-0.016798794050445424,-0.54334,0.3899,-1.7368400000000002,47.432447999999994,324,21234486,11.5,0
2024-03-10T11:37:32,0.31405796625,0.059222359349999996,9.8608219346,-0.015271630954950386,-0.0009162978572970231,-0.014966198335851376,-0.5500600000000001,0.39298,-1.7390800000000002,47.432447999999994,324,21234486,11.5,0
2024-03-10T11:37:32,0.32004002274999993,0.047856451999999994,9.837491914249998,-0.015424347264499889,0.0018325957145940463,-0.013744467859455347,-0.5500600000000001,0.39298,-1.7390800000000002,47.432447999999994,324,21234486,11.5,0
2024-03-10T11:37:32,0.32063822839999995,0.07716852884999999,9.8620183459,-0.012522737383059314,-0.003054326190990077,-0.015577063574049392,-0.5450200000000001,0.39046000000000003,-1.7325000000000002,47.432447999999994,324,21234486,11.5,0
2024-03-10T11:37:32,0.30927232104999997,0.060418770649999995,9.88295554365,-0.012217304763960308,0.004581489286485115,-0.016951510359994926,-0.5478200000000001,0.39130000000000004,-1.7260600000000001,47.432447999999994,324,21234486,11.5,0
2024-03-10T11:37:32,0.31166514365,0.035892338999999995,9.8153583052,-0.015271630954950386,-0.0009162978572970231,-0.012064588454410803,-0.5565,0.38934,-1.7172400000000003,47.432447999999994,324,21234486,11.5,0
2024-03-10T11:37:32,0.3062812928,0.06281159324999999,9.8548398781,-0.015424347264499889,-0.0019853120241435504,-0.01618792881224741,-0.5565,0.38934,-1.7172400000000003,47.432447999999994,324,21234486,11.5,0
2024-03-10T11:37:32,0.33260234139999995,0.0693918554,9.84227755945,-0.014202616788103858,0.0006108652381980154,-0.013133602621257331,-0.5523,0.39186,-1.7229800000000002,47.432447999999994,324,21234486,11.5,0
2024-03-10T11:37:32,0.32063822839999995,0.03409772205,9.841679353799998,-0.015424347264499889,0.038789942625573975,-0.012828170002158324,-0.5489400000000001,0.38822,-1.7292800000000002,47.432447999999994,324,21234486,11.5,0
2024-03-10T11:37:32,0.30687949845,0.015553346899999999,9.88893760015,-0.012064588454410803,-0.0054977871437821395,-0.01618792881224741,-0.55342,0.38542000000000004,-1.7287200000000003,47.432447999999994,324,21234486,11.5,0
2024-03-10T11:37:32,0.3038884702,0.035892338999999995,9.80159957525,-0.012217304763960308,0.00045814892864851157,-0.012522737383059314,-0.55342,0.38542000000000004,-1.7287200000000003,47.37369600000001,323,21168948,11.5,0
2024-03-10T11:37:32,0.28175486115,0.09631110964999999,9.972686391149999,-0.013591751549905842,0.00045814892864851157,-0.014508049407202865,-0.54698,0.37898000000000004,-1.7154200000000002,47.37369600000001,323,21168948,11.5,0
2024-03-10T11:37:32,0.2967100024,0.10648060570000001,9.812965482600001,-0.01832595714594046,-0.0013744467859455349,-0.014813482026301873,-0.5531400000000001,0.38766,-1.72886,47.37369600000001,323,21168948,11.5,0
2024-03-10T11:37:32,0.33499516399999996,0.09332008139999999,9.8093762487,-0.01863138976503947,0.002138028333693054,-0.017409659288643436,-0.5531400000000001,0.38766,-1.72886,47.37369600000001,323,21168948,11.5,0
2024-03-10T11:37:32,0.3900300838,0.03170489945,9.85424167245,-0.017409659288643436,0.00015271630954950385,-0.012828170002158324,-0.55566,0.38458000000000003,-1.7168200000000002,47.37369600000001,323,21168948,11.5,0
2024-03-10T11:37:32,0.37328032559999996,-0.0191425808,9.80638522045,-0.012828170002158324,0.0,-0.015577063574049392,-0.5509000000000001,0.38346,-1.7190600000000003,47.37369600000001,323,21168948,11.5,0
2024-03-10T11:37:32,0.31286155495,-0.013758729949999998,9.82792062385,-0.015729779883598898,0.0024434609527920616,-0.013744467859455347,-0.54922,0.38486000000000004,-1.7175200000000002,47.47814400000001,322,21103411,11.5,0
2024-03-10T11:37:32,0.26321048599999997,0.0897308475,9.852447055499999,-0.014355333097653362,0.0019853120241435504,-0.010842857978014774,-0.54922,0.38486000000000004,-1.7175200000000002,47.47814400000001,322,21103411,11.5,0
2024-03-10T11:37:32,0.23270199784999998,0.12083754129999999,9.8249295956,-0.015271630954950386,0.0003054326190990077,-0.012064588454410803,-0.5481,0.37898000000000004,-1.7413200000000002,47.47814400000001,322,21103411,11.5,0
2024-03-10T11:37:32,0.31226334929999994,0.2919243572,9.8763752815,-0.019242255003237483,-0.0009162978572970231,-0.012217304763960308,-0.56042,0.38038000000000005,-1.7199,47.47814400000001,322,21103411,11.5,0
