Timestamp,Accel_X,Accel_Y,Accel_Z,Gyro_X,Gyro_Y,Gyro_Z,Mag_X,Mag_Y,Mag_Z,LSM9DS1_Temp,Proximity,Color_R,Color_G,Color_B,Color_C,BME680_Temp,Gas,Humidity,Pressure,Switch_Pressed,GPS_Latitude,GPS_Longitude,GPS_Speed,GPS_Timestamp
2024-03-23T21:48:58,-1.7623138448999998,-0.6945167596499999,9.976873830699999,0.04382958084070761,-0.009621127501618741,-0.03130684345764829,0.36134000000000005,0.03178,-0.4025000000000001,1.5,7,0,0,0,0,33.574921875,573894,100,695.662002676745,0,,,,N/A
2024-03-23T21:48:58,-1.7958133612999998,-0.6897311144499999,9.97866844765,0.03298672286269283,0.012370021073509813,-0.03390302071998985,0.36582000000000003,0.02562,-0.42098,1.5,7,0,0,0,0,33.574921875,573894,100,695.662002676745,0,,,,N/A
2024-03-23T21:48:58,-1.7605192279499997,-0.77946196195,9.97388280245,0.030848694528999777,0.015882496193148403,-0.017715091907742446,0.36750000000000005,0.02926,-0.41454,1.5,7,0,0,0,0,33.574921875,573894,100,695.662002676745,0,,,,N/A
2024-03-23T21:48:58,-1.7479569092999998,-0.6735795618999999,9.977472036350001,0.02855794988575722,0.009926560120717751,0.008552113334772215,0.36302000000000006,0.027300000000000005,-0.4207,1.5,7,0,0,0,0,33.574921875,573894,100,695.662002676745,0,,,,N/A
2024-03-23T21:48:58,-1.7324035624,-0.60717873475,10.0725867347,0.030390545600351267,0.014508049407202865,-0.01069014166846527,0.36302000000000006,0.027300000000000005,-0.4207,1.5,7,0,0,0,0,33.574921875,573894,100,695.662002676745,0,,,,N/A
2024-03-23T21:48:58,-1.7826528369999999,-0.6759723844999999,9.98225768155,0.029626964052603746,0.01832595714594046,-0.028863382504856226,0.36526000000000003,0.03318,-0.41706000000000004,1.5,7,0,0,0,0,33.574921875,573894,100,695.662002676745,0,,,,N/A
2024-03-23T21:48:58,-1.8149559420999999,-0.6867400861999999,10.0031948793,0.031154127148098783,0.019394971312786988,-0.03313943917224234,0.36694000000000004,0.029820000000000003,-0.40614000000000006,1.5,7,0,0,0,0,6.803046875,63766,51.21427531680333,1008.5813515388077,0,,,,N/A
2024-03-23T21:48:58,-1.8041882403999998,-0.67298135625,9.97388280245,0.03802636107782646,0.012217304763960308,-0.030085112981252257,0.35882000000000003,0.030940000000000002,-0.40670000000000006,1.5,7,0,0,0,0,6.803046875,63766,51.21427531680333,1008.5813515388077,0,,,,N/A
2024-03-23T21:48:58,-1.7814564256999998,-0.67417776755,10.054042359550001,0.03481931857728687,0.009010262263420728,-0.03390302071998985,0.35910000000000003,0.034300000000000004,-0.41244000000000003,1.5,7,0,0,0,0,6.803046875,63766,51.21427531680333,1008.5813515388077,0,,,,N/A
2024-03-23T21:48:58,-1.7694923126999997,-0.66939212235,10.051649536949999,0.03527746750593539,0.012370021073509813,-0.03497203488683638,0.3647,0.03458000000000001,-0.41874000000000006,1.5,7,0,0,0,0,6.803046875,63766,51.21427531680333,1008.5813515388077,0,,,,N/A
2024-03-23T21:48:58,-1.8053846516999998,-0.6777670014499999,9.985248709799999,0.030237829290801762,0.012675453692608819,-0.03268129024359383,0.36162000000000005,0.028700000000000003,-0.4046,1.5,7,0,0,0,0,6.803046875,63766,51.21427531680333,1008.5813515388077,0,,,,N/A
2024-03-23T21:48:59,-1.8065810629999999,-0.69212393705,9.978070242,0.03405573702953936,0.012675453692608819,-0.03436116964863837,0.36162000000000005,0.028700000000000003,-0.4046,1.5,7,0,0,0,0,6.803046875,63766,51.21427531680333,1008.5813515388077,0,,,,N/A
2024-03-23T21:48:59,-1.7575281996999998,-0.66819571105,10.01456078665,0.03543018381548489,0.012980886311707827,-0.03329215548179184,0.36302000000000006,0.0371,-0.41664000000000007,1.5,7,0,0,0,0,6.803046875,63766,51.21427531680333,1008.5813515388077,0,,,,N/A
2024-03-23T21:48:59,-1.78564386525,-0.6771687957999999,9.999007439749999,0.03375030441044035,0.011301006906663285,-0.03588833274413341,0.36554000000000003,0.027860000000000003,-0.42336,1.5,7,0,0,0,0,7.06125,70418,51.36086053564063,1008.5796878838623,0,,,,N/A
2024-03-23T21:48:59,-1.79282233305,-0.6777670014499999,9.934401229549998,0.036804630601430424,0.013439035240356337,-0.03375030441044035,0.36274,0.034300000000000004,-0.41734000000000004,1.5,7,0,0,0,0,7.06125,70418,51.36086053564063,1008.5796878838623,0,,,,N/A
2024-03-23T21:48:59,-1.7874384822,-0.6819544409999999,9.986445121099997,0.03329215548179184,0.00946841119206924,-0.03252857393404432,0.36134000000000005,0.030100000000000002,-0.41832,1.5,7,0,0,0,0,7.06125,70418,51.36086053564063,1008.5796878838623,0,,,,N/A
2024-03-23T21:48:59,-1.8083756799499997,-0.7010970218,10.0235338714,0.03390302071998985,0.016798794050445424,-0.03252857393404432,0.36134000000000005,0.030100000000000002,-0.41832,1.5,7,0,0,0,0,7.06125,70418,51.36086053564063,1008.5796878838623,0,,,,N/A
2024-03-23T21:48:59,-1.7796618087499998,-0.6771687957999999,9.9972128228,0.03207042500539581,0.01114829059711378,-0.030237829290801762,0.36190000000000005,0.04018000000000001,-0.41552000000000006,1.5,7,0,0,0,0,7.06125,70418,51.36086053564063,1008.5796878838623,0,,,,N/A
2024-03-23T21:48:59,-1.7670994901,-0.6771687957999999,10.015757197949998,0.03420845333908886,0.013133602621257331,-0.0355829001250344,0.36694000000000004,0.025060000000000002,-0.41006000000000004,1.5,7,0,0,0,0,7.06125,70418,51.36086053564063,1008.5796878838623,0,,,,N/A
2024-03-23T21:48:59,-1.7736797522499999,-0.68494546925,9.94756175385,0.03405573702953936,0.008399397025222712,-0.03497203488683638,0.36694000000000004,0.025060000000000002,-0.41006000000000004,1.5,7,0,0,0,0,7.4380078125,78474,51.46433820737104,1008.5823615954799,0,,,,N/A
2024-03-23T21:48:59,-1.7443676754,-0.65982083195,10.033105161799998,0.03283400655314333,0.016798794050445424,-0.03329215548179184,0.36050000000000004,0.03178,-0.41020000000000006,1.5,7,2,1,1,3,7.4380078125,78474,51.46433820737104,1008.5823615954799,0,,,,N/A
2024-03-23T21:48:59,-1.8340985228999995,-0.6508477471999999,10.0163554036,0.03298672286269283,0.010231992739816757,-0.031459559767197796,0.3647,0.029540000000000004,-0.41440000000000005,1.5,7,2,1,1,3,7.4380078125,78474,51.46433820737104,1008.5823615954799,0,,,,N/A
2024-03-23T21:48:59,-1.7742779578999996,-0.6699903279999999,9.97388280245,0.03588833274413341,0.014202616788103858,-0.03359758810089085,0.37002,0.030660000000000003,-0.42224000000000006,1.5,7,2,1,1,3,7.4380078125,78474,51.46433820737104,1008.5823615954799,0,,,,N/A
2024-03-23T21:48:59,-1.8035900347499998,-0.6777670014499999,10.021739254449999,0.03466660226773738,0.011301006906663285,-0.03481931857728687,0.37002,0.030660000000000003,-0.42224000000000006,1.5,7,2,1,1,3,7.4380078125,78474,51.46433820737104,1008.5823615954799,0,,,,N/A
2024-03-23T21:48:59,-1.7910277161,-0.68494546925,10.007382318849999,0.03390302071998985,0.011759155835311796,-0.031764992386296806,0.36218,0.027300000000000005,-0.41538,1.5,7,2,1,1,3,7.4380078125,78474,51.46433820737104,1008.5823615954799,0,,,,N/A
2024-03-23T21:48:59,-1.78564386525,-0.6897311144499999,9.9876415324,0.03588833274413341,0.013439035240356337,-0.02977968036215325,0.36638000000000004,0.02926,-0.41552000000000006,1.5,7,2,1,1,3,7.839375,85992,51.58963362488314,1008.6013638092095,0,,,,N/A
2024-03-23T21:48:59,-1.7353945906499997,-0.6945167596499999,9.990632560649999,0.03481931857728687,0.010842857978014774,-0.030237829290801762,0.36750000000000005,0.027860000000000003,-0.4060000000000001,1.5,7,2,1,1,3,7.839375,85992,51.58963362488314,1008.6013638092095,0,,,,N/A
2024-03-23T21:48:59,-1.8149559420999999,-0.66819571105,9.993025383249998,0.03481931857728687,0.0070249502392771765,-0.03359758810089085,0.36750000000000005,0.027860000000000003,-0.4060000000000001,1.5,7,2,1,1,3,7.839375,85992,51.58963362488314,1008.6013638092095,0,,,,N/A
2024-03-23T21:48:59,-1.7892330991499998,-0.6735795618999999,9.972088185499999,0.03420845333908886,0.010079276430267254,-0.0357356164345839,0.36834000000000006,0.025060000000000002,-0.41496000000000005,1.5,7,2,1,1,3,7.839375,85992,51.58963362488314,1008.6013638092095,0,,,,N/A
2024-03-23T21:48:59,-1.76171563925,-0.66819571105,9.9876415324,0.036804630601430424,0.010231992739816757,-0.03451388595818787,0.36610000000000004,0.030380000000000004,-0.41734000000000004,1.5,7,2,1,1,3,7.839375,85992,51.58963362488314,1008.6013638092095,0,,,,N/A
2024-03-23T21:48:59,-1.7958133612999998,-0.6771687957999999,9.9565348386,0.03344487179134134,0.0119118721448613,-0.0355829001250344,0.36610000000000004,0.030380000000000004,-0.41734000000000004,1.5,7,2,1,1,3,7.839375,85992,51.58963362488314,1008.6013638092095,0,,,,N/A
2024-03-23T21:48:59,-1.81435773645,-0.6556333924,9.9876415324,0.03466660226773738,0.010842857978014774,-0.03420845333908886,0.36526000000000003,0.03178,-0.40936,1.5,7,2,1,1,3,8.2208203125,92598,51.675512509223985,1008.6019487602197,0,,,,N/A
2024-03-23T21:48:59,-1.7892330991499998,-0.69212393705,10.06839929515,0.03375030441044035,0.013897184169004852,-0.03665191429188092,0.36526000000000003,0.027300000000000005,-0.40936,1.5,7,2,1,1,3,8.2208203125,92598,51.675512509223985,1008.6019487602197,0,,,,N/A
2024-03-23T21:48:59,-1.7826528369999999,-0.69092752575,10.015158992299998,0.03252857393404432,0.008704829644321718,-0.03588833274413341,0.36442,0.024500000000000004,-0.43036,1.5,7,2,1,1,3,8.2208203125,92598,51.675512509223985,1008.6019487602197,0,,,,N/A
2024-03-23T21:48:59,-1.7670994901,-0.6568298036999999,10.01934643185,0.03924809155422249,0.0119118721448613,-0.038331793696925465,0.36442,0.024500000000000004,-0.43036,1.5,7,2,1,1,3,8.2208203125,92598,51.675512509223985,1008.6019487602197,0,,,,N/A
2024-03-23T21:48:59,-1.7736797522499999,-0.6628118601999999,10.0103733471,0.03588833274413341,0.011606439525762293,-0.03344487179134134,0.36666000000000004,0.02926,-0.40656000000000003,1.5,7,2,1,1,3,8.2208203125,92598,51.675512509223985,1008.6019487602197,0,,,,N/A
2024-03-23T21:48:59,-1.77128692965,-0.693918554,9.9469635482,0.03497203488683638,0.014202616788103858,-0.03237585762449482,0.36918,0.030660000000000003,-0.41804,1.5,7,2,1,1,3,8.2208203125,92598,51.675512509223985,1008.6019487602197,0,,,,N/A
2024-03-23T21:48:59,-1.8005990065,-0.693918554,10.02772131095,0.03451388595818787,0.01114829059711378,-0.030695978219450276,0.36918,0.030660000000000003,-0.41468000000000005,1.5,7,2,1,1,3,8.5661328125,97094,51.74512788275345,1008.6108515772414,0,,,,N/A
2024-03-23T21:48:59,-1.7844474539499997,-0.6795616184,10.010971552749998,0.03604104905368291,0.008399397025222712,-0.030237829290801762,0.36694000000000004,0.026180000000000002,-0.41538,1.5,7,2,1,1,3,8.5661328125,97094,51.74512788275345,1008.6108515772414,0,,,,N/A
2024-03-23T21:48:59,-1.7802600144,-0.6711867392999998,9.997811028449998,0.03390302071998985,0.012370021073509813,-0.03268129024359383,0.36162000000000005,0.02926,-0.4142600000000001,1.5,7,2,1,1,3,8.5661328125,97094,51.74512788275345,1008.6108515772414,0,,,,N/A
2024-03-23T21:48:59,-1.79521515565,-0.6951149652999999,9.977472036350001,0.03375030441044035,0.010384709049366262,-0.03283400655314333,0.36162000000000005,0.02926,-0.4142600000000001,1.5,7,2,1,1,3,8.5661328125,97094,51.74512788275345,1008.6108515772414,0,,,,N/A
2024-03-23T21:48:59,-1.7186448324499999,-0.6981059935499999,10.009176935799998,0.036499197982331415,0.012522737383059314,-0.031154127148098783,0.36806000000000005,0.019180000000000003,-0.40950000000000003,1.5,7,2,1,1,3,8.5661328125,97094,51.74512788275345,1008.6108515772414,0,,,,N/A
2024-03-23T21:48:59,-1.7742779578999996,-0.6927221427,9.9744810081,0.03543018381548489,0.011301006906663285,-0.02977968036215325,0.35966000000000004,0.027860000000000003,-0.41146000000000005,1.5,7,2,1,1,3,8.5661328125,97094,51.74512788275345,1008.6108515772414,0,,,,N/A
2024-03-23T21:48:59,-1.76889410705,-0.65264236415,10.007382318849999,0.03741549583962844,0.013439035240356337,-0.03054326190990077,0.36582000000000003,0.02562,-0.41622000000000003,1.5,7,2,1,1,3,8.871015625,103085,51.79790640499361,1008.6158517102274,0,,,,N/A
2024-03-23T21:49:00,-1.84067878505,-0.6843472635999999,10.048658508699999,0.03375030441044035,0.012980886311707827,-0.03420845333908886,0.36274,0.027300000000000005,-0.40348,1.5,7,2,1,1,3,8.871015625,103085,51.79790640499361,1008.6158517102274,0,,,,N/A
2024-03-23T21:49:00,-1.8041882403999998,-0.66221365455,9.9696953629,0.039095375244672985,0.008552113334772215,-0.03756821214917795,0.36274,0.027300000000000005,-0.40348,1.5,7,2,1,1,3,8.871015625,103085,51.79790640499361,1008.6158517102274,0,,,,N/A
2024-03-23T21:49:00,-1.76769769575,-0.6795616184,10.001998467999998,0.028405233576207715,0.008704829644321718,-0.03451388595818787,0.36414,0.029540000000000004,-0.41468000000000005,1.5,7,2,1,1,3,8.871015625,103085,51.79790640499361,1008.6158517102274,0,,,,N/A
2024-03-23T21:49:00,-1.7611174335999997,-0.6711867392999998,9.9984092341,0.03512475119638588,0.009621127501618741,-0.03283400655314333,0.35406000000000004,0.030940000000000002,-0.41300000000000003,1.5,7,2,1,1,3,8.871015625,103085,51.79790640499361,1008.6158517102274,0,,,,N/A
2024-03-23T21:49:00,-1.78564386525,-0.68614188055,10.001400262349998,0.03375030441044035,0.013744467859455347,-0.03344487179134134,0.3577,0.02646,-0.41076000000000007,1.5,7,2,1,1,3,8.871015625,103085,51.79790640499361,1008.6158517102274,0,,,,N/A
2024-03-23T21:49:00,-1.7994025952000001,-0.6777670014499999,10.0055877019,0.03405573702953936,0.012370021073509813,-0.03344487179134134,0.3577,0.02646,-0.41076000000000007,1.5,7,2,1,1,3,9.13546875,108035,51.85260301709552,1008.6136306520278,0,,,,N/A
2024-03-23T21:49:00,-1.8089738855999997,-0.6885347031499999,9.9984092341,0.03283400655314333,0.009926560120717751,-0.0319177086958463,0.36078000000000005,0.03234,-0.40740000000000004,1.5,7,2,1,1,3,9.13546875,108035,51.85260301709552,1008.6136306520278,0,,,,N/A
2024-03-23T21:49:00,-1.7988043895499997,-0.6915257314000001,9.979266653299998,0.03283400655314333,0.01145372321621279,-0.03344487179134134,0.35602000000000006,0.02114,-0.4019400000000001,1.5,7,2,1,1,3,9.13546875,108035,51.85260301709552,1008.6136306520278,0,,,,N/A
2024-03-23T21:49:00,-1.7886348934999998,-0.66939212235,9.9649097177,0.036193765363232405,0.01114829059711378,-0.036193765363232405,0.35602000000000006,0.02114,-0.4019400000000001,1.5,7,2,1,1,3,9.13546875,108035,51.85260301709552,1008.6136306520278,0,,,,N/A
2024-03-23T21:49:00,-1.7407784414999998,-0.6807580296999999,9.9696953629,0.038942658935123484,0.007788531787024696,-0.038331793696925465,0.36834000000000006,0.030940000000000002,-0.41594000000000003,1.5,7,2,1,1,3,9.13546875,108035,51.85260301709552,1008.6136306520278,0,,,,N/A
2024-03-23T21:49:00,-1.7814564256999998,-0.6771687957999999,9.993025383249998,0.03436116964863837,0.010842857978014774,-0.031459559767197796,0.36582000000000003,0.029540000000000004,-0.4118800000000001,1.5,7,2,1,1,3,9.13546875,108035,51.85260301709552,1008.6136306520278,0,,,,N/A
2024-03-23T21:49:00,-1.7922241274,-0.66819571105,10.006784113199998,0.03405573702953936,0.008246680715673207,-0.03634648167278191,0.36582000000000003,0.029540000000000004,-0.4118800000000001,1.5,7,2,1,1,3,9.36203125,112350,51.87803983321484,1008.6137774675243,0,,,,N/A
2024-03-23T21:49:00,-1.8616159827999998,-0.66341006585,10.0582297991,0.03329215548179184,0.005803219762881146,-0.03344487179134134,0.36134000000000005,0.027300000000000005,-0.42154,1.5,7,2,1,1,3,9.36203125,112350,51.87803983321484,1008.6137774675243,0,,,,N/A
2024-03-23T21:49:00,-1.7868402765499998,-0.6705885336499999,10.0175518149,0.03466660226773738,0.010231992739816757,-0.03222314131494531,0.36526000000000003,0.028700000000000003,-0.41076000000000007,1.5,7,2,1,1,3,9.36203125,112350,51.87803983321484,1008.6137774675243,0,,,,N/A
2024-03-23T21:49:00,-1.7581264053499999,-0.6867400861999999,10.024730282699998,0.03527746750593539,0.012675453692608819,-0.03298672286269283,0.36134000000000005,0.026740000000000003,-0.4060000000000001,1.5,7,2,1,1,3,9.36203125,112350,51.87803983321484,1008.6137774675243,0,,,,N/A
2024-03-23T21:49:00,-1.79282233305,-0.6957131709499998,9.9876415324,0.03665191429188092,0.00946841119206924,-0.03436116964863837,0.36134000000000005,0.026740000000000003,-0.4060000000000001,1.5,7,2,1,1,3,9.36203125,112350,51.87803983321484,1008.6137774675243,0,,,,N/A
2024-03-23T21:49:00,-1.7682959014,-0.6807580296999999,10.0295159279,0.029932396671702752,0.010995574287564279,-0.03436116964863837,0.36246000000000006,0.028980000000000002,-0.40516,1.5,7,2,1,1,3,9.36203125,112350,51.87803983321484,1008.6137774675243,0,,,,N/A
2024-03-23T21:49:00,-1.7778671918,-0.66221365455,9.994221794549999,0.03665191429188092,0.010995574287564279,-0.03466660226773738,0.36218,0.025340000000000005,-0.41524000000000005,1.5,7,2,1,1,3,9.36203125,112350,51.87803983321484,1008.6137774675243,0,,,,N/A
2024-03-23T21:49:00,-1.78325104265,-0.6831508522999998,10.012167964049999,0.03451388595818787,0.010384709049366262,-0.031154127148098783,0.36218,0.025340000000000005,-0.41524000000000005,1.5,7,2,1,1,3,9.5579296875,116944,51.88753086482664,1008.6232732545905,0,,,,N/A
2024-03-23T21:49:00,-1.7730815465999998,-0.6687939166999999,10.004391290600001,0.03313943917224234,0.014813482026301873,-0.036193765363232405,0.35742,0.034300000000000004,-0.41706000000000004,1.5,7,2,1,1,3,9.5579296875,116944,51.88753086482664,1008.6232732545905,0,,,,N/A
2024-03-23T21:49:00,-1.79162592175,-0.7076772839499998,10.062417238649997,0.03802636107782646,0.012064588454410803,-0.03588833274413341,0.35742,0.034300000000000004,-0.41706000000000004,1.5,7,2,1,1,3,9.5579296875,116944,51.88753086482664,1008.6232732545905,0,,,,N/A
2024-03-23T21:49:00,-1.77128692965,-0.6735795618999999,9.967302540299999,0.03726277953007894,0.012217304763960308,-0.03604104905368291,0.3577,0.02338,-0.41202000000000005,1.5,7,2,1,1,3,9.5579296875,116944,51.88753086482664,1008.6232732545905,0,,,,N/A
2024-03-23T21:49:00,-1.76410846185,-0.6759723844999999,9.985248709799999,0.03359758810089085,0.009773843811168246,-0.03375030441044035,0.35686,0.024220000000000002,-0.41748,1.5,7,2,1,1,3,9.5579296875,116944,51.88753086482664,1008.6232732545905,0,,,,N/A
2024-03-23T21:49:00,-1.78085822005,-0.67417776755,10.0103733471,0.03604104905368291,0.010384709049366262,-0.03451388595818787,0.35686,0.024220000000000002,-0.41748,1.5,7,2,1,1,3,9.5579296875,116944,51.88753086482664,1008.6232732545905,0,,,,N/A
2024-03-23T21:49:00,-1.7838492482999997,-0.7010970218,9.9876415324,0.03329215548179184,0.013133602621257331,-0.03634648167278191,0.35406000000000004,0.01974,-0.41566000000000003,1.5,7,2,1,1,3,9.7251171875,120364,51.91268970478394,1008.6298227041109,0,,,,N/A
2024-03-23T21:49:00,-1.8801603579499997,-0.6658028884499999,10.034899778749999,0.03344487179134134,0.014813482026301873,-0.03405573702953936,0.3703,0.029540000000000004,-0.41048,1.5,7,2,1,1,3,9.7251171875,120364,51.91268970478394,1008.6298227041109,0,,,,N/A
2024-03-23T21:49:00,-1.77726898615,-0.6831508522999998,10.0163554036,0.0355829001250344,0.012675453692608819,-0.03329215548179184,0.36974,0.02758,-0.41608000000000006,1.5,7,2,1,1,3,9.7251171875,120364,51.91268970478394,1008.6298227041109,0,,,,N/A
2024-03-23T21:49:00,-1.80717926865,-0.6717849449499999,10.08036340815,0.03756821214917795,0.011759155835311796,-0.03252857393404432,0.36974,0.02758,-0.41608000000000006,1.5,7,2,1,1,3,9.7251171875,120364,51.91268970478394,1008.6298227041109,0,,,,N/A
2024-03-23T21:49:00,-1.83110749465,-0.6957131709499998,10.021739254449999,0.03604104905368291,0.012370021073509813,-0.030390545600351267,0.36750000000000005,0.022820000000000003,-0.41048,1.5,7,2,1,1,3,9.7251171875,120364,51.91268970478394,1008.6298227041109,0,,,,N/A
2024-03-23T21:49:00,-1.7874384822,-0.6831508522999998,10.007980524499999,0.03741549583962844,0.007941248096574201,-0.03466660226773738,0.36414,0.029820000000000003,-0.40432000000000007,1.5,7,2,1,1,3,9.7251171875,120364,51.91268970478394,1008.6298227041109,0,,,,N/A
2024-03-23T21:49:00,-1.8005990065,-0.69212393705,9.999605645399999,0.03436116964863837,0.008552113334772215,-0.03329215548179184,0.36414,0.029820000000000003,-0.40432000000000007,1.5,7,2,1,1,3,9.7251171875,120364,51.91268970478394,1008.6298227041109,0,,,,N/A
2024-03-23T21:49:00,-1.7030914855499997,-0.67896341275,9.981659475899999,0.03604104905368291,0.012064588454410803,-0.0355829001250344,0.36554000000000003,0.022260000000000002,-0.4019400000000001,1.5,7,2,1,1,3,9.8692578125,124264,51.922710194181924,1008.6342566423114,0,,,,N/A
2024-03-23T21:49:00,-1.75214434885,-0.6765705901499999,9.972088185499999,0.03481931857728687,0.01145372321621279,-0.03405573702953936,0.36638000000000004,0.02338,-0.4207,1.5,7,2,1,1,3,9.8692578125,124264,51.922710194181924,1008.6342566423114,0,,,,N/A
2024-03-23T21:49:00,-1.7700905183499998,-0.6855436748999999,9.972686391149999,0.03237585762449482,0.010079276430267254,-0.03252857393404432,0.36610000000000004,0.026740000000000003,-0.41314000000000006,1.5,7,2,1,1,3,9.8692578125,124264,51.922710194181924,1008.6342566423114,0,,,,N/A
2024-03-23T21:49:00,-1.77128692965,-0.6951149652999999,9.9972128228,0.03695734691097993,0.007177666548826681,-0.03604104905368291,0.35882000000000003,0.0315,-0.41468000000000005,1.5,7,2,1,1,3,9.8692578125,124264,51.922710194181924,1008.6342566423114,0,,,,N/A
2024-03-23T21:49:00,-1.79282233305,-0.68135623535,9.9756774194,0.029932396671702752,0.013286318930806834,-0.036499197982331415,0.35882000000000003,0.0315,-0.41468000000000005,1.5,7,2,1,1,3,9.8692578125,124264,51.922710194181924,1008.6342566423114,0,,,,N/A
2024-03-23T21:49:00,-1.7994025952000001,-0.7064808726499999,9.999605645399999,0.031764992386296806,0.009315694882519735,-0.031764992386296806,0.36918,0.02646,-0.40334000000000003,1.5,7,2,1,1,3,9.8692578125,124264,51.922710194181924,1008.6342566423114,0,,,,N/A
2024-03-23T21:49:00,-1.7796618087499998,-0.6837490579499998,9.9744810081,0.03313943917224234,0.010384709049366262,-0.03527746750593539,0.36946,0.029540000000000004,-0.41104,1.5,7,2,1,1,3,9.991328125,127841,51.89252896649778,1008.6365093327395,0,,,,N/A
2024-03-23T21:49:01,-1.79521515565,-0.6777670014499999,9.963713306399999,0.03405573702953936,0.009621127501618741,-0.03497203488683638,0.36414,0.03122,-0.4116,1.5,7,2,1,1,3,9.991328125,127841,51.89252896649778,1008.6365093327395,0,,,,N/A
2024-03-23T21:49:01,-1.78564386525,-0.6897311144499999,9.981061270249999,0.03268129024359383,0.012370021073509813,-0.03665191429188092,0.36414,0.03122,-0.4116,1.5,7,2,1,1,3,9.991328125,127841,51.89252896649778,1008.6365093327395,0,,,,N/A
2024-03-23T21:49:01,-1.7802600144,-0.68494546925,10.001400262349998,0.036804630601430424,0.009621127501618741,-0.03283400655314333,0.3647,0.02646,-0.41524000000000005,1.5,7,2,1,1,3,9.991328125,127841,51.89252896649778,1008.6365093327395,0,,,,N/A
2024-03-23T21:49:01,-1.7371892076,-0.7064808726499999,9.93799046345,0.03543018381548489,0.01069014166846527,-0.03054326190990077,0.36638000000000004,0.029820000000000003,-0.4081,1.5,7,2,1,1,3,9.991328125,127841,51.89252896649778,1008.6365093327395,0,,,,N/A
2024-03-23T21:49:01,-1.80119721215,-0.6855436748999999,10.01934643185,0.038331793696925465,0.014508049407202865,-0.03604104905368291,0.36638000000000004,0.029820000000000003,-0.4081,1.5,7,2,1,1,3,9.991328125,127841,51.89252896649778,1008.6365093327395,0,,,,N/A
2024-03-23T21:49:01,-1.8035900347499998,-0.69212393705,10.0103733471,0.03466660226773738,0.014202616788103858,-0.03451388595818787,0.36974,0.032900000000000006,-0.42182000000000003,1.5,7,2,1,1,3,10.0962109375,130915,51.89185175419367,1008.6343357225694,0,,,,N/A
2024-03-23T21:49:01,-1.78325104265,-0.66699929975,10.039685423949999,0.03344487179134134,0.012828170002158324,-0.031459559767197796,0.36722000000000005,0.024220000000000002,-0.42252000000000006,1.5,7,2,1,1,3,10.0962109375,130915,51.89185175419367,1008.6343357225694,0,,,,N/A
2024-03-23T21:49:01,-1.7694923126999997,-0.6765705901499999,10.0163554036,0.03359758810089085,0.010384709049366262,-0.03741549583962844,0.36722000000000005,0.024220000000000002,-0.42252000000000006,1.5,7,2,1,1,3,10.0962109375,130915,51.89185175419367,1008.6343357225694,0,,,,N/A
2024-03-23T21:49:01,-1.7557335827499998,-0.6705885336499999,10.146764235300001,0.03207042500539581,0.010537425358915765,-0.03802636107782646,0.35798,0.02926,-0.42056000000000004,1.5,7,2,1,1,3,10.0962109375,130915,51.89185175419367,1008.6343357225694,0,,,,N/A
2024-03-23T21:49:01,-1.8077774742999997,-0.6933203483499999,10.02772131095,0.03543018381548489,0.014508049407202865,-0.04016438941151951,0.36246000000000006,0.025340000000000005,-0.41874000000000006,1.5,7,2,1,1,3,10.0962109375,130915,51.89185175419367,1008.6343357225694,0,,,,N/A
2024-03-23T21:49:01,-1.76650128445,-0.68733829185,9.98943614935,0.041080687268816536,0.012217304763960308,-0.03527746750593539,0.36246000000000006,0.025340000000000005,-0.41874000000000006,1.5,7,2,1,1,3,10.0962109375,130915,51.89185175419367,1008.6343357225694,0,,,,N/A
2024-03-23T21:49:01,-1.7934205386999997,-0.6777670014499999,9.9529456047,0.03207042500539581,0.013439035240356337,-0.028710666195306725,0.36946,0.03374,-0.4054400000000001,1.5,7,2,1,1,3,10.1887890625,132874,51.85835035457805,1008.6376538124882,0,,,,N/A
2024-03-23T21:49:01,-1.8000008008500001,-0.6699903279999999,9.940383286049999,0.0357356164345839,0.010537425358915765,-0.03665191429188092,0.36274,0.02758,-0.42266000000000004,1.5,7,2,1,1,3,10.1887890625,132874,51.85835035457805,1008.6376538124882,0,,,,N/A
2024-03-23T21:49:01,-1.76171563925,-0.68494546925,9.984052298499998,0.03481931857728687,0.014355333097653362,-0.03298672286269283,0.36106000000000005,0.025340000000000005,-0.40572,1.5,7,2,1,1,3,10.1887890625,132874,51.85835035457805,1008.6376538124882,0,,,,N/A
2024-03-23T21:49:01,-1.7599210222999997,-0.65742800935,9.9684989516,0.03481931857728687,0.005803219762881146,-0.03420845333908886,0.36106000000000005,0.025340000000000005,-0.40572,1.5,7,2,1,1,3,10.1887890625,132874,51.85835035457805,1008.6376538124882,0,,,,N/A
2024-03-23T21:49:01,-1.7575281996999998,-0.6711867392999998,10.0893364929,0.03207042500539581,0.011606439525762293,-0.03298672286269283,0.35854,0.022260000000000002,-0.42014000000000007,1.5,7,2,1,1,3,10.1887890625,132874,51.85835035457805,1008.6376538124882,0,,,,N/A
2024-03-23T21:49:01,-1.7820546313499999,-0.66341006585,10.006185907549998,0.03604104905368291,0.0119118721448613,-0.03466660226773738,0.3633,0.030660000000000003,-0.4081,1.5,7,2,1,1,3,10.1887890625,132874,51.85835035457805,1008.6376538124882,0,,,,N/A
2024-03-23T21:49:01,-1.78325104265,-0.65144595285,9.99661461715,0.038789942625573975,0.010537425358915765,-0.041080687268816536,0.35658000000000006,0.028980000000000002,-0.4054400000000001,1.5,7,2,1,1,3,10.268671875,134462,51.8234172655149,1008.638868746066,0,,,,N/A
2024-03-23T21:49:01,-1.80119721215,-0.6999006105,10.02652489965,0.0316122760767473,0.009926560120717751,-0.03344487179134134,0.36498,0.02254,-0.41706000000000004,1.5,7,2,1,1,3,10.268671875,134462,51.8234172655149,1008.638868746066,0,,,,N/A
2024-03-23T21:49:01,-1.78564386525,-0.6699903279999999,10.008578730149999,0.03451388595818787,0.008552113334772215,-0.03375030441044035,0.36218,0.027300000000000005,-0.41748,1.5,7,2,1,1,3,10.268671875,134462,51.8234172655149,1008.638868746066,0,,,,N/A
2024-03-23T21:49:01,-1.7593228166499997,-0.68135623535,9.995418205850001,0.03405573702953936,0.009621127501618741,-0.036804630601430424,0.36386,0.02478,-0.42056000000000004,1.5,7,2,1,1,3,10.268671875,134462,51.8234172655149,1008.638868746066,0,,,,N/A
2024-03-23T21:49:01,-1.7545371714499998,-0.6897311144499999,10.007382318849999,0.03466660226773738,0.0119118721448613,-0.03283400655314333,0.36386,0.02478,-0.42056000000000004,1.5,7,2,1,1,3,10.268671875,134462,51.8234172655149,1008.638868746066,0,,,,N/A
2024-03-23T21:49:01,-1.7958133612999998,-0.6999006105,9.99661461715,0.037110063220529434,0.012828170002158324,-0.037110063220529434,0.36610000000000004,0.028700000000000003,-0.41538,1.5,7,2,1,1,3,10.268671875,134462,51.8234172655149,1008.638868746066,0,,,,N/A
2024-03-23T21:49:01,-1.7934205386999997,-0.6879364974999999,10.000203851049998,0.036804630601430424,0.00946841119206924,-0.03313943917224234,0.36834000000000006,0.016380000000000002,-0.41300000000000003,1.5,7,2,1,1,3,10.338203125,138320,51.806175280757316,1008.640167516545,0,,,,N/A
2024-03-23T21:49:01,-1.7934205386999997,-0.6903293201,9.961320483799998,0.036499197982331415,0.010995574287564279,-0.036193765363232405,0.3647,0.032060000000000005,-0.41314000000000006,1.5,7,2,1,1,3,10.338203125,138320,51.806175280757316,1008.640167516545,0,,,,N/A
2024-03-23T21:49:01,-1.8370895511499998,-0.6807580296999999,10.010971552749998,0.03436116964863837,0.013897184169004852,-0.03451388595818787,0.3647,0.032060000000000005,-0.41314000000000006,1.5,7,2,1,1,3,10.338203125,138320,51.806175280757316,1008.640167516545,0,,,,N/A
2024-03-23T21:49:01,-1.7760725748500001,-0.6717849449499999,9.980463064599999,0.03481931857728687,0.009621127501618741,-0.03527746750593539,0.37002,0.026180000000000002,-0.40936,1.5,7,2,1,1,3,10.338203125,138320,51.806175280757316,1008.640167516545,0,,,,N/A
2024-03-23T21:49:01,-1.8149559420999999,-0.6747759731999999,9.994820000199999,0.03604104905368291,0.0119118721448613,-0.03695734691097993,0.36554000000000003,0.02842,-0.42112000000000005,1.5,7,2,1,1,3,10.338203125,138320,51.806175280757316,1008.640167516545,0,,,,N/A
2024-03-23T21:49:01,-1.7647066674999998,-0.66699929975,10.01934643185,0.07635815477475191,0.014202616788103858,-0.0355829001250344,0.36554000000000003,0.02842,-0.42112000000000005,1.5,7,2,1,1,3,10.338203125,138320,51.806175280757316,1008.640167516545,0,,,,N/A
2024-03-23T21:49:01,-1.7754743692000001,-0.6831508522999998,10.039087218299999,0.03604104905368291,0.009621127501618741,-0.03924809155422249,0.36526000000000003,0.04326000000000001,-0.4123,1.5,7,2,1,1,3,10.338203125,138320,51.806175280757316,1008.640167516545,0,,,,N/A
2024-03-23T21:49:01,-1.7365910019499997,-0.65623159805,9.963115100749999,0.03329215548179184,0.008246680715673207,-0.03481931857728687,0.36302000000000006,0.032900000000000006,-0.42098,1.5,7,2,1,1,3,10.400703125,139233,51.75671036042094,1008.648845121917,0,,,,N/A
2024-03-23T21:49:01,-1.7892330991499998,-0.66939212235,10.0295159279,0.04001167310197001,0.012217304763960308,-0.03405573702953936,0.36442,0.026740000000000003,-0.42266000000000004,1.5,7,2,1,1,3,10.400703125,139233,51.75671036042094,1008.648845121917,0,,,,N/A
2024-03-23T21:49:02,-1.79162592175,-0.68135623535,9.963115100749999,0.03588833274413341,0.011759155835311796,-0.03375030441044035,0.36582000000000003,0.034300000000000004,-0.42084000000000005,1.5,7,2,1,1,3,10.400703125,139233,51.75671036042094,1008.648845121917,0,,,,N/A
2024-03-23T21:49:02,-1.7886348934999998,-0.6855436748999999,9.97866844765,0.03466660226773738,0.007941248096574201,-0.031154127148098783,0.36862000000000006,0.025340000000000005,-0.40670000000000006,1.5,7,2,1,1,3,10.400703125,139233,51.75671036042094,1008.648845121917,0,,,,N/A
2024-03-23T21:49:02,-1.76410846185,-0.68614188055,9.9397850804,0.03481931857728687,0.010995574287564279,-0.03588833274413341,0.36862000000000006,0.025340000000000005,-0.40670000000000006,1.5,7,2,1,1,3,10.400703125,139233,51.75671036042094,1008.648845121917,0,,,,N/A
2024-03-23T21:49:02,-1.7778671918,-0.6903293201,9.98225768155,0.036499197982331415,0.010079276430267254,-0.03405573702953936,0.36526000000000003,0.030940000000000002,-0.42406000000000005,1.5,7,2,1,1,3,10.400703125,139233,51.75671036042094,1008.648845121917,0,,,,N/A
2024-03-23T21:49:02,-1.7778671918,-0.66460647715,9.839286531199999,0.03634648167278191,0.011301006906663285,-0.03436116964863837,0.36974,0.03122,-0.41300000000000003,1.5,7,2,1,1,3,10.4551953125,141332,51.71891523436589,1008.6476148091388,0,,,,N/A
2024-03-23T21:49:02,-1.7730815465999998,-0.7028916387499999,9.96072227815,0.03436116964863837,0.013133602621257331,-0.03359758810089085,0.36694000000000004,0.029540000000000004,-0.42028000000000004,1.5,7,2,1,1,3,10.4551953125,141332,51.71891523436589,1008.6476148091388,0,,,,N/A
2024-03-23T21:49:02,-1.79162592175,-0.6699903279999999,9.9469635482,0.0316122760767473,0.010537425358915765,-0.03390302071998985,0.36554000000000003,0.027020000000000002,-0.41944000000000004,1.5,7,2,1,1,3,10.4551953125,141332,51.71891523436589,1008.6476148091388,0,,,,N/A
2024-03-23T21:49:02,-1.7653048731499998,-0.6831508522999998,9.9684989516,0.03604104905368291,0.007635815477475193,-0.03222314131494531,0.36638000000000004,0.024220000000000002,-0.41608000000000006,1.5,7,2,1,1,3,10.4551953125,141332,51.71891523436589,1008.6476148091388,0,,,,N/A
2024-03-23T21:49:02,-1.7575281996999998,-0.69212393705,9.92482993915,0.03466660226773738,0.009010262263420728,-0.03359758810089085,0.36638000000000004,0.024220000000000002,-0.41608000000000006,1.5,7,2,1,1,3,10.4551953125,141332,51.71891523436589,1008.6476148091388,0,,,,N/A
2024-03-23T21:49:02,-1.8000008008500001,-0.68733829185,10.001400262349998,0.03420845333908886,0.012217304763960308,-0.03604104905368291,0.36218,0.033460000000000004,-0.4151,1.5,7,2,1,1,3,10.4551953125,141332,51.71891523436589,1008.6476148091388,0,,,,N/A
2024-03-23T21:49:02,-1.7365910019499997,-0.6777670014499999,9.991230766299998,0.03497203488683638,0.01069014166846527,-0.0357356164345839,0.3633,0.028700000000000003,-0.42742,1.5,7,2,1,1,3,10.5032421875,142766,51.661546563230814,1008.6443106544236,0,,,,N/A
2024-03-23T21:49:02,-1.75334076015,-0.68494546925,10.098907783299998,0.03634648167278191,0.013439035240356337,-0.0319177086958463,0.36106000000000005,0.020020000000000003,-0.4089400000000001,1.5,7,2,1,1,3,10.5032421875,142766,51.661546563230814,1008.6443106544236,0,,,,N/A
2024-03-23T21:49:02,-1.7814564256999998,-0.6735795618999999,10.034301573099999,0.03604104905368291,0.013439035240356337,-0.030390545600351267,0.36106000000000005,0.020020000000000003,-0.41972000000000004,1.5,7,2,1,1,3,10.5032421875,142766,51.661546563230814,1008.6443106544236,0,,,,N/A
2024-03-23T21:49:02,-1.7766707805,-0.6999006105,9.9984092341,0.03420845333908886,0.013744467859455347,-0.037110063220529434,0.35546000000000005,0.023660000000000004,-0.41972000000000004,1.5,7,2,1,1,3,10.5032421875,142766,51.661546563230814,1008.6443106544236,0,,,,N/A
2024-03-23T21:49:02,-1.7670994901,-0.6735795618999999,9.985248709799999,0.03436116964863837,0.007483099167925688,-0.03420845333908886,0.36778000000000005,0.02338,-0.41804,1.5,7,2,1,1,3,10.5032421875,142766,51.661546563230814,1008.6443106544236,0,,,,N/A
2024-03-23T21:49:02,-1.7796618087499998,-0.67417776755,9.934401229549998,0.03512475119638588,0.01069014166846527,-0.03420845333908886,0.36358,0.018900000000000004,-0.42154,1.5,7,2,1,1,3,10.5032421875,142766,51.661546563230814,1008.6443106544236,0,,,,N/A
2024-03-23T21:49:02,-1.7718851352999998,-0.6867400861999999,9.986445121099997,0.03222314131494531,0.010384709049366262,-0.03375030441044035,0.36358,0.018900000000000004,-0.42154,1.5,7,2,1,1,3,10.5471875,144726,51.59744716696337,1008.6463313653521,0,,,,N/A
2024-03-23T21:49:02,-1.7545371714499998,-0.6735795618999999,9.936195846499999,0.03252857393404432,0.014049900478554353,-0.03298672286269283,0.36554000000000003,0.01694,-0.42392,1.5,7,2,1,1,3,10.5471875,144726,51.59744716696337,1008.6463313653521,0,,,,N/A
2024-03-23T21:49:02,-1.77128692965,-0.6891329087999999,10.010971552749998,0.03527746750593539,0.013133602621257331,-0.03390302071998985,0.36610000000000004,0.02646,-0.40404,1.5,7,2,1,1,3,10.5471875,144726,51.59744716696337,1008.6463313653521,0,,,,N/A
2024-03-23T21:49:02,-1.7850456595999997,-0.6705885336499999,9.984052298499998,0.03222314131494531,0.008093964406123704,-0.03497203488683638,0.36050000000000004,0.024500000000000004,-0.42168000000000005,1.5,7,2,1,1,3,10.5471875,144726,51.59744716696337,1008.6463313653521,0,,,,N/A
2024-03-23T21:49:02,-1.7509479375499997,-0.6520441584999999,9.9732845968,0.03130684345764829,0.012217304763960308,-0.03466660226773738,0.36050000000000004,0.024500000000000004,-0.42168000000000005,1.5,7,2,1,1,3,10.5471875,144726,51.59744716696337,1008.6463313653521,0,,,,N/A
2024-03-23T21:49:02,-1.7838492482999997,-0.68015982405,9.972088185499999,0.03497203488683638,0.008246680715673207,-0.03130684345764829,0.36554000000000003,0.01974,-0.41748,1.5,7,2,1,1,3,10.5471875,144726,51.59744716696337,1008.6463313653521,0,,,,N/A
2024-03-23T21:49:02,-1.81435773645,-0.6891329087999999,9.9529456047,0.038942658935123484,0.010995574287564279,-0.03451388595818787,0.36610000000000004,0.029540000000000004,-0.41034000000000004,1.5,7,2,1,1,3,10.585859375,146104,51.55788379908225,1008.6465013388001,0,,,,N/A
2024-03-23T21:49:02,-1.8335003172499997,-0.6675975054,9.96909715725,0.03344487179134134,0.010842857978014774,-0.03130684345764829,0.36190000000000005,0.029820000000000003,-0.42658,1.5,7,2,1,1,3,10.585859375,146104,51.55788379908225,1008.6465013388001,0,,,,N/A
2024-03-23T21:49:02,-1.77128692965,-0.68494546925,9.9972128228,0.03787364476827696,0.010384709049366262,-0.03390302071998985,0.36106000000000005,0.03234,-0.43624000000000007,1.5,7,2,1,1,3,10.585859375,146104,51.55788379908225,1008.6465013388001,0,,,,N/A
2024-03-23T21:49:02,-1.8275182607499998,-0.6933203483499999,9.954740221649999,0.03207042500539581,0.008704829644321718,-0.03756821214917795,0.36190000000000005,0.02646,-0.41720000000000007,1.5,7,2,1,1,3,10.585859375,146104,51.55788379908225,1008.6465013388001,0,,,,N/A
2024-03-23T21:49:02,-1.7766707805,-0.68015982405,10.0055877019,0.03359758810089085,0.010842857978014774,-0.03512475119638588,0.36190000000000005,0.03262,-0.4186,1.5,7,2,1,1,3,10.585859375,146104,51.55788379908225,1008.6465013388001,0,,,,N/A
2024-03-23T21:49:02,-1.7850456595999997,-0.6705885336499999,10.0295159279,0.03787364476827696,0.01114829059711378,-0.03390302071998985,0.36386,0.03262,-0.4186,1.5,7,2,1,1,3,10.585859375,146104,51.55788379908225,1008.6465013388001,0,,,,N/A
2024-03-23T21:49:02,-1.7820546313499999,-0.67298135625,9.9972128228,0.03726277953007894,0.010231992739816757,-0.03527746750593539,0.3647,0.038220000000000004,-0.42322000000000004,1.5,7,2,1,1,3,10.6212109375,147123,51.499117722537854,1008.6533066307225,0,,,,N/A
2024-03-23T21:49:02,-1.7886348934999998,-0.6723831505999999,10.0558369765,0.03695734691097993,0.009621127501618741,-0.03451388595818787,0.36162000000000005,0.026180000000000002,-0.42294000000000004,1.5,7,2,1,1,3,10.6212109375,147123,51.499117722537854,1008.6533066307225,0,,,,N/A
2024-03-23T21:49:02,-1.7790636030999998,-0.6771687957999999,10.021141048799999,0.03313943917224234,0.0119118721448613,-0.03344487179134134,0.36162000000000005,0.026180000000000002,-0.42294000000000004,1.5,7,2,1,1,3,10.6212109375,147123,51.499117722537854,1008.6533066307225,0,,,,N/A
2024-03-23T21:49:02,-1.82632184945,-0.6825526466499999,9.9601240725,0.03466660226773738,0.007330382858376185,-0.030848694528999777,0.36414,0.028140000000000005,-0.41986,1.5,7,2,1,1,3,10.6212109375,147123,51.499117722537854,1008.6533066307225,0,,,,N/A
2024-03-23T21:49:02,-1.7527425545,-0.6747759731999999,9.99182897195,0.03420845333908886,0.01114829059711378,-0.03375030441044035,0.36638000000000004,0.027860000000000003,-0.4207,1.5,7,2,1,1,3,10.6212109375,147123,51.499117722537854,1008.6533066307225,0,,,,N/A
2024-03-23T21:49:02,-1.7605192279499997,-0.6675975054,10.0031948793,0.0355829001250344,0.00916297857297023,-0.03420845333908886,0.36638000000000004,0.027860000000000003,-0.4207,1.5,7,2,1,1,3,10.6212109375,147123,51.499117722537854,1008.6533066307225,0,,,,N/A
2024-03-23T21:49:02,-1.78803668785,-0.66819571105,9.976873830699999,0.03237585762449482,0.007941248096574201,-0.03390302071998985,0.36386,0.035980000000000005,-0.41636,1.5,7,2,1,1,3,10.6212109375,147123,51.499117722537854,1008.6533066307225,0,,,,N/A
2024-03-23T21:49:02,-1.7479569092999998,-0.693918554,9.99182897195,0.03436116964863837,0.009010262263420728,-0.03634648167278191,0.35742,0.02562,-0.41986,1.5,7,2,1,1,3,10.6524609375,147897,51.452454215772576,1008.642813324454,0,,,,N/A
2024-03-23T21:49:03,-1.7970097725999998,-0.6652046827999999,10.001400262349998,0.03726277953007894,0.007788531787024696,-0.03420845333908886,0.36582000000000003,0.030660000000000003,-0.41916000000000003,1.5,7,2,1,1,3,10.6524609375,147897,51.452454215772576,1008.642813324454,0,,,,N/A
2024-03-23T21:49:03,-1.7706887239999998,-0.67298135625,9.997811028449998,0.03329215548179184,0.013591751549905842,-0.030848694528999777,0.36554000000000003,0.029540000000000004,-0.41202000000000005,1.5,7,2,1,1,3,10.6524609375,147897,51.452454215772576,1008.642813324454,0,,,,N/A
2024-03-23T21:49:03,-1.7826528369999999,-0.7046862557,9.957133044249998,0.03497203488683638,0.009773843811168246,-0.03543018381548489,0.36554000000000003,0.029540000000000004,-0.41202000000000005,1.5,7,2,1,1,3,10.6524609375,147897,51.452454215772576,1008.642813324454,0,,,,N/A
2024-03-23T21:49:03,-1.7503497318999997,-0.6640082714999999,10.000203851049998,0.03329215548179184,0.010842857978014774,-0.036193765363232405,0.36834000000000006,0.029820000000000003,-0.41972000000000004,1.5,7,2,1,1,3,10.6524609375,147897,51.452454215772576,1008.642813324454,0,,,,N/A
2024-03-23T21:49:03,-1.7802600144,-0.6831508522999998,9.991230766299998,0.03695734691097993,0.008552113334772215,-0.03436116964863837,0.36946,0.02562,-0.41342,1.5,7,2,1,1,3,10.6524609375,147897,51.452454215772576,1008.642813324454,0,,,,N/A
2024-03-23T21:49:03,-1.79042951045,-0.6652046827999999,10.0223374601,0.03329215548179184,0.008704829644321718,-0.03222314131494531,0.36946,0.02338,-0.4048800000000001,1.5,7,2,1,1,3,10.6524609375,147897,51.452454215772576,1008.642813324454,0,,,,N/A
2024-03-23T21:49:03,-1.8035900347499998,-0.693918554,10.013364375349997,0.03252857393404432,0.01114829059711378,-0.03313943917224234,0.36358,0.02338,-0.4048800000000001,1.5,7,2,1,1,3,10.6825390625,151074,51.37429897841559,1008.6425451829912,0,,,,N/A
2024-03-23T21:49:03,-1.7922241274,-0.6765705901499999,9.97627562505,0.03726277953007894,0.012370021073509813,-0.036193765363232405,0.36218,0.03514,-0.41174000000000005,1.5,7,2,1,1,3,10.6825390625,151074,51.37429897841559,1008.6425451829912,0,,,,N/A
2024-03-23T21:49:03,-1.79521515565,-0.65982083195,9.925428144799998,0.036804630601430424,0.0119118721448613,-0.03634648167278191,0.37198000000000003,0.030380000000000004,-0.4158,1.5,7,2,1,1,3,10.6825390625,151074,51.37429897841559,1008.6425451829912,0,,,,N/A
2024-03-23T21:49:03,-1.7910277161,-0.6975077879,9.94756175385,0.03527746750593539,0.009315694882519735,-0.03497203488683638,0.36526000000000003,0.026180000000000002,-0.40866,1.5,7,2,1,1,3,10.6825390625,151074,51.37429897841559,1008.6425451829912,0,,,,N/A
2024-03-23T21:49:03,-1.7790636030999998,-0.6819544409999999,9.994221794549999,0.0319177086958463,0.011759155835311796,-0.03344487179134134,0.36694000000000004,0.028140000000000005,-0.41328000000000004,1.5,7,2,1,1,3,10.6825390625,151074,51.37429897841559,1008.6425451829912,0,,,,N/A
2024-03-23T21:49:03,-1.8173487646999997,-0.6927221427,10.03729260135,0.03466660226773738,0.008704829644321718,-0.03329215548179184,0.36694000000000004,0.028140000000000005,-0.41328000000000004,1.5,7,2,1,1,3,10.6825390625,151074,51.37429897841559,1008.6425451829912,0,,,,N/A
2024-03-23T21:49:03,-1.8107685025499998,-0.68733829185,10.057033387799999,0.039858956792420505,0.01069014166846527,-0.03359758810089085,0.36946,0.025900000000000003,-0.42476,1.5,7,2,1,1,3,10.7102734375,152027,51.308450844425074,1008.6435832509629,0,,,,N/A
2024-03-23T21:49:03,-1.7970097725999998,-0.7004988161499999,9.981659475899999,0.03527746750593539,0.01145372321621279,-0.03588833274413341,0.37198000000000003,0.019180000000000003,-0.4389,1.5,7,2,1,1,3,10.7102734375,152027,51.308450844425074,1008.6435832509629,0,,,,N/A
2024-03-23T21:49:03,-1.8005990065,-0.6652046827999999,10.013364375349997,0.030237829290801762,0.013591751549905842,-0.03405573702953936,0.37198000000000003,0.021700000000000004,-0.41314000000000006,1.5,7,2,1,1,3,10.7102734375,152027,51.308450844425074,1008.6435832509629,0,,,,N/A
2024-03-23T21:49:03,-1.77846539745,-0.6885347031499999,9.936794052149999,0.03695734691097993,0.008857545953871223,-0.03420845333908886,0.36246000000000006,0.021700000000000004,-0.41314000000000006,1.5,7,2,1,1,3,10.7102734375,152027,51.308450844425074,1008.6435832509629,0,,,,N/A
2024-03-23T21:49:03,-1.79521515565,-0.6777670014499999,9.94277610865,0.03344487179134134,0.009926560120717751,-0.030390545600351267,0.36526000000000003,0.024220000000000002,-0.42462000000000005,1.5,7,2,1,1,3,10.7102734375,152027,51.308450844425074,1008.6435832509629,0,,,,N/A
2024-03-23T21:49:03,-1.79162592175,-0.6658028884499999,10.039685423949999,0.03405573702953936,0.008857545953871223,-0.03588833274413341,0.3703,0.02842,-0.4242,1.5,7,2,1,1,3,10.7102734375,152027,51.308450844425074,1008.6435832509629,0,,,,N/A
2024-03-23T21:49:03,-1.77128692965,-0.6837490579499998,9.98465050415,0.03802636107782646,0.009773843811168246,-0.031764992386296806,0.36050000000000004,0.020860000000000004,-0.42294000000000004,1.5,7,2,1,1,3,10.7348828125,153689,51.2548087371065,1008.6428830764693,0,,,,N/A
2024-03-23T21:49:03,-1.79521515565,-0.6807580296999999,10.012766169699999,0.03451388595818787,0.007330382858376185,-0.03466660226773738,0.35854,0.01694,-0.42056000000000004,1.5,7,2,1,1,3,10.7348828125,153689,51.2548087371065,1008.6428830764693,0,,,,N/A
2024-03-23T21:49:03,-1.7934205386999997,-0.6879364974999999,9.978070242,0.03130684345764829,0.009926560120717751,-0.03588833274413341,0.35854,0.023660000000000004,-0.42854000000000003,1.5,7,2,1,1,3,10.7348828125,153689,51.2548087371065,1008.6428830764693,0,,,,N/A
2024-03-23T21:49:03,-1.7629120505499998,-0.6604190375999999,10.05882800475,0.0357356164345839,0.010384709049366262,-0.03604104905368291,0.36302000000000006,0.022260000000000002,-0.41986,1.5,7,2,1,1,3,10.7348828125,153689,51.2548087371065,1008.6428830764693,0,,,,N/A
2024-03-23T21:49:03,-1.77846539745,-0.6604190375999999,9.967302540299999,0.03527746750593539,0.0119118721448613,-0.03222314131494531,0.36302000000000006,0.022260000000000002,-0.41986,1.5,7,2,1,1,3,10.7348828125,153689,51.2548087371065,1008.6428830764693,0,,,,N/A
2024-03-23T21:49:03,-1.7814564256999998,-0.6640082714999999,10.0235338714,0.0355829001250344,0.012522737383059314,-0.031154127148098783,0.35826,0.02254,-0.41734000000000004,1.5,7,2,1,1,3,10.7348828125,153689,51.2548087371065,1008.6428830764693,0,,,,N/A
2024-03-23T21:49:03,-1.7754743692000001,-0.66939212235,10.01456078665,0.03756821214917795,0.015271630954950386,-0.03405573702953936,0.36106000000000005,0.026180000000000002,-0.42196000000000006,1.5,7,2,1,1,3,10.7579296875,154533,51.201004030320206,1008.6465364653621,0,,,,N/A
2024-03-23T21:49:03,-1.7706887239999998,-0.6723831505999999,10.00498949625,0.03283400655314333,0.013133602621257331,-0.03543018381548489,0.37170000000000003,0.02758,-0.40586,1.5,7,2,1,1,3,10.7579296875,154533,51.201004030320206,1008.6465364653621,0,,,,N/A
2024-03-23T21:49:03,-1.8173487646999997,-0.693918554,9.93559764085,0.03283400655314333,0.014049900478554353,-0.030695978219450276,0.36498,0.030380000000000004,-0.41776,1.5,7,2,1,1,3,10.7579296875,154533,51.201004030320206,1008.6465364653621,0,,,,N/A
2024-03-23T21:49:03,-1.8185451759999998,-0.6825526466499999,9.976873830699999,0.03665191429188092,0.010842857978014774,-0.0355829001250344,0.36050000000000004,0.025060000000000002,-0.42210000000000003,1.5,7,2,1,1,3,10.7579296875,154533,51.201004030320206,1008.6465364653621,0,,,,N/A
2024-03-23T21:49:03,-1.78085822005,-0.6885347031499999,10.03848901265,0.03527746750593539,0.013286318930806834,-0.03268129024359383,0.36218,0.032060000000000005,-0.41020000000000006,1.5,7,2,1,1,3,10.7579296875,154533,51.201004030320206,1008.6465364653621,0,,,,N/A
2024-03-23T21:49:03,-1.8161523534,-0.66819571105,9.993025383249998,0.03665191429188092,0.011301006906663285,-0.03405573702953936,0.36218,0.032060000000000005,-0.41020000000000006,1.5,7,2,1,1,3,10.7579296875,154533,51.201004030320206,1008.6465364653621,0,,,,N/A
2024-03-23T21:49:03,-1.7958133612999998,-0.6897311144499999,9.99182897195,0.03375030441044035,0.010079276430267254,-0.029168815123955236,0.36246000000000006,0.020020000000000003,-0.41706000000000004,1.5,7,2,1,1,3,10.7790234375,157269,51.12193126731161,1008.6486684029769,0,,,,N/A
2024-03-23T21:49:03,-1.7653048731499998,-0.6879364974999999,9.966106128999998,0.036804630601430424,0.009621127501618741,-0.036193765363232405,0.36134000000000005,0.02058,-0.40950000000000003,1.5,7,2,1,1,3,10.7790234375,157269,51.12193126731161,1008.6486684029769,0,,,,N/A
2024-03-23T21:49:03,-1.7898313048,-0.66341006585,9.980463064599999,0.0319177086958463,0.0119118721448613,-0.03481931857728687,0.36134000000000005,0.02058,-0.40950000000000003,1.5,7,2,1,1,3,10.7790234375,157269,51.12193126731161,1008.6486684029769,0,,,,N/A
2024-03-23T21:49:03,-1.8017954178,-0.6837490579499998,10.0055877019,0.03512475119638588,0.00946841119206924,-0.036804630601430424,0.35854,0.03262,-0.41076000000000007,1.5,7,2,1,1,3,10.7790234375,157269,51.12193126731161,1008.6486684029769,0,,,,N/A
2024-03-23T21:49:04,-1.7910277161,-0.6777670014499999,9.992427177599998,0.03802636107782646,0.009621127501618741,-0.03298672286269283,0.36106000000000005,0.029540000000000004,-0.41244000000000003,1.5,7,2,1,1,3,10.7790234375,157269,51.12193126731161,1008.6486684029769,0,,,,N/A
2024-03-23T21:49:04,-1.8209379985999998,-0.6903293201,9.985248709799999,0.03344487179134134,0.0054977871437821395,-0.03390302071998985,0.35994000000000004,0.026180000000000002,-0.41552000000000006,1.5,7,2,1,1,3,10.7790234375,157269,51.12193126731161,1008.6486684029769,0,,,,N/A
2024-03-23T21:49:04,-1.7796618087499998,-0.6747759731999999,9.97627562505,0.03329215548179184,0.010231992739816757,-0.03481931857728687,0.35994000000000004,0.023660000000000004,-0.41384000000000004,1.5,7,2,1,1,3,10.799921875,156395,51.074183136129854,1008.6522137943741,0,,,,N/A
2024-03-23T21:49:04,-1.7970097725999998,-0.6765705901499999,9.976873830699999,0.03543018381548489,0.010995574287564279,-0.03329215548179184,0.36414,0.022820000000000003,-0.41762000000000005,1.5,7,2,1,1,3,10.799921875,156395,51.074183136129854,1008.6522137943741,0,,,,N/A
2024-03-23T21:49:04,-1.7682959014,-0.66939212235,10.03250695615,0.03375030441044035,0.012217304763960308,-0.03283400655314333,0.36610000000000004,0.021700000000000004,-0.41734000000000004,1.5,7,2,1,1,3,10.799921875,156395,51.074183136129854,1008.6522137943741,0,,,,N/A
2024-03-23T21:49:04,-1.7300107398,-0.6711867392999998,9.9696953629,0.03420845333908886,0.010231992739816757,-0.03436116964863837,0.36134000000000005,0.0315,-0.41286,1.5,7,2,1,1,3,10.799921875,156395,51.074183136129854,1008.6522137943741,0,,,,N/A
2024-03-23T21:49:04,-1.7563317884,-0.6855436748999999,10.039087218299999,0.030848694528999777,0.012217304763960308,-0.03359758810089085,0.36554000000000003,0.02926,-0.4011,1.5,7,2,1,1,3,10.799921875,156395,51.074183136129854,1008.6522137943741,0,,,,N/A
2024-03-23T21:49:04,-1.8000008008500001,-0.6735795618999999,9.9696953629,0.03604104905368291,0.008399397025222712,-0.03405573702953936,0.36554000000000003,0.02926,-0.4011,1.5,7,2,1,1,3,10.799921875,156395,51.074183136129854,1008.6522137943741,0,,,,N/A
2024-03-23T21:49:04,-1.7581264053499999,-0.68015982405,9.96670433465,0.03313943917224234,0.012217304763960308,-0.03237585762449482,0.36302000000000006,0.026180000000000002,-0.41440000000000005,1.5,7,2,1,1,3,10.8190625,158154,50.988681106701954,1008.6528230251519,0,,,,N/A
2024-03-23T21:49:04,-1.75214434885,-0.6855436748999999,9.954142015999999,0.030390545600351267,0.006566801310628666,-0.03466660226773738,0.35490000000000005,0.029820000000000003,-0.42798,1.5,7,2,1,1,3,10.8190625,158154,50.988681106701954,1008.6528230251519,0,,,,N/A
2024-03-23T21:49:04,-1.7910277161,-0.6735795618999999,9.97866844765,0.03298672286269283,0.014813482026301873,-0.036193765363232405,0.36218,0.02562,-0.41804,1.5,7,2,1,1,3,10.8190625,158154,50.988681106701954,1008.6528230251519,0,,,,N/A
2024-03-23T21:49:04,-1.7766707805,-0.6831508522999998,10.0115697584,0.03466660226773738,0.012217304763960308,-0.03283400655314333,0.36218,0.02338,-0.41762000000000005,1.5,7,2,1,1,3,10.8190625,158154,50.988681106701954,1008.6528230251519,0,,,,N/A
2024-03-23T21:49:04,-1.7778671918,-0.6903293201,9.97388280245,0.03481931857728687,0.011301006906663285,-0.02977968036215325,0.36190000000000005,0.027020000000000002,-0.40726000000000007,1.5,7,2,1,1,3,10.8190625,158154,50.988681106701954,1008.6528230251519,0,,,,N/A
2024-03-23T21:49:04,-1.7964115669499998,-0.6879364974999999,9.93799046345,0.03298672286269283,0.014202616788103858,-0.03222314131494531,0.36190000000000005,0.027020000000000002,-0.40726000000000007,1.5,7,2,1,1,3,10.8190625,158154,50.988681106701954,1008.6528230251519,0,,,,N/A
2024-03-23T21:49:04,-1.7964115669499998,-0.68614188055,10.028917722249998,0.03436116964863837,0.012370021073509813,-0.0319177086958463,0.35602000000000006,0.025900000000000003,-0.41286,1.5,7,2,1,1,3,10.83703125,158898,50.91560094828721,1008.6619229487425,0,,,,N/A
2024-03-23T21:49:04,-1.7874384822,-0.6837490579499998,9.992427177599998,0.03359758810089085,0.014049900478554353,-0.03313943917224234,0.36022000000000004,0.022260000000000002,-0.4088,1.5,7,2,1,1,3,10.83703125,158898,50.91560094828721,1008.6619229487425,0,,,,N/A
2024-03-23T21:49:04,-1.7706887239999998,-0.6987041992,9.977472036350001,0.03375030441044035,0.008857545953871223,-0.036193765363232405,0.35798,0.03178,-0.42000000000000004,1.5,7,2,1,1,3,10.83703125,158898,50.91560094828721,1008.6619229487425,0,,,,N/A
2024-03-23T21:49:04,-1.7838492482999997,-0.6795616184,10.007382318849999,0.03665191429188092,0.014355333097653362,-0.03268129024359383,0.35798,0.03178,-0.42000000000000004,1.5,7,2,1,1,3,10.83703125,158898,50.91560094828721,1008.6619229487425,0,,,,N/A
2024-03-23T21:49:04,-1.7778671918,-0.67896341275,9.93799046345,0.03344487179134134,0.012828170002158324,-0.03313943917224234,0.36414,0.03514,-0.41552000000000006,1.5,7,2,1,1,3,10.83703125,158898,50.91560094828721,1008.6619229487425,0,,,,N/A
2024-03-23T21:49:04,-1.746760498,-0.6604190375999999,9.993025383249998,0.0319177086958463,0.009010262263420728,-0.03466660226773738,0.35490000000000005,0.02058,-0.41398,1.5,7,2,1,1,3,10.83703125,158898,50.91560094828721,1008.6619229487425,0,,,,N/A
2024-03-23T21:49:04,-1.8221344098999996,-0.7124629291499999,10.021739254449999,0.03543018381548489,0.009773843811168246,-0.03466660226773738,0.36414,0.027860000000000003,-0.40978000000000003,1.5,7,2,1,1,3,10.8559765625,161638,50.84891470405157,1008.665686298364,0,,,,N/A
2024-03-23T21:49:04,-1.80478644605,-0.6747759731999999,9.988239738049998,0.0357356164345839,0.01114829059711378,-0.0319177086958463,0.36190000000000005,0.02926,-0.42784000000000005,1.5,7,2,1,1,3,10.8559765625,161638,50.84891470405157,1008.665686298364,0,,,,N/A
2024-03-23T21:49:04,-1.7742779578999996,-0.66221365455,9.961320483799998,0.03497203488683638,0.013897184169004852,-0.031001410838549282,0.35742,0.024220000000000002,-0.42504000000000003,1.5,7,2,1,1,3,10.8559765625,161638,50.84891470405157,1008.665686298364,0,,,,N/A
2024-03-23T21:49:04,-1.7407784414999998,-0.7016952274499999,9.96909715725,0.03329215548179184,0.01145372321621279,-0.03375030441044035,0.36694000000000004,0.02562,-0.41566000000000003,1.5,7,2,1,1,3,10.8559765625,161638,50.84891470405157,1008.665686298364,0,,,,N/A
2024-03-23T21:49:04,-1.7946169499999998,-0.6747759731999999,9.94875816515,0.03924809155422249,0.011301006906663285,-0.03543018381548489,0.3647,0.030100000000000002,-0.42574000000000006,1.5,7,2,1,1,3,10.8559765625,161638,50.84891470405157,1008.665686298364,0,,,,N/A
2024-03-23T21:49:04,-1.7862420708999998,-0.6879364974999999,10.04447106915,0.03588833274413341,0.016035212502697904,-0.03222314131494531,0.3647,0.030100000000000002,-0.42574000000000006,1.5,7,2,1,1,3,10.8559765625,161638,50.84891470405157,1008.665686298364,0,,,,N/A
2024-03-23T21:49:04,-1.7593228166499997,-0.6783652070999998,9.95115098775,0.03237585762449482,0.010384709049366262,-0.03512475119638588,0.37170000000000003,0.030940000000000002,-0.41524000000000005,1.5,7,2,1,1,3,10.87296875,162416,50.77577818111661,1008.659221827459,0,,,,N/A
2024-03-23T21:49:04,-1.7114663646499997,-0.6945167596499999,10.037890806999998,0.03436116964863837,0.008552113334772215,-0.03359758810089085,0.35714000000000007,0.028980000000000002,-0.42826000000000003,1.5,7,2,1,1,3,10.87296875,162416,50.77577818111661,1008.659221827459,0,,,,N/A
2024-03-23T21:49:04,-1.7802600144,-0.69092752575,9.963115100749999,0.03527746750593539,0.010231992739816757,-0.03466660226773738,0.3647,0.02562,-0.40726000000000007,1.5,7,2,1,1,3,10.87296875,162416,50.77577818111661,1008.659221827459,0,,,,N/A
2024-03-23T21:49:04,-1.8041882403999998,-0.72083780825,10.028917722249998,0.03130684345764829,0.013286318930806834,-0.03695734691097993,0.36862000000000006,0.027860000000000003,-0.41174000000000005,1.5,7,2,1,1,3,10.87296875,162416,50.77577818111661,1008.659221827459,0,,,,N/A
2024-03-23T21:49:04,-1.80717926865,-0.6897311144499999,9.963713306399999,0.03283400655314333,0.010231992739816757,-0.03405573702953936,0.36414,0.028700000000000003,-0.41398,1.5,7,2,1,1,3,10.87296875,162416,50.77577818111661,1008.659221827459,0,,,,N/A
2024-03-23T21:49:04,-1.7599210222999997,-0.6807580296999999,9.993025383249998,0.03298672286269283,0.011606439525762293,-0.03298672286269283,0.36414,0.028700000000000003,-0.41398,1.5,7,2,1,1,3,10.87296875,162416,50.77577818111661,1008.659221827459,0,,,,N/A
2024-03-23T21:49:04,-1.7802600144,-0.6771687957999999,10.0319087505,0.03375030441044035,0.011301006906663285,-0.03787364476827696,0.36162000000000005,0.02926,-0.42938000000000004,1.5,7,2,1,1,3,10.890546875,162260,50.71523780916664,1008.6746326618605,0,,,,N/A
2024-03-23T21:49:05,-1.7958133612999998,-0.66939212235,9.96670433465,0.03298672286269283,0.011301006906663285,-0.03283400655314333,0.35658000000000006,0.02758,-0.41930000000000006,1.5,7,2,1,1,3,10.890546875,162260,50.71523780916664,1008.6746326618605,0,,,,N/A
2024-03-23T21:49:05,-1.7748761635499997,-0.6723831505999999,10.060622621699999,0.0357356164345839,0.011301006906663285,-0.03695734691097993,0.36750000000000005,0.022260000000000002,-0.41790000000000005,1.5,7,2,1,1,3,10.890546875,162260,50.71523780916664,1008.6746326618605,0,,,,N/A
2024-03-23T21:49:05,-1.7796618087499998,-0.6879364974999999,9.98225768155,0.03405573702953936,0.008704829644321718,-0.03222314131494531,0.36078000000000005,0.0315,-0.41622000000000003,1.5,7,2,1,1,3,10.890546875,162260,50.71523780916664,1008.6746326618605,0,,,,N/A
2024-03-23T21:49:05,-1.76650128445,-0.6747759731999999,9.988239738049998,0.03222314131494531,0.009773843811168246,-0.03436116964863837,0.36078000000000005,0.0315,-0.41622000000000003,1.5,7,2,1,1,3,10.890546875,162260,50.71523780916664,1008.6746326618605,0,,,,N/A
2024-03-23T21:49:05,-1.7844474539499997,-0.68733829185,9.9828558872,0.03130684345764829,0.008246680715673207,-0.03481931857728687,0.36834000000000006,0.03318,-0.41090000000000004,1.5,7,2,1,1,3,10.890546875,162260,50.71523780916664,1008.6746326618605,0,,,,N/A
2024-03-23T21:49:05,-1.7934205386999997,-0.6616154488999999,10.033105161799998,0.03695734691097993,0.011606439525762293,-0.03665191429188092,0.36414,0.02338,-0.42238000000000003,1.5,7,2,1,1,3,10.90734375,163517,50.654628616019934,1008.6782891657407,0,,,,N/A
2024-03-23T21:49:05,-1.7700905183499998,-0.6556333924,10.042676452199998,0.03359758810089085,0.009773843811168246,-0.03252857393404432,0.3647,0.028700000000000003,-0.41916000000000003,1.5,7,2,1,1,3,10.90734375,163517,50.654628616019934,1008.6782891657407,0,,,,N/A
2024-03-23T21:49:05,-1.8149559420999999,-0.69690958225,9.994820000199999,0.038789942625573975,0.012217304763960308,-0.038942658935123484,0.36246000000000006,0.025340000000000005,-0.41356000000000004,1.5,7,2,1,1,3,10.90734375,163517,50.654628616019934,1008.6782891657407,0,,,,N/A
2024-03-23T21:49:05,-1.7796618087499998,-0.6777670014499999,9.999605645399999,0.03543018381548489,0.010384709049366262,-0.03237585762449482,0.36218,0.025060000000000002,-0.42658,1.5,7,2,1,1,3,10.90734375,163517,50.654628616019934,1008.6782891657407,0,,,,N/A
2024-03-23T21:49:05,-1.7850456595999997,-0.6891329087999999,9.97627562505,0.03405573702953936,0.009621127501618741,-0.036804630601430424,0.36218,0.025060000000000002,-0.42658,1.5,7,2,1,1,3,10.90734375,163517,50.654628616019934,1008.6782891657407,0,,,,N/A
2024-03-23T21:49:05,-1.7940187443499997,-0.6747759731999999,10.086943670299998,0.03390302071998985,0.012217304763960308,-0.031154127148098783,0.36246000000000006,0.030100000000000002,-0.41440000000000005,1.5,7,2,1,1,3,10.90734375,163517,50.654628616019934,1008.6782891657407,0,,,,N/A
2024-03-23T21:49:05,-1.80239362345,-0.6765705901499999,10.021739254449999,0.03283400655314333,0.014508049407202865,-0.03268129024359383,0.36134000000000005,0.02842,-0.43022000000000005,1.5,7,2,1,1,3,10.92296875,163994,50.56267465471015,1008.6921800784797,0,,,,N/A
2024-03-23T21:49:05,-1.7826528369999999,-0.64785671895,10.04207824655,0.039095375244672985,0.008093964406123704,-0.03436116964863837,0.37086,0.02842,-0.41496000000000005,1.5,7,2,1,1,3,10.92296875,163994,50.56267465471015,1008.6921800784797,0,,,,N/A
2024-03-23T21:49:05,-1.8101702968999995,-0.69930240485,9.993025383249998,0.03665191429188092,0.011759155835311796,-0.0355829001250344,0.36806000000000005,0.02646,-0.41034000000000004,1.5,7,2,1,1,3,10.92296875,163994,50.56267465471015,1008.6921800784797,0,,,,N/A
2024-03-23T21:49:05,-1.7802600144,-0.6765705901499999,10.001400262349998,0.03436116964863837,0.01069014166846527,-0.03283400655314333,0.3633,0.02562,-0.40992,1.5,7,2,1,1,3,10.92296875,163994,50.56267465471015,1008.6921800784797,0,,,,N/A
2024-03-23T21:49:05,-1.7922241274,-0.6897311144499999,9.994820000199999,0.030695978219450276,0.016035212502697904,-0.03481931857728687,0.36106000000000005,0.027300000000000005,-0.41216,1.5,7,2,1,1,3,10.92296875,163994,50.56267465471015,1008.6921800784797,0,,,,N/A
2024-03-23T21:49:05,-1.7593228166499997,-0.6675975054,10.012766169699999,0.03375030441044035,0.012064588454410803,-0.03405573702953936,0.35322000000000003,0.023100000000000002,-0.42224000000000006,1.5,7,2,1,1,3,10.938203125,164956,50.495695080364584,1008.6914849470386,0,,,,N/A
2024-03-23T21:49:05,-1.81196491385,-0.7016952274499999,9.990034354999999,0.03588833274413341,0.010079276430267254,-0.03756821214917795,0.36078000000000005,0.024500000000000004,-0.41804,1.5,7,2,1,1,3,10.938203125,164956,50.495695080364584,1008.6914849470386,0,,,,N/A
2024-03-23T21:49:05,-1.7670994901,-0.67537417885,9.981061270249999,0.031459559767197796,0.010384709049366262,-0.03512475119638588,0.37002,0.02758,-0.42168000000000005,1.5,7,2,1,1,3,10.938203125,164956,50.495695080364584,1008.6914849470386,0,,,,N/A
2024-03-23T21:49:05,-1.7982061838999996,-0.63948183985,10.007382318849999,0.03497203488683638,0.0119118721448613,-0.03604104905368291,0.33418000000000003,0.0315,-0.42126,1.5,6,2,1,1,3,10.938203125,164956,50.495695080364584,1008.6914849470386,0,,,,N/A
2024-03-23T21:49:05,-1.77726898615,-0.6903293201,9.999007439749999,0.03313943917224234,0.00916297857297023,-0.03344487179134134,0.35742,0.0315,-0.42126,1.5,6,2,1,1,3,10.938203125,164956,50.495695080364584,1008.6914849470386,0,,,,N/A
2024-03-23T21:49:06,-1.7718851352999998,-0.6520441584999999,9.9505527821,0.02977968036215325,0.007635815477475193,-0.03390302071998985,0.36218,0.030660000000000003,-0.43022000000000005,1.5,6,2,1,1,3,10.952265625,165441,50.428607815828,1008.6888326576226,0,,,,N/A
2024-03-23T21:49:06,-1.8017954178,-0.6867400861999999,9.949954576449999,0.03390302071998985,0.007941248096574201,-0.03497203488683638,0.36190000000000005,0.027860000000000003,-0.43456000000000006,1.5,6,2,1,1,3,10.952265625,165441,50.428607815828,1008.6888326576226,0,,,,N/A
2024-03-23T21:49:06,-1.8005990065,-0.6759723844999999,9.9708917742,0.03436116964863837,0.00916297857297023,-0.03252857393404432,0.36190000000000005,0.027860000000000003,-0.43456000000000006,1.5,6,2,1,1,3,10.952265625,165441,50.428607815828,1008.6888326576226,0,,,,N/A
2024-03-23T21:49:06,-1.7700905183499998,-0.6783652070999998,10.06720288385,0.03313943917224234,0.010995574287564279,-0.03283400655314333,0.36974,0.02478,-0.41020000000000006,1.5,6,2,1,1,3,10.952265625,165441,50.428607815828,1008.6888326576226,0,,,,N/A
2024-03-23T21:49:06,-1.7796618087499998,-0.7046862557,10.0366943957,0.03313943917224234,0.013286318930806834,-0.03527746750593539,0.35826,0.03514,-0.41566000000000003,1.5,6,2,1,1,3,10.952265625,165441,50.428607815828,1008.6888326576226,0,,,,N/A
2024-03-23T21:49:07,-1.8382859624499999,-0.6765705901499999,10.030114133549999,0.03695734691097993,0.008857545953871223,-0.03512475119638588,0.36862000000000006,0.021700000000000004,-0.41454,1.5,7,2,1,1,3,10.38703125,144974,49.95434977729835,1008.7060607693628,0,,,,N/A
2024-03-23T21:49:07,-1.7623138448999998,-0.6885347031499999,9.986445121099997,0.03329215548179184,0.013286318930806834,-0.030085112981252257,0.37002,0.029820000000000003,-0.41328000000000004,1.5,7,2,1,1,3,10.38703125,144974,49.95434977729835,1008.7060607693628,0,,,,N/A
2024-03-23T21:49:07,-1.8017954178,-0.69212393705,9.975079213749998,0.03390302071998985,0.009315694882519735,-0.03298672286269283,0.36414,0.02478,-0.41706000000000004,1.5,7,2,1,1,3,10.38703125,144974,49.95434977729835,1008.7060607693628,0,,,,N/A
2024-03-23T21:49:07,-1.8107685025499998,-0.67896341275,10.00259667365,0.03344487179134134,0.013897184169004852,-0.03130684345764829,0.36582000000000003,0.02254,-0.40866,1.5,7,2,1,1,3,10.38703125,144974,49.95434977729835,1008.7060607693628,0,,,,N/A
2024-03-23T21:49:07,-1.79521515565,-0.67298135625,10.0163554036,0.03405573702953936,0.015424347264499889,-0.036499197982331415,0.37142000000000003,0.024500000000000004,-0.4030600000000001,1.5,7,2,1,1,3,10.38703125,144974,49.95434977729835,1008.7060607693628,0,,,,N/A
2024-03-23T21:49:08,-1.7419748528,-0.65742800935,9.954740221649999,0.03268129024359383,0.010995574287564279,-0.03512475119638588,0.36190000000000005,0.030660000000000003,-0.42882000000000003,1.5,7,2,1,1,3,9.6809765625,130814,49.51037231420267,1008.7159739932405,0,,,,N/A
2024-03-23T21:49:08,-1.7611174335999997,-0.6831508522999998,9.942177903,0.03237585762449482,0.011301006906663285,-0.03451388595818787,0.3703,0.025340000000000005,-0.41706000000000004,1.5,7,2,1,1,3,9.6809765625,130814,49.51037231420267,1008.7159739932405,0,,,,N/A
2024-03-23T21:49:08,-1.79162592175,-0.68733829185,9.986445121099997,0.03405573702953936,0.00916297857297023,-0.03390302071998985,0.35574,0.022820000000000003,-0.42476,1.5,7,2,1,1,3,9.6809765625,130814,49.51037231420267,1008.7159739932405,0,,,,N/A
2024-03-23T21:49:08,-1.7575281996999998,-0.6765705901499999,10.02532848835,0.03344487179134134,0.011301006906663285,-0.03329215548179184,0.35910000000000003,0.023100000000000002,-0.42910000000000004,1.5,7,2,1,1,3,9.6809765625,130814,49.51037231420267,1008.7159739932405,0,,,,N/A
2024-03-23T21:49:08,-1.7700905183499998,-0.70887369525,10.0235338714,0.03237585762449482,0.0070249502392771765,-0.03665191429188092,0.35910000000000003,0.023100000000000002,-0.42910000000000004,1.5,7,2,1,1,3,9.6809765625,130814,49.51037231420267,1008.7159739932405,0,,,,N/A
2024-03-23T21:49:09,-1.7419748528,-0.6705885336499999,9.938588669099998,0.03329215548179184,0.009621127501618741,-0.03481931857728687,0.36918,0.02338,-0.42742,1.5,7,2,1,1,3,9.06984375,123808,49.289262868105524,1008.7209659867106,0,,,,N/A
2024-03-23T21:49:09,-1.82632184945,-0.6837490579499998,10.0187482262,0.03772092845872745,0.008246680715673207,-0.03512475119638588,0.35910000000000003,0.02478,-0.42280000000000006,1.5,7,2,1,1,3,9.06984375,123808,49.289262868105524,1008.7209659867106,0,,,,N/A
2024-03-23T21:49:09,-1.7826528369999999,-0.7034898444000001,9.98943614935,0.03665191429188092,0.009621127501618741,-0.03344487179134134,0.36918,0.030380000000000004,-0.43274000000000007,1.5,7,2,1,1,3,9.06984375,123808,49.289262868105524,1008.7209659867106,0,,,,N/A
2024-03-23T21:49:09,-1.8161523534,-0.7082754896000001,9.949954576449999,0.031459559767197796,0.01114829059711378,-0.03695734691097993,0.36862000000000006,0.027860000000000003,-0.41720000000000007,1.5,7,2,1,1,3,9.06984375,123808,49.289262868105524,1008.7209659867106,0,,,,N/A
2024-03-23T21:49:09,-1.79162592175,-0.705882667,10.0223374601,0.03512475119638588,0.009010262263420728,-0.029474247743054245,0.36862000000000006,0.027860000000000003,-0.41720000000000007,1.5,7,2,1,1,3,9.06984375,123808,49.289262868105524,1008.7209659867106,0,,,,N/A
2024-03-23T21:49:10,-1.8352949342,-0.6963113766000001,10.015757197949998,0.03283400655314333,0.009315694882519735,-0.030390545600351267,0.37338000000000005,0.02058,-0.42126,1.5,7,2,1,1,3,8.567890625,119427,49.17969946035117,1008.7265857134656,0,,,,N/A
2024-03-23T21:49:10,-1.7976079782499998,-0.6981059935499999,9.972088185499999,0.03329215548179184,0.010842857978014774,-0.031154127148098783,0.36666000000000004,0.02926,-0.40362000000000003,1.5,7,2,1,1,3,8.567890625,119427,49.17969946035117,1008.7265857134656,0,,,,N/A
2024-03-23T21:49:10,-1.7940187443499997,-0.6855436748999999,9.9972128228,0.03375030441044035,0.010231992739816757,-0.03313943917224234,0.37170000000000003,0.020020000000000003,-0.42966000000000004,1.5,7,2,1,1,3,8.567890625,119427,49.17969946035117,1008.7265857134656,0,,,,N/A
2024-03-23T21:49:10,-1.8005990065,-0.7148557517499999,9.9960164115,0.038789942625573975,0.013133602621257331,-0.03497203488683638,0.36834000000000006,0.032900000000000006,-0.41356000000000004,1.5,7,2,1,1,3,8.567890625,119427,49.17969946035117,1008.7265857134656,0,,,,N/A
2024-03-23T21:49:10,-1.7503497318999997,-0.6963113766000001,10.009176935799998,0.029474247743054245,0.010537425358915765,-0.03329215548179184,0.36442,0.02058,-0.43288000000000004,1.5,7,2,1,1,3,8.567890625,119427,49.17969946035117,1008.7265857134656,0,,,,N/A
2024-03-23T21:49:10,-1.8101702968999995,-0.6891329087999999,10.00498949625,0.03420845333908886,0.011606439525762293,-0.03283400655314333,0.36442,0.02058,-0.43288000000000004,1.5,7,2,1,1,3,8.567890625,119427,49.17969946035117,1008.7265857134656,0,,,,N/A
2024-03-23T21:49:10,-1.7874384822,-0.65742800935,9.976873830699999,0.0355829001250344,0.009621127501618741,-0.03787364476827696,0.3703,0.01862,-0.40936,1.5,7,2,1,1,3,8.162421875,116379,49.16734954296182,1008.7192346055377,0,,,,N/A
2024-03-23T21:49:10,-1.8185451759999998,-0.6843472635999999,9.991230766299998,0.03207042500539581,0.011759155835311796,-0.03481931857728687,0.3633,0.02338,-0.41706000000000004,1.5,7,2,1,1,3,8.162421875,116379,49.16734954296182,1008.7192346055377,0,,,,N/A
2024-03-23T21:49:10,-1.7982061838999996,-0.7082754896000001,9.985846915449999,0.03436116964863837,0.00946841119206924,-0.03726277953007894,0.36442,0.023940000000000003,-0.41216,1.5,7,2,1,1,3,8.162421875,116379,49.16734954296182,1008.7192346055377,0,,,,N/A
2024-03-23T21:49:11,-1.8340985228999995,-0.6568298036999999,10.04985492,0.03405573702953936,0.007483099167925688,-0.038637226316024474,0.35854,0.02926,-0.41846000000000005,1.5,7,2,1,1,3,8.09875,128327,49.2594485549294,1008.6889337381733,0,,,,N/A
2024-03-23T21:49:11,-1.8550357206499999,-0.6837490579499998,9.994820000199999,0.03390302071998985,0.008857545953871223,-0.036499197982331415,0.36554000000000003,0.020020000000000003,-0.4118800000000001,1.5,7,2,1,1,3,8.09875,128327,49.2594485549294,1008.6889337381733,0,,,,N/A
2024-03-23T21:49:11,-1.7694923126999997,-0.68135623535,10.033105161799998,0.029932396671702752,0.010995574287564279,-0.03283400655314333,0.35910000000000003,0.02562,-0.43820000000000003,1.5,7,2,1,1,3,8.09875,128327,49.2594485549294,1008.6889337381733,0,,,,N/A
2024-03-23T21:49:11,-1.7940187443499997,-0.6987041992,9.963713306399999,0.03695734691097993,0.008093964406123704,-0.03420845333908886,0.36358,0.023660000000000004,-0.42826000000000003,1.5,7,2,1,1,3,8.09875,128327,49.2594485549294,1008.6889337381733,0,,,,N/A
2024-03-23T21:49:11,-1.7898313048,-0.6981059935499999,9.994820000199999,0.031764992386296806,0.011301006906663285,-0.03252857393404432,0.36134000000000005,0.02254,-0.41902000000000006,1.5,7,2,1,1,3,8.09875,128327,49.2594485549294,1008.6889337381733,0,,,,N/A
2024-03-23T21:49:12,-1.7862420708999998,-0.6705885336499999,10.0008020567,0.03283400655314333,0.013286318930806834,-0.03329215548179184,0.36974,0.03262,-0.4113200000000001,1.5,7,2,1,1,3,7.868671875,123446,49.22264417523472,1008.7024251564941,0,,,,N/A
2024-03-23T21:49:12,-1.7838492482999997,-0.6915257314000001,9.94277610865,0.03543018381548489,0.011759155835311796,-0.0355829001250344,0.36834000000000006,0.030100000000000002,-0.41202000000000005,1.5,7,2,1,1,3,7.868671875,123446,49.22264417523472,1008.7024251564941,0,,,,N/A
2024-03-23T21:49:12,-1.7611174335999997,-0.6885347031499999,10.033105161799998,0.03359758810089085,0.012217304763960308,-0.030237829290801762,0.36666000000000004,0.025900000000000003,-0.41944000000000004,1.5,7,2,1,1,3,7.868671875,123446,49.22264417523472,1008.7024251564941,0,,,,N/A
2024-03-23T21:49:12,-1.7694923126999997,-0.66221365455,9.9649097177,0.03634648167278191,0.008857545953871223,-0.03466660226773738,0.36358,0.022820000000000003,-0.41328000000000004,1.5,7,2,1,1,3,7.868671875,123446,49.22264417523472,1008.7024251564941,0,,,,N/A
2024-03-23T21:49:12,-1.80478644605,-0.6945167596499999,9.98465050415,0.03359758810089085,0.009773843811168246,-0.03527746750593539,0.36358,0.022820000000000003,-0.41328000000000004,1.5,7,2,1,1,3,7.868671875,123446,49.22264417523472,1008.7024251564941,0,,,,N/A
2024-03-23T21:49:13,-1.7940187443499997,-0.6765705901499999,10.009176935799998,0.0357356164345839,0.012675453692608819,-0.03252857393404432,0.36386,0.023940000000000003,-0.41790000000000005,1.5,7,2,1,1,3,7.6219921875,119342,49.215058037255154,1008.7069267119857,0,,,,N/A
2024-03-23T21:49:13,-1.8035900347499998,-0.71605216305,9.9696953629,0.03329215548179184,0.012522737383059314,-0.02901609881440573,0.36134000000000005,0.0315,-0.41258000000000006,1.5,7,2,1,1,3,7.6219921875,119342,49.215058037255154,1008.7069267119857,0,,,,N/A
2024-03-23T21:49:13,-1.78085822005,-0.6831508522999998,9.985248709799999,0.03375030441044035,0.007941248096574201,-0.03527746750593539,0.36246000000000006,0.02114,-0.41776,1.5,7,2,1,1,3,7.6219921875,119342,49.215058037255154,1008.7069267119857,0,,,,N/A
2024-03-23T21:49:13,-1.8185451759999998,-0.6717849449499999,10.016953609249999,0.031459559767197796,0.012064588454410803,-0.03252857393404432,0.36246000000000006,0.02114,-0.41776,1.5,7,2,1,1,3,7.6219921875,119342,49.215058037255154,1008.7069267119857,0,,,,N/A
2024-03-23T21:49:13,-1.7796618087499998,-0.6538387754499999,10.021141048799999,0.0316122760767473,0.009315694882519735,-0.03481931857728687,0.3633,0.01946,-0.41818000000000005,1.5,7,2,1,1,3,7.6219921875,119342,49.215058037255154,1008.7069267119857,0,,,,N/A
2024-03-23T21:49:14,-1.79162592175,-0.7010970218,9.9756774194,0.0355829001250344,0.009010262263420728,-0.03222314131494531,0.36610000000000004,0.010780000000000001,-0.41440000000000005,1.5,7,2,1,1,3,7.413984375,117187,49.26103768295185,1008.7101351721083,0,,,,N/A
2024-03-23T21:49:14,-1.8089738855999997,-0.7028916387499999,9.9517491934,0.03344487179134134,0.009926560120717751,-0.03604104905368291,0.35826,0.024500000000000004,-0.42182000000000003,1.5,7,2,1,1,3,7.413984375,117187,49.26103768295185,1008.7101351721083,0,,,,N/A
2024-03-23T21:49:14,-1.79042951045,-0.6933203483499999,9.9744810081,0.03634648167278191,0.007483099167925688,-0.03604104905368291,0.36106000000000005,0.02338,-0.4142600000000001,1.5,7,2,1,1,3,7.413984375,117187,49.26103768295185,1008.7101351721083,0,,,,N/A
2024-03-23T21:49:14,-1.7994025952000001,-0.66460647715,10.03131054485,0.03313943917224234,0.008704829644321718,-0.03451388595818787,0.36106000000000005,0.02338,-0.4142600000000001,1.5,7,2,1,1,3,7.413984375,117187,49.26103768295185,1008.7101351721083,0,,,,N/A
2024-03-23T21:49:14,-1.7724833409499998,-0.67896341275,9.9684989516,0.03634648167278191,0.012217304763960308,-0.03451388595818787,0.36610000000000004,0.02646,-0.41174000000000005,1.5,7,2,1,1,3,7.413984375,117187,49.26103768295185,1008.7101351721083,0,,,,N/A
2024-03-23T21:49:15,-1.8335003172499997,-0.6951149652999999,10.006784113199998,0.036499197982331415,0.009773843811168246,-0.0319177086958463,0.37058,0.019180000000000003,-0.4116,1.5,7,2,1,1,3,7.243671875,116540,49.32339195706975,1008.7122527453545,0,,,,N/A
2024-03-23T21:49:15,-1.7276179172000001,-0.6664010940999998,10.012167964049999,0.03359758810089085,0.00916297857297023,-0.03329215548179184,0.36274,0.02562,-0.41776,1.5,7,2,1,1,3,7.243671875,116540,49.32339195706975,1008.7122527453545,0,,,,N/A
2024-03-23T21:49:15,-1.8005990065,-0.67537417885,9.9972128228,0.03588833274413341,0.012828170002158324,-0.03268129024359383,0.37002,0.033460000000000004,-0.41566000000000003,1.5,7,2,1,1,3,7.243671875,116540,49.32339195706975,1008.7122527453545,0,,,,N/A
2024-03-23T21:49:15,-1.8029918290999998,-0.7004988161499999,9.978070242,0.03207042500539581,0.010231992739816757,-0.03420845333908886,0.37002,0.033460000000000004,-0.41566000000000003,1.5,7,2,1,1,3,7.243671875,116540,49.32339195706975,1008.7122527453545,0,,,,N/A
2024-03-23T21:49:15,-1.7593228166499997,-0.7082754896000001,10.006784113199998,0.03207042500539581,0.01114829059711378,-0.03695734691097993,0.35826,0.029540000000000004,-0.42854000000000003,1.5,7,2,1,1,3,7.243671875,116540,49.32339195706975,1008.7122527453545,0,,,,N/A
2024-03-23T21:49:15,-1.7670994901,-0.6652046827999999,10.036096190049998,0.03268129024359383,0.012370021073509813,-0.030237829290801762,0.36890000000000006,0.025340000000000005,-0.40768000000000004,1.5,7,2,1,1,3,7.243671875,116540,49.32339195706975,1008.7122527453545,0,,,,N/A
2024-03-23T21:49:15,-1.7760725748500001,-0.6837490579499998,9.96670433465,0.03207042500539581,0.010384709049366262,-0.03665191429188092,0.36218,0.032900000000000006,-0.41902000000000006,1.5,7,2,1,1,3,7.103046875,115582,49.425992183316254,1008.717256513512,0,,,,N/A
2024-03-23T21:49:15,-1.8095720912499997,-0.6981059935499999,10.104291634149998,0.03268129024359383,0.012370021073509813,-0.03420845333908886,0.36022000000000004,0.028980000000000002,-0.42364,1.5,7,2,1,1,3,7.103046875,115582,49.425992183316254,1008.717256513512,0,,,,N/A
2024-03-23T21:49:15,-1.79042951045,-0.6879364974999999,9.981659475899999,0.03207042500539581,0.012675453692608819,-0.03405573702953936,0.36610000000000004,0.027300000000000005,-0.4116,1.5,7,2,1,1,3,7.103046875,115582,49.425992183316254,1008.717256513512,0,,,,N/A
2024-03-23T21:49:16,-1.8197415872999996,-0.66939212235,10.006185907549998,0.0357356164345839,0.008552113334772215,-0.03420845333908886,0.36526000000000003,0.021700000000000004,-0.41692,1.5,7,2,1,1,3,7.2391796875,127167,49.53310471230473,1008.6926030868561,0,,,,N/A
2024-03-23T21:49:16,-1.79042951045,-0.6604190375999999,9.997811028449998,0.03252857393404432,0.012522737383059314,-0.03375030441044035,0.36498,0.02114,-0.42238000000000003,1.5,7,2,1,1,3,7.2391796875,127167,49.53310471230473,1008.6926030868561,0,,,,N/A
2024-03-23T21:49:16,-1.8017954178,-0.67896341275,9.95115098775,0.03313943917224234,0.012675453692608819,-0.031154127148098783,0.36498,0.02114,-0.42238000000000003,1.5,7,2,1,1,3,7.2391796875,127167,49.53310471230473,1008.6926030868561,0,,,,N/A
2024-03-23T21:49:16,-1.8562321319499997,-0.6981059935499999,10.012766169699999,0.03298672286269283,0.009621127501618741,-0.03298672286269283,0.35938000000000003,0.02198,-0.41538,1.5,7,2,1,1,3,7.2391796875,127167,49.53310471230473,1008.6926030868561,0,,,,N/A
2024-03-23T21:49:16,-1.7826528369999999,-0.6807580296999999,10.0175518149,0.03436116964863837,0.013591751549905842,-0.03344487179134134,0.3577,0.024500000000000004,-0.41552000000000006,1.5,7,2,1,1,3,7.2391796875,127167,49.53310471230473,1008.6926030868561,0,,,,N/A
2024-03-23T21:49:17,-1.7341981793499999,-0.6855436748999999,10.0008020567,0.03222314131494531,0.010995574287564279,-0.03313943917224234,0.36806000000000005,0.030660000000000003,-0.40712000000000004,1.5,7,2,1,1,3,7.16984375,122817,49.5567093544959,1008.6976191342885,0,,,,N/A
2024-03-23T21:49:17,-1.7940187443499997,-0.6765705901499999,10.040283629599998,0.03405573702953936,0.01114829059711378,-0.03390302071998985,0.3647,0.02758,-0.41594000000000003,1.5,7,2,1,1,3,7.16984375,122817,49.5567093544959,1008.6976191342885,0,,,,N/A
2024-03-23T21:49:17,-1.7748761635499997,-0.6795616184,9.96670433465,0.029474247743054245,0.010995574287564279,-0.03756821214917795,0.3647,0.02758,-0.41594000000000003,1.5,7,2,1,1,3,7.16984375,122817,49.5567093544959,1008.6976191342885,0,,,,N/A
2024-03-23T21:49:17,-1.7156538042,-0.68135623535,9.994221794549999,0.04016438941151951,0.00916297857297023,-0.0357356164345839,0.36722000000000005,0.025340000000000005,-0.41328000000000004,1.5,7,2,1,1,3,7.16984375,122817,49.5567093544959,1008.6976191342885,0,,,,N/A
2024-03-23T21:49:17,-1.7629120505499998,-0.6837490579499998,9.978070242,0.03420845333908886,0.009010262263420728,-0.03405573702953936,0.37198000000000003,0.030940000000000002,-0.4207,1.5,7,2,1,1,3,7.16984375,122817,49.5567093544959,1008.6976191342885,0,,,,N/A
2024-03-23T21:49:18,-1.8035900347499998,-0.7022934331,10.009176935799998,0.029932396671702752,0.01145372321621279,-0.03420845333908886,0.36414,0.02114,-0.41874000000000006,1.5,7,2,1,1,3,7.056171875,119851,49.60657562352314,1008.7114030081582,0,,,,N/A
2024-03-23T21:49:18,-1.79521515565,-0.65264236415,10.04925671435,0.03512475119638588,0.012522737383059314,-0.03283400655314333,0.36638000000000004,0.018060000000000003,-0.41958000000000006,1.5,8,2,1,1,3,7.056171875,119851,49.60657562352314,1008.7114030081582,0,,,,N/A
2024-03-23T21:49:18,-1.78085822005,-0.7016952274499999,10.02652489965,0.03298672286269283,0.01069014166846527,-0.031764992386296806,0.36638000000000004,0.018060000000000003,-0.41958000000000006,1.5,8,2,1,1,3,7.056171875,119851,49.60657562352314,1008.7114030081582,0,,,,N/A
2024-03-23T21:49:18,-1.8257236438,-0.7010970218,9.9984092341,0.03451388595818787,0.009926560120717751,-0.03405573702953936,0.36750000000000005,0.020020000000000003,-0.41370000000000007,1.5,8,2,1,1,3,7.056171875,119851,49.60657562352314,1008.7114030081582,0,,,,N/A
2024-03-23T21:49:18,-1.8329021115999997,-0.6945167596499999,9.994221794549999,0.03466660226773738,0.00916297857297023,-0.030237829290801762,0.3633,0.0161,-0.42196000000000006,1.5,8,2,1,1,3,7.056171875,119851,49.60657562352314,1008.7114030081582,0,,,,N/A
2024-03-23T21:49:19,-1.7383856188999998,-0.6765705901499999,9.97866844765,0.03298672286269283,0.013286318930806834,-0.03344487179134134,0.36918,0.028140000000000005,-0.39494000000000007,1.5,7,2,1,1,3,6.9544140625,117596,49.70723443469845,1008.7122103773368,0,,,,N/A
2024-03-23T21:49:19,-1.7778671918,-0.6717849449499999,10.107880868049998,0.03527746750593539,0.010079276430267254,-0.03924809155422249,0.37086,0.030100000000000002,-0.41664000000000007,1.5,7,2,1,1,3,6.9544140625,117596,49.70723443469845,1008.7122103773368,0,,,,N/A
2024-03-23T21:49:19,-1.7802600144,-0.69930240485,9.997811028449998,0.03481931857728687,0.01145372321621279,-0.031459559767197796,0.37086,0.030100000000000002,-0.41664000000000007,1.5,7,2,1,1,3,6.9544140625,117596,49.70723443469845,1008.7122103773368,0,,,,N/A
2024-03-23T21:49:19,-1.78085822005,-0.63708901725,9.99182897195,0.03390302071998985,0.010842857978014774,-0.03512475119638588,0.36666000000000004,0.025340000000000005,-0.41496000000000005,1.5,7,2,1,1,3,6.9544140625,117596,49.70723443469845,1008.7122103773368,0,,,,N/A
2024-03-23T21:49:19,-1.7820546313499999,-0.67896341275,9.997811028449998,0.03054326190990077,0.01145372321621279,-0.0357356164345839,0.36974,0.028140000000000005,-0.41566000000000003,1.5,7,2,1,1,3,6.9544140625,117596,49.70723443469845,1008.7122103773368,0,,,,N/A
2024-03-23T21:49:20,-1.7012968685999998,-0.6975077879,10.004391290600001,0.031154127148098783,0.012370021073509813,-0.03512475119638588,0.37002,0.03234,-0.40922000000000003,1.5,7,2,1,1,3,6.8721875,116219,49.84097915242677,1008.7076409120695,0,,,,N/A
2024-03-23T21:49:20,-1.8209379985999998,-0.6819544409999999,10.046863891749998,0.03695734691097993,0.010842857978014774,-0.0357356164345839,0.35798,0.022260000000000002,-0.40642,1.5,7,2,1,1,3,6.8721875,116219,49.84097915242677,1008.7076409120695,0,,,,N/A
2024-03-23T21:49:20,-1.7820546313499999,-0.6885347031499999,10.030114133549999,0.038331793696925465,0.010384709049366262,-0.03634648167278191,0.35798,0.022260000000000002,-0.40642,1.5,7,2,1,1,3,6.8721875,116219,49.84097915242677,1008.7076409120695,0,,,,N/A
2024-03-23T21:49:20,-1.7778671918,-0.6867400861999999,10.042676452199998,0.03344487179134134,0.012217304763960308,-0.03207042500539581,0.35994000000000004,0.022820000000000003,-0.41706000000000004,1.5,7,2,1,1,3,6.8721875,116219,49.84097915242677,1008.7076409120695,0,,,,N/A
2024-03-23T21:49:20,-1.7587246109999999,-0.693918554,10.03729260135,0.03405573702953936,0.010842857978014774,-0.03451388595818787,0.36554000000000003,0.02198,-0.40334000000000003,1.5,7,2,1,1,3,6.8721875,116219,49.84097915242677,1008.7076409120695,0,,,,N/A
2024-03-23T21:49:20,-1.7778671918,-0.69690958225,9.990632560649999,0.03375030441044035,0.01114829059711378,-0.030390545600351267,0.35490000000000005,0.026180000000000002,-0.41034000000000004,1.5,7,2,1,1,3,6.8721875,116219,49.84097915242677,1008.7076409120695,0,,,,N/A
2024-03-23T21:49:20,-1.8077774742999997,-0.6705885336499999,10.025926693999999,0.03268129024359383,0.008704829644321718,-0.03634648167278191,0.36442,0.02646,-0.40908000000000005,1.5,7,2,1,1,3,6.8075390625,114796,50.001473808529774,1008.7134784167488,0,,,,N/A
2024-03-23T21:49:20,-1.7850456595999997,-0.705882667,10.054042359550001,0.03344487179134134,0.008704829644321718,-0.03741549583962844,0.37114,0.01974,-0.43526000000000004,1.5,7,2,1,1,3,6.8075390625,114796,50.001473808529774,1008.7134784167488,0,,,,N/A
2024-03-23T21:49:20,-1.7790636030999998,-0.6705885336499999,10.030114133549999,0.03313943917224234,0.0056505034533316425,-0.03604104905368291,0.36498,0.024500000000000004,-0.42042,1.5,7,2,1,1,3,6.8075390625,114796,50.001473808529774,1008.7134784167488,0,,,,N/A
2024-03-23T21:49:21,-1.8095720912499997,-0.6855436748999999,10.085747258999998,0.03512475119638588,0.010842857978014774,-0.03344487179134134,0.37198000000000003,0.02562,-0.4081,1.5,7,2,1,1,3,7.0016796875,126499,50.13992465935922,1008.675462712569,0,,,,N/A
2024-03-23T21:49:21,-1.7563317884,-0.6843472635999999,9.97148997985,0.03329215548179184,0.013897184169004852,-0.03390302071998985,0.36162000000000005,0.025340000000000005,-0.40152000000000004,1.5,7,2,1,1,3,7.0016796875,126499,50.13992465935922,1008.675462712569,0,,,,N/A
2024-03-23T21:49:21,-1.78085822005,-0.6867400861999999,10.006784113199998,0.03359758810089085,0.012064588454410803,-0.036499197982331415,0.36162000000000005,0.025340000000000005,-0.40152000000000004,1.5,7,2,1,1,3,7.0016796875,126499,50.13992465935922,1008.675462712569,0,,,,N/A
2024-03-23T21:49:21,-1.8293128776999996,-0.6687939166999999,10.079765202499999,0.03481931857728687,0.011759155835311796,-0.03588833274413341,0.35826,0.023100000000000002,-0.40978000000000003,1.5,7,2,1,1,3,7.0016796875,126499,50.13992465935922,1008.675462712569,0,,,,N/A
