Timestamp,Accel_X,Accel_Y,Accel_Z,Gyro_X,Gyro_Y,Gyro_Z,Mag_X,Mag_Y,Mag_Z,LSM9DS1_Temp,Proximity,Color_R,Color_G,Color_B,Color_C,BME680_Temp,Gas,Humidity,Pressure,Switch_Pressed,GPS_Latitude,GPS_Longitude,GPS_Speed,GPS_Timestamp
2024-03-17T16:27:57,-0.99720881855,2.4430718745999997,9.7208418125,0.04642575810304917,-0.015577063574049392,-0.047952921198544204,0.038500000000000006,0.4461800000000001,-0.44422,15.5,0,0,0,0,0,33.574921875,524359,100,695.662002676745,0,,,,N/A
2024-03-17T16:27:58,-1.0546365609499997,2.4933211492,9.735796953749999,0.039400807863771994,0.0022907446432425577,-0.04734205596034619,0.033460000000000004,0.45346000000000003,-0.43456000000000006,15.5,0,0,0,0,0,33.574921875,524359,100,695.662002676745,0,,,,N/A
2024-03-17T16:27:58,-1.02592268975,2.4562323989,9.725627457699998,0.03237585762449482,0.0025961772623415654,-0.04444044607890562,0.03934,0.44758000000000003,-0.43176000000000003,15.5,0,0,0,0,0,33.574921875,524359,100,695.662002676745,0,,,,N/A
2024-03-17T16:27:58,-0.9667003303999999,2.4705893344999996,9.762716207999999,0.040317105721069016,0.0025961772623415654,-0.048716502746291725,0.04186000000000001,0.4467400000000001,-0.43218000000000006,15.5,0,0,0,0,0,33.574921875,524359,100,695.662002676745,0,,,,N/A
2024-03-17T16:27:58,-1.01395857675,2.4592234271499995,9.742975421549998,0.04077525464971753,0.0068722339297276735,-0.040317105721069016,0.04186000000000001,0.4467400000000001,-0.43218000000000006,15.5,0,0,0,0,0,33.574921875,524359,100,695.662002676745,0,,,,N/A
2024-03-17T16:27:58,-1.02592268975,2.4729821571,9.7435736272,0.0355829001250344,0.0068722339297276735,-0.041691552507014555,0.04438,0.44646,-0.45052000000000003,15.5,0,0,0,0,0,33.574921875,524359,100,695.662002676745,0,,,,N/A
2024-03-17T16:27:58,-1.0366903914499999,2.4723839514499995,9.76690364755,0.040317105721069016,0.004581489286485115,-0.041996985126113565,0.03878,0.44982000000000005,-0.4473000000000001,15.5,0,0,0,0,0,21.7012890625,91098,17.84476395545712,999.0703450625208,0,,,,N/A
2024-03-17T16:27:58,-1.0295119236499999,2.4382862293999996,9.681958445249998,0.038942658935123484,-0.00015271630954950385,-0.04627304179349966,0.035980000000000005,0.4478600000000001,-0.44170000000000004,15.5,0,0,0,0,0,21.7012890625,91098,17.84476395545712,999.0703450625208,0,,,,N/A
2024-03-17T16:27:58,-1.00319087505,2.4562323989,9.7830552001,0.039858956792420505,-0.00015271630954950385,-0.04566217655530165,0.035980000000000005,0.4478600000000001,-0.44170000000000004,15.5,0,0,0,0,0,21.7012890625,91098,17.84476395545712,999.0703450625208,0,,,,N/A
2024-03-17T16:27:58,-0.9816554716499999,2.4496521367499997,9.80518880915,0.039400807863771994,0.0015271630954950385,-0.041996985126113565,0.04242,0.44422,-0.44002,15.5,0,0,0,0,0,21.7012890625,91098,17.84476395545712,999.0703450625208,0,,,,N/A
2024-03-17T16:27:58,-1.0289137179999999,2.46879471755,9.727422074649999,0.03695734691097993,-0.0015271630954950385,-0.07712173632249944,0.03794,0.45094000000000006,-0.43526000000000004,15.5,0,0,0,0,0,21.7012890625,91098,17.84476395545712,999.0703450625208,0,,,,N/A
2024-03-17T16:27:58,-1.01395857675,2.4251257050999997,9.7938229018,0.043676864531158106,0.0007635815477475193,-0.04612032548395016,0.03794,0.45094000000000006,-0.43526000000000004,15.5,0,0,0,0,0,21.7012890625,91098,17.84476395545712,999.0703450625208,0,,,,N/A
2024-03-17T16:27:58,-1.0271191010499998,2.4598216327999998,9.748359272399998,0.0435241482216086,0.0007635815477475193,-0.048411070127192715,0.04018000000000001,0.44394000000000006,-0.4426800000000001,15.5,0,0,0,0,0,21.9489453125,106467,17.908367713094673,999.087163519031,0,,,,N/A
2024-03-17T16:27:58,-0.9990034354999999,2.4598216327999998,9.732207719849999,0.041691552507014555,0.0035124751196385882,-0.04382958084070761,0.033460000000000004,0.4543000000000001,-0.4424,15.5,0,0,0,0,0,21.9489453125,106467,17.908367713094673,999.087163519031,0,,,,N/A
2024-03-17T16:27:58,-1.0073783146,2.2995025185999998,9.77767134925,0.04092797095926703,0.0022907446432425577,-0.04092797095926703,0.039060000000000004,0.4478600000000001,-0.43876000000000004,15.5,0,0,0,0,0,21.9489453125,106467,17.908367713094673,999.087163519031,0,,,,N/A
2024-03-17T16:27:58,-1.03310115755,2.4675983062499998,9.7208418125,0.04321871560250959,0.002901609881440573,-0.04260785036431157,0.039060000000000004,0.4478600000000001,-0.43876000000000004,15.5,0,0,0,0,0,21.9489453125,106467,17.908367713094673,999.087163519031,0,,,,N/A
2024-03-17T16:27:58,-1.0456634761999999,2.4520449593499998,9.777073143599997,0.04016438941151951,-0.00015271630954950385,-0.04566217655530165,0.03626000000000001,0.45150000000000007,-0.44352,15.5,0,0,0,0,0,21.9489453125,106467,17.908367713094673,999.087163519031,0,,,,N/A
2024-03-17T16:27:58,-0.9774680320999999,2.4658036893,9.79202828485,0.038637226316024474,-0.0006108652381980154,-0.04444044607890562,0.039900000000000005,0.4467400000000001,-0.44002,15.5,0,0,0,0,0,21.9489453125,106467,17.908367713094673,999.087163519031,0,,,,N/A
2024-03-17T16:27:58,-1.0636096457,2.4346969955,9.8189475391,0.041080687268816536,0.0009162978572970231,-0.04612032548395016,0.037380000000000004,0.4467400000000001,-0.44156000000000006,15.5,0,0,0,0,0,22.31203125,120795,17.963060653444685,999.0937625477079,0,,,,N/A
2024-03-17T16:27:58,-1.0396814197,2.4813570361999995,9.7818587888,0.038484510006474966,-0.0007635815477475193,-0.04703662334124718,0.038220000000000004,0.44646,-0.43960000000000005,15.5,0,12616,10798,12920,30840,22.31203125,120795,17.963060653444685,999.0937625477079,0,,,,N/A
2024-03-17T16:27:58,-0.9930213789999999,2.4604198384499996,9.744171832849998,0.04474587869800463,0.002901609881440573,-0.04856378643674222,0.041580000000000006,0.44898000000000005,-0.42980000000000007,15.5,0,12616,10798,12920,30840,22.31203125,120795,17.963060653444685,999.0937625477079,0,,,,N/A
2024-03-17T16:27:58,-1.0133603711,2.4191436485999995,9.696315380849999,0.04153883619746505,0.00015271630954950385,-0.04046982203061852,0.04018000000000001,0.45094000000000006,-0.43848000000000004,15.5,0,12616,10798,12920,30840,22.31203125,120795,17.963060653444685,999.0937625477079,0,,,,N/A
2024-03-17T16:27:58,-0.94935236655,2.4352952011499998,9.77288570405,0.04046982203061852,-0.0012217304763960308,-0.041386119887915546,0.04018000000000001,0.45094000000000006,-0.43848000000000004,15.5,0,12616,10798,12920,30840,22.31203125,120795,17.963060653444685,999.0937625477079,0,,,,N/A
2024-03-17T16:27:58,-1.0456634761999999,2.4311077616,9.803394192199999,0.040622538340168025,0.0006108652381980154,-0.04260785036431157,0.03962,0.45682000000000006,-0.43820000000000003,15.5,0,12616,10798,12920,30840,22.31203125,120795,17.963060653444685,999.0937625477079,0,,,,N/A
2024-03-17T16:27:58,-1.0103693428499998,2.42093826555,9.74776106675,0.038942658935123484,-0.0006108652381980154,-0.04214970143566306,0.04046,0.4537400000000001,-0.43848000000000004,15.5,0,12616,10798,12920,30840,22.69875,132042,18.01917323377299,999.0993499414553,0,,,,N/A
2024-03-17T16:27:58,-1.0348957745,2.4670001006,9.767501853199999,0.038179077387375956,0.00045814892864851157,-0.04245513405476207,0.0441,0.44926000000000005,-0.43638000000000005,15.5,0,12616,10798,12920,30840,22.69875,132042,18.01917323377299,999.0993499414553,0,,,,N/A
2024-03-17T16:27:58,-1.04027962535,2.4532413706500003,9.839884736850001,0.039553524173321496,-0.00015271630954950385,-0.0474947722698957,0.0441,0.44926000000000005,-0.43638000000000005,15.5,0,12616,10798,12920,30840,22.69875,132042,18.01917323377299,999.0993499414553,0,,,,N/A
2024-03-17T16:27:58,-1.01635139935,2.4658036893,9.77288570405,0.038942658935123484,-0.00015271630954950385,-0.041080687268816536,0.03654,0.45038000000000006,-0.4438000000000001,15.5,0,12616,10798,12920,30840,22.69875,132042,18.01917323377299,999.0993499414553,0,,,,N/A
2024-03-17T16:27:58,-0.95174518915,2.4628126610499996,9.64965534015,0.038331793696925465,0.0016798794050445422,-0.041080687268816536,0.042980000000000004,0.44562000000000007,-0.43946,15.5,0,12616,10798,12920,30840,22.69875,132042,18.01917323377299,999.0993499414553,0,,,,N/A
2024-03-17T16:27:58,-1.0414760366499998,2.4741785683999997,9.790233667899999,0.036499197982331415,0.001069014166846527,-0.04016438941151951,0.042980000000000004,0.44870000000000004,-0.43708,15.5,0,12616,10798,12920,30840,22.69875,132042,18.01917323377299,999.0993499414553,0,,,,N/A
2024-03-17T16:27:58,-0.9870393224999998,2.4598216327999998,9.775876732299999,0.041844268816564056,0.00045814892864851157,-0.04673119072214818,0.04018000000000001,0.44870000000000004,-0.43708,15.5,0,12616,10798,12920,30840,23.0684765625,139463,18.04917005880879,999.1191408918629,0,,,,N/A
2024-03-17T16:27:58,-1.06301144005,2.4741785683999997,9.781260583149999,0.04214970143566306,-0.005192354524683131,-0.04550946024575215,0.04662,0.4501,-0.43078000000000005,15.5,0,12616,10798,12920,30840,23.0684765625,139463,18.04917005880879,999.1191408918629,0,,,,N/A
2024-03-17T16:27:58,-0.98404829425,2.4538395763,9.7340023368,0.04123340357836604,0.001069014166846527,-0.041996985126113565,0.046900000000000004,0.4526200000000001,-0.4491200000000001,15.5,0,12616,10798,12920,30840,23.0684765625,139463,18.04917005880879,999.1191408918629,0,,,,N/A
2024-03-17T16:27:58,-0.9655039191,2.48434806445,9.742975421549998,0.041691552507014555,0.0036651914291880926,-0.041080687268816536,0.046900000000000004,0.44506000000000007,-0.44996,15.5,0,12616,10798,12920,30840,23.0684765625,139463,18.04917005880879,999.1191408918629,0,,,,N/A
2024-03-17T16:27:59,-1.0049854919999999,2.32642177285,9.853643466800001,0.04046982203061852,-0.00015271630954950385,-0.04550946024575215,0.040740000000000005,0.44506000000000007,-0.44996,15.5,0,12616,10798,12920,30840,23.0684765625,139463,18.04917005880879,999.1191408918629,0,,,,N/A
2024-03-17T16:27:59,-0.9583254512999998,2.4382862293999996,9.701101026049999,0.04001167310197001,0.001069014166846527,-0.04459316238845512,0.045500000000000006,0.44478,-0.43526000000000004,15.5,0,12616,10798,12920,30840,23.0684765625,139463,18.04917005880879,999.1191408918629,0,,,,N/A
2024-03-17T16:27:59,-1.0001998468,2.4323041728999995,9.692127941299999,0.04153883619746505,0.03772092845872745,-0.04627304179349966,0.038220000000000004,0.44534,-0.44086000000000003,15.5,0,12616,10798,12920,30840,23.402265625,146867,18.072244754958948,999.127669502926,0,,,,N/A
2024-03-17T16:27:59,-1.0187442219499998,2.4346969955,9.762716207999999,0.04123340357836604,-0.003207042500539581,-0.043676864531158106,0.0357,0.44142000000000003,-0.44198000000000004,15.5,0,12616,10798,12920,30840,23.402265625,146867,18.072244754958948,999.127669502926,0,,,,N/A
2024-03-17T16:27:59,-1.0414760366499998,2.46879471755,9.79561751875,0.041080687268816536,-0.0016798794050445422,-0.0514653963181828,0.040740000000000005,0.44562000000000007,-0.4531800000000001,15.5,0,12616,10798,12920,30840,23.402265625,146867,18.072244754958948,999.127669502926,0,,,,N/A
2024-03-17T16:27:59,-1.0001998468,2.4729821571,9.777073143599997,0.040317105721069016,-0.0009162978572970231,-0.043676864531158106,0.047740000000000005,0.4473000000000001,-0.43554000000000004,15.5,0,12616,10798,12920,30840,23.402265625,146867,18.072244754958948,999.127669502926,0,,,,N/A
2024-03-17T16:27:59,-1.0265208954,2.47597318535,9.750752095,0.04382958084070761,0.0015271630954950385,-0.04321871560250959,0.0441,0.4461800000000001,-0.42868000000000006,15.5,0,12616,10798,12920,30840,23.402265625,146867,18.072244754958948,999.127669502926,0,,,,N/A
2024-03-17T16:27:59,-1.00797652025,2.4173490316499997,9.77049288145,0.038484510006474966,0.0033597588100890844,-0.041844268816564056,0.0441,0.4461800000000001,-0.42868000000000006,15.5,0,12616,10798,12920,30840,23.402265625,146867,18.072244754958948,999.127669502926,0,,,,N/A
2024-03-17T16:27:59,-1.0265208954,2.5872394362499995,9.7998049583,0.04276056667386108,-0.003054326190990077,-0.04153883619746505,0.04102,0.44282000000000005,-0.43554000000000004,15.5,0,12616,10798,12920,30840,23.6981640625,152301,18.098419492965544,999.1360995590198,0,,,,N/A
2024-03-17T16:27:59,-0.9708877699499999,2.4508485480499997,9.7375915707,0.03726277953007894,0.0012217304763960308,-0.041844268816564056,0.03934,0.44058,-0.43918000000000007,15.5,0,12707,10861,12980,31003,23.6981640625,152301,18.098419492965544,999.1360995590198,0,,,,N/A
2024-03-17T16:27:59,-0.9888339394499999,2.4538395763,9.72502925205,0.040622538340168025,-0.0006108652381980154,-0.04459316238845512,0.03934,0.44058,-0.43918000000000007,15.5,0,12707,10861,12980,31003,23.6981640625,152301,18.098419492965544,999.1360995590198,0,,,,N/A
2024-03-17T16:27:59,-0.9936195846499999,2.4358934068,9.758528768449999,0.03924809155422249,0.0015271630954950385,-0.04092797095926703,0.04186000000000001,0.43918000000000007,-0.4424,15.5,0,12707,10861,12980,31003,23.6981640625,152301,18.098419492965544,999.1360995590198,0,,,,N/A
2024-03-17T16:27:59,-1.0133603711,2.44008084635,9.7304131029,0.040622538340168025,-0.0022907446432425577,-0.04382958084070761,0.037660000000000006,0.44982000000000005,-0.43176000000000003,15.5,0,12707,10861,12980,31003,23.6981640625,152301,18.098419492965544,999.1360995590198,0,,,,N/A
2024-03-17T16:27:59,-1.0241280728,2.4604198384499996,9.7555377402,0.037110063220529434,0.0,-0.041386119887915546,0.037660000000000006,0.44982000000000005,-0.43176000000000003,15.5,0,12707,10861,12980,31003,23.6981640625,152301,18.098419492965544,999.1360995590198,0,,,,N/A
2024-03-17T16:27:59,-0.9044869427999999,2.45443778195,9.745368244149999,0.0433714319120591,0.0003054326190990077,-0.04642575810304917,0.03654,0.4459,-0.4333000000000001,15.5,0,12707,10861,12980,31003,23.9555859375,156977,18.122567372036247,999.1507300103964,0,,,,N/A
2024-03-17T16:27:59,-0.9744770038499999,2.48554447575,9.7639126193,0.03802636107782646,-0.00015271630954950385,-0.041386119887915546,0.03794,0.4461800000000001,-0.45122,15.5,0,12707,10861,12980,31003,23.9555859375,156977,18.122567372036247,999.1507300103964,0,,,,N/A
2024-03-17T16:27:59,-0.9672985360499999,2.46879471755,9.814760099549998,0.040317105721069016,0.0019853120241435504,-0.07819075048934597,0.03878,0.44170000000000004,-0.4494,15.5,0,12707,10861,12980,31003,23.9555859375,156977,18.122567372036247,999.1507300103964,0,,,,N/A
2024-03-17T16:27:59,-0.9978070242,2.4502503424,9.722636429449999,0.03726277953007894,0.0024434609527920616,-0.04474587869800463,0.0441,0.43722000000000005,-0.44422,15.5,0,12707,10861,12980,31003,23.9555859375,156977,18.122567372036247,999.1507300103964,0,,,,N/A
2024-03-17T16:27:59,-1.016949605,2.43888443505,9.6981099978,0.038789942625573975,-0.001069014166846527,-0.040622538340168025,0.0441,0.43722000000000005,-0.44422,15.5,0,12707,10861,12980,31003,23.9555859375,156977,18.122567372036247,999.1507300103964,0,,,,N/A
2024-03-17T16:27:59,-1.0049854919999999,2.4795624192499996,9.741180804599999,0.03756821214917795,-0.0013744467859455349,-0.043676864531158106,0.042140000000000004,0.45402000000000003,-0.43666000000000005,15.5,0,12707,10861,12980,31003,23.9555859375,156977,18.122567372036247,999.1507300103964,0,,,,N/A
2024-03-17T16:27:59,-1.0097711372,2.4472593141499996,9.754341328899999,0.04001167310197001,0.004886921905584123,-0.043982297150257116,0.041580000000000006,0.4397400000000001,-0.44338000000000005,15.5,0,12707,10861,12980,31003,24.1784375,161021,18.119436117238404,999.1602901961322,0,,,,N/A
2024-03-17T16:27:59,-1.0348957745,2.464607278,9.732207719849999,0.04046982203061852,0.0027488935718910697,-0.04566217655530165,0.04046,0.4467400000000001,-0.4432400000000001,15.5,0,12707,10861,12980,31003,24.1784375,161021,18.119436117238404,999.1602901961322,0,,,,N/A
2024-03-17T16:27:59,-0.9978070242,2.4358934068,9.744770038499999,0.04123340357836604,0.001069014166846527,-0.0476474885794452,0.04046,0.4467400000000001,-0.4432400000000001,15.5,0,12707,10861,12980,31003,24.1784375,161021,18.119436117238404,999.1602901961322,0,,,,N/A
2024-03-17T16:27:59,-0.9882357337999998,2.46400907235,9.766305441899998,0.038179077387375956,0.003207042500539581,-0.047952921198544204,0.03962,0.44170000000000004,-0.45416,15.5,0,12707,10861,12980,31003,24.1784375,161021,18.119436117238404,999.1602901961322,0,,,,N/A
2024-03-17T16:27:59,-0.98524470555,2.4442682858999993,9.735198748099998,0.043982297150257116,-0.0007635815477475193,-0.04489859500755413,0.038500000000000006,0.44506000000000007,-0.44646,15.5,0,12707,10861,12980,31003,24.1784375,161021,18.119436117238404,999.1602901961322,0,,,,N/A
2024-03-17T16:27:59,-1.0540383553,2.4382862293999996,9.78843905095,0.03924809155422249,-0.003207042500539581,-0.04673119072214818,0.038500000000000006,0.44506000000000007,-0.44646,15.5,0,12707,10861,12980,31003,24.1784375,161021,18.119436117238404,999.1602901961322,0,,,,N/A
2024-03-17T16:27:59,-0.9571290399999999,2.48434806445,9.8153583052,0.04413501345980661,0.001069014166846527,-0.041996985126113565,0.030380000000000004,0.44450000000000006,-0.44002,15.5,0,12707,10861,12980,31003,24.3700390625,164474,18.11461186343758,999.1560629490184,0,,,,N/A
2024-03-17T16:27:59,-1.0109675485,2.4173490316499997,9.7794659662,0.038789942625573975,0.00045814892864851157,-0.04413501345980661,0.0413,0.45066,-0.44884,15.5,0,12707,10861,12980,31003,24.3700390625,164474,18.11461186343758,999.1560629490184,0,,,,N/A
2024-03-17T16:27:59,-0.9744770038499999,2.44606290285,9.7112705221,0.04016438941151951,0.0003054326190990077,-0.04214970143566306,0.0413,0.45066,-0.44884,15.5,0,12707,10861,12980,31003,24.3700390625,164474,18.11461186343758,999.1560629490184,0,,,,N/A
2024-03-17T16:27:59,-1.00678010895,2.4394826406999996,9.75374312325,0.04214970143566306,-0.0025961772623415654,-0.04581489286485116,0.045500000000000006,0.4526200000000001,-0.44520000000000004,15.5,0,12707,10861,12980,31003,24.3700390625,164474,18.11461186343758,999.1560629490184,0,,,,N/A
2024-03-17T16:27:59,-1.0181460163,2.45443778195,9.75493953455,0.041691552507014555,-0.0027488935718910697,-0.04230241774521256,0.04522,0.44058,-0.43666000000000005,15.5,0,12707,10861,12980,31003,24.3700390625,164474,18.11461186343758,999.1560629490184,0,,,,N/A
2024-03-17T16:27:59,-0.97806623775,2.464607278,9.73101130855,0.04001167310197001,-0.003207042500539581,-0.04505131131710364,0.046340000000000006,0.42994000000000004,-0.45052000000000003,15.5,0,12707,10861,12980,31003,24.3700390625,164474,18.11461186343758,999.1560629490184,0,,,,N/A
2024-03-17T16:27:59,-0.9798608546999998,2.4598216327999998,9.745368244149999,0.041080687268816536,-0.0003054326190990077,-0.0435241482216086,0.046340000000000006,0.42994000000000004,-0.45052000000000003,15.5,0,12707,10861,12980,31003,24.53390625,168245,18.11337236486806,999.1598460878646,0,,,,N/A
2024-03-17T16:28:00,-0.9930213789999999,2.44606290285,9.7208418125,0.00015271630954950385,-0.0019853120241435504,-0.04276056667386108,0.04046,0.44366,-0.44954,15.5,0,12797,10923,13043,31176,24.53390625,168245,18.11337236486806,999.1598460878646,0,,,,N/A
2024-03-17T16:28:00,-1.00319087505,2.41136697515,9.745368244149999,0.0433714319120591,-0.0022907446432425577,-0.04428772976935611,0.039900000000000005,0.44394000000000006,-0.43848000000000004,15.5,0,12797,10923,13043,31176,24.53390625,168245,18.11337236486806,999.1598460878646,0,,,,N/A
2024-03-17T16:28:00,-0.99720881855,2.4705893344999996,9.77049288145,0.04382958084070761,0.0007635815477475193,-0.047952921198544204,0.04886000000000001,0.4403000000000001,-0.44716,15.5,0,12797,10923,13043,31176,24.53390625,168245,18.11337236486806,999.1598460878646,0,,,,N/A
2024-03-17T16:28:00,-0.9230313179499999,2.42452749945,9.717850784249999,0.039400807863771994,-0.0009162978572970231,-0.04077525464971753,0.04886000000000001,0.4403000000000001,-0.44716,15.5,0,12797,10923,13043,31176,24.53390625,168245,18.11337236486806,999.1598460878646,0,,,,N/A
2024-03-17T16:28:00,-0.97806623775,2.44486649155,9.75733235715,0.041691552507014555,-0.004581489286485115,-0.039553524173321496,0.046900000000000004,0.44450000000000006,-0.4526200000000001,15.5,0,12797,10923,13043,31176,24.53390625,168245,18.11337236486806,999.1598460878646,0,,,,N/A
2024-03-17T16:28:00,-0.9858429111999999,2.46999112885,9.8153583052,0.039095375244672985,-0.00015271630954950385,-0.04321871560250959,0.039900000000000005,0.44198000000000004,-0.43288000000000004,15.5,0,12797,10923,13043,31176,24.6762890625,169598,18.090592011256298,999.1623193814844,0,,,,N/A
2024-03-17T16:28:00,-0.9188438783999999,2.4664018949499997,9.719047195549999,0.041844268816564056,-0.0024434609527920616,-0.040622538340168025,0.0427,0.44478,-0.4438000000000001,15.5,0,12797,10923,13043,31176,24.6762890625,169598,18.090592011256298,999.1623193814844,0,,,,N/A
2024-03-17T16:28:00,-0.9990034354999999,2.45443778195,9.735198748099998,0.039095375244672985,0.0006108652381980154,-0.04077525464971753,0.040740000000000005,0.44758000000000003,-0.43260000000000004,15.5,0,12797,10923,13043,31176,24.6762890625,169598,18.090592011256298,999.1623193814844,0,,,,N/A
2024-03-17T16:28:00,-1.0348957745,2.47597318535,9.6801638283,0.038637226316024474,-0.0035124751196385882,-0.04673119072214818,0.04438,0.44478,-0.43708,15.5,0,12797,10923,13043,31176,24.6762890625,169598,18.090592011256298,999.1623193814844,0,,,,N/A
2024-03-17T16:28:00,-1.0636096457,2.46879471755,9.783653405749998,0.04123340357836604,0.002138028333693054,-0.041691552507014555,0.04438,0.44478,-0.43708,15.5,0,12797,10923,13043,31176,24.6762890625,169598,18.090592011256298,999.1623193814844,0,,,,N/A
2024-03-17T16:28:00,-0.9984052298499999,2.43888443505,9.7399843933,0.0012217304763960308,0.00045814892864851157,-0.043676864531158106,0.0441,0.45598,-0.43274000000000007,15.5,0,12797,10923,13043,31176,24.6762890625,169598,18.090592011256298,999.1623193814844,0,,,,N/A
2024-03-17T16:28:00,-1.0097711372,2.4418754632999997,9.768100058849999,0.03466660226773738,0.0015271630954950385,-0.04077525464971753,0.038220000000000004,0.44338000000000005,-0.43372000000000005,15.5,0,12797,10923,13043,31176,24.8001171875,173077,18.076981512494697,999.1647348413052,0,,,,N/A
2024-03-17T16:28:00,-1.00199446375,2.4813570361999995,9.7806623775,0.04001167310197001,-0.00015271630954950385,-0.04321871560250959,0.03262,0.44534,-0.42490000000000006,15.5,0,12797,10923,13043,31176,24.8001171875,173077,18.076981512494697,999.1647348413052,0,,,,N/A
2024-03-17T16:28:00,-1.0085747259,2.4861426813999996,9.771091087099999,0.04001167310197001,0.002901609881440573,-0.04214970143566306,0.03262,0.44534,-0.42490000000000006,15.5,0,12797,10923,13043,31176,24.8001171875,173077,18.076981512494697,999.1647348413052,0,,,,N/A
2024-03-17T16:28:00,-1.0043872863499999,2.46520548365,9.7519485063,0.04092797095926703,0.004123340357836604,-0.038789942625573975,0.04046,0.44506000000000007,-0.44016000000000005,15.5,0,12797,10923,13043,31176,24.8001171875,173077,18.076981512494697,999.1647348413052,0,,,,N/A
2024-03-17T16:28:00,-1.0247262784499998,2.4502503424,9.7842516114,0.03741549583962844,0.0006108652381980154,-0.04276056667386108,0.03794,0.4403000000000001,-0.43568000000000007,15.5,0,12797,10923,13043,31176,24.8001171875,173077,18.076981512494697,999.1647348413052,0,,,,N/A
2024-03-17T16:28:00,-1.0271191010499998,2.45563419325,9.7375915707,0.03772092845872745,0.0036651914291880926,-0.04382958084070761,0.03794,0.4403000000000001,-0.43568000000000007,15.5,0,12797,10923,13043,31176,24.8001171875,173077,18.076981512494697,999.1647348413052,0,,,,N/A
2024-03-17T16:28:00,-1.0145567824,2.4610180441,9.7304131029,0.040622538340168025,0.0036651914291880926,-0.04474587869800463,0.04046,0.44310000000000005,-0.44492000000000004,15.5,0,12797,10923,13043,31176,24.906953125,175416,18.062441256947256,999.1803418988567,0,,,,N/A
2024-03-17T16:28:00,-1.0492527101,2.4574288101999997,9.692127941299999,0.039095375244672985,0.002138028333693054,-0.04077525464971753,0.039060000000000004,0.45150000000000007,-0.44086000000000003,15.5,0,12797,10923,13043,31176,24.906953125,175416,18.062441256947256,999.1803418988567,0,,,,N/A
2024-03-17T16:28:00,-1.0199406332499998,2.47358036275,9.746564655449998,0.03924809155422249,-0.0007635815477475193,-0.04321871560250959,0.04242,0.4478600000000001,-0.44464000000000004,15.5,0,12797,10923,13043,31176,24.906953125,175416,18.062441256947256,999.1803418988567,0,,,,N/A
2024-03-17T16:28:00,-0.9816554716499999,2.4538395763,9.9110712092,0.03695734691097993,0.0007635815477475193,-0.04276056667386108,0.0413,0.44170000000000004,-0.44058,15.5,0,12797,10923,13043,31176,24.906953125,175416,18.062441256947256,999.1803418988567,0,,,,N/A
2024-03-17T16:28:00,-1.02233345585,2.47716959665,9.7567341515,0.036499197982331415,0.003207042500539581,-0.038789942625573975,0.0413,0.44170000000000004,-0.44058,15.5,0,12797,10923,13043,31176,24.906953125,175416,18.062441256947256,999.1803418988567,0,,,,N/A
2024-03-17T16:28:01,-1.0534401496499999,2.46879471755,9.6969135865,0.038179077387375956,-0.004886921905584123,-0.04092797095926703,0.0357,0.4473000000000001,-0.4467400000000001,15.5,0,12894,10989,13108,31361,25.0016796875,179712,18.031954527946848,999.1833088862633,0,,,,N/A
2024-03-17T16:28:01,-0.9930213789999999,2.4658036893,9.796813930049998,0.04092797095926703,0.00015271630954950385,-0.04016438941151951,0.037660000000000006,0.4473000000000001,-0.45052000000000003,15.5,0,12894,10989,13108,31361,25.0016796875,179712,18.031954527946848,999.1833088862633,0,,,,N/A
2024-03-17T16:28:01,-1.00678010895,2.4598216327999998,9.73699336505,0.04413501345980661,0.002901609881440573,-0.04382958084070761,0.03122,0.44702000000000003,-0.44800000000000006,15.5,0,12894,10989,13108,31361,25.0016796875,179712,18.031954527946848,999.1833088862633,0,,,,N/A
2024-03-17T16:28:01,-0.9367900479,2.4131615921,9.738787982,0.038789942625573975,0.00015271630954950385,-0.041691552507014555,0.03122,0.44702000000000003,-0.44800000000000006,15.5,0,12894,10989,13108,31361,25.0016796875,179712,18.031954527946848,999.1833088862633,0,,,,N/A
2024-03-17T16:28:01,-1.0109675485,2.4227328824999996,9.748359272399998,0.04276056667386108,0.0007635815477475193,-0.04566217655530165,0.03934,0.44702000000000003,-0.44310000000000005,15.5,0,12894,10989,13108,31361,25.0016796875,179712,18.031954527946848,999.1833088862633,0,,,,N/A
2024-03-17T16:28:02,-1.0713863191499997,2.464607278,9.80279598655,0.03787364476827696,-0.0016798794050445422,-0.04245513405476207,0.03318,0.45150000000000007,-0.4432400000000001,15.5,0,13094,11121,13236,31726,24.5653515625,167079,17.80992456325688,999.1915015653854,0,,,,N/A
2024-03-17T16:28:02,-0.9128618219,2.4616162497499996,9.6957171752,0.040317105721069016,-0.00045814892864851157,-0.04642575810304917,0.033460000000000004,0.4526200000000001,-0.43820000000000003,15.5,0,13094,11121,13236,31726,24.5653515625,167079,17.80992456325688,999.1915015653854,0,,,,N/A
2024-03-17T16:28:02,-0.9996016411499998,2.4496521367499997,9.754341328899999,0.038637226316024474,-0.0015271630954950385,-0.0435241482216086,0.032060000000000005,0.45514000000000004,-0.4459,15.5,0,13094,11121,13236,31726,24.5653515625,167079,17.80992456325688,999.1915015653854,0,,,,N/A
2024-03-17T16:28:02,-1.04985091575,2.41017056385,9.766305441899998,0.03802636107782646,0.0018325957145940463,-0.038942658935123484,0.032060000000000005,0.45514000000000004,-0.4459,15.5,0,13094,11121,13236,31726,24.5653515625,167079,17.80992456325688,999.1915015653854,0,,,,N/A
2024-03-17T16:28:02,-1.0241280728,2.4454646972,9.7375915707,0.04428772976935611,-0.0012217304763960308,-0.041691552507014555,0.03542,0.44758000000000003,-0.4389,15.5,0,13094,11121,13236,31726,24.5653515625,167079,17.80992456325688,999.1915015653854,0,,,,N/A
2024-03-17T16:28:03,-1.0456634761999999,2.4753749797,9.73699336505,0.038179077387375956,0.0019853120241435504,-0.04382958084070761,0.03934,0.4459,-0.44758000000000003,15.5,0,13194,11187,13305,31907,23.964375,156685,17.590202795072848,999.1863745169493,0,,,,N/A
2024-03-17T16:28:03,-1.0025926694,2.3994028621499996,9.73460054245,0.04230241774521256,0.0024434609527920616,-0.041996985126113565,0.033460000000000004,0.4529,-0.43820000000000003,15.5,0,13194,11187,13305,31907,23.964375,156685,17.590202795072848,999.1863745169493,0,,,,N/A
2024-03-17T16:28:03,-0.99003035075,2.4508485480499997,9.717850784249999,0.0433714319120591,0.0,-0.04474587869800463,0.03486000000000001,0.44926000000000005,-0.43386,15.5,0,13194,11187,13305,31907,23.964375,156685,17.590202795072848,999.1863745169493,0,,,,N/A
2024-03-17T16:28:03,-1.0247262784499998,2.4472593141499996,9.681958445249998,0.04077525464971753,0.0024434609527920616,-0.04581489286485116,0.039060000000000004,0.45066,-0.4424,15.5,0,13194,11187,13305,31907,23.964375,156685,17.590202795072848,999.1863745169493,0,,,,N/A
2024-03-17T16:28:03,-0.9768698264499999,2.47597318535,9.777073143599997,0.04306599929296009,0.038484510006474966,-0.04230241774521256,0.039060000000000004,0.45066,-0.4424,15.5,0,13194,11187,13305,31907,23.964375,156685,17.590202795072848,999.1863745169493,0,,,,N/A
2024-03-17T16:28:04,-0.9876375281499999,2.4424736689499995,9.74776106675,0.04001167310197001,0.0006108652381980154,-0.04642575810304917,0.042140000000000004,0.44170000000000004,-0.44562000000000007,15.5,0,13272,11240,13358,32044,23.446015625,152027,17.476898306193956,999.1848190295066,0,,,,N/A
2024-03-17T16:28:04,-1.00199446375,2.4532413706500003,9.752546711949998,0.00015271630954950385,-0.00015271630954950385,-0.04260785036431157,0.0427,0.4478600000000001,-0.44366,15.5,0,13272,11240,13358,32044,23.446015625,152027,17.476898306193956,999.1848190295066,0,,,,N/A
2024-03-17T16:28:04,-1.04027962535,2.4203400598999996,9.660423041849999,0.04077525464971753,-0.0003054326190990077,-0.041844268816564056,0.039900000000000005,0.4501,-0.43484,15.5,0,13339,11286,13401,32165,23.446015625,152027,17.476898306193956,999.1848190295066,0,,,,N/A
2024-03-17T16:28:04,-1.0001998468,2.46520548365,9.690931529999999,0.04092797095926703,-0.0015271630954950385,-0.04489859500755413,0.03486000000000001,0.4501,-0.44310000000000005,15.5,0,13339,11286,13401,32165,23.446015625,152027,17.476898306193956,999.1848190295066,0,,,,N/A
2024-03-17T16:28:04,-1.00678010895,2.4729821571,9.758528768449999,0.041080687268816536,0.0,-0.04489859500755413,0.03486000000000001,0.4501,-0.44310000000000005,15.5,0,13339,11286,13401,32165,23.446015625,152027,17.476898306193956,999.1848190295066,0,,,,N/A
2024-03-17T16:28:05,-1.0271191010499998,2.46879471755,9.749555683699999,0.04245513405476207,0.0003054326190990077,-0.04444044607890562,0.038220000000000004,0.44814000000000004,-0.44338000000000005,15.5,0,13406,11331,13445,32286,23.0270703125,151210,17.424695122998894,999.1793208893807,0,,,,N/A
2024-03-17T16:28:05,-0.9762716207999999,2.4514467537,9.714859756,0.036804630601430424,0.0013744467859455349,-0.040317105721069016,0.039060000000000004,0.44954,-0.4443600000000001,15.5,0,13406,11331,13445,32286,23.0270703125,151210,17.424695122998894,999.1793208893807,0,,,,N/A
2024-03-17T16:28:05,-1.0271191010499998,2.44486649155,9.68674409045,0.04230241774521256,-0.00045814892864851157,-0.039553524173321496,0.039060000000000004,0.44954,-0.4443600000000001,15.5,0,13406,11331,13445,32286,23.0270703125,151210,17.424695122998894,999.1793208893807,0,,,,N/A
2024-03-17T16:28:05,-1.0205388389,2.4239292938,9.6885387074,0.03772092845872745,0.0015271630954950385,-0.04505131131710364,0.03962,0.44954,-0.45654,15.5,0,13406,11331,13445,32286,23.0270703125,151210,17.424695122998894,999.1793208893807,0,,,,N/A
2024-03-17T16:28:05,-0.99242317335,2.4538395763,9.732805925500001,0.03665191429188092,0.0007635815477475193,-0.04428772976935611,0.04018000000000001,0.44478,-0.45598,15.5,0,13406,11331,13445,32286,23.0270703125,151210,17.424695122998894,999.1793208893807,0,,,,N/A
2024-03-17T16:28:05,-0.9672985360499999,2.46879471755,9.7974121357,0.040317105721069016,-0.002138028333693054,-0.04688390703169768,0.04018000000000001,0.44478,-0.45598,15.5,0,13406,11331,13445,32286,23.0270703125,151210,17.424695122998894,999.1793208893807,0,,,,N/A
2024-03-17T16:28:05,-1.0127621654499999,2.428714939,9.699904614749999,0.03772092845872745,-0.0006108652381980154,-0.04444044607890562,0.038500000000000006,0.45458000000000004,-0.44170000000000004,15.5,0,13406,11331,13445,32286,22.6950390625,149469,17.41245313281548,999.1748591035108,0,,,,N/A
2024-03-17T16:28:06,-0.9744770038499999,2.45443778195,9.6993064091,0.00015271630954950385,-0.0027488935718910697,-0.04123340357836604,0.04438,0.44226000000000004,-0.44562000000000007,15.5,0,13484,11380,13496,32438,22.6731640625,159801,17.446607220710305,999.1533375310738,0,,,,N/A
2024-03-17T16:28:06,-1.03788680275,2.44008084635,9.672985360499998,0.0433714319120591,0.0007635815477475193,-0.04276056667386108,0.03486000000000001,0.44562000000000007,-0.44632000000000005,14.5,0,13484,11380,13496,32438,22.6731640625,159801,17.446607220710305,999.1533375310738,0,,,,N/A
2024-03-17T16:28:06,-0.9948159959499998,2.4454646972,9.72383284075,0.03802636107782646,-0.0012217304763960308,-0.04505131131710364,0.03486000000000001,0.44562000000000007,-0.44632000000000005,14.5,0,13484,11380,13496,32438,22.6731640625,159801,17.446607220710305,999.1533375310738,0,,,,N/A
2024-03-17T16:28:06,-1.0229316615,2.41256338645,9.692127941299999,0.04291328298341058,0.0015271630954950385,-0.04718933965079669,0.03962,0.4501,-0.44758000000000003,14.5,0,13484,11380,13496,32438,22.6731640625,159801,17.446607220710305,999.1533375310738,0,,,,N/A
2024-03-17T16:28:06,-1.0037890807,2.45683060455,9.69751179215,0.04016438941151951,0.0006108652381980154,-0.04153883619746505,0.0371,0.44898000000000005,-0.44198000000000004,15.5,0,13484,11380,13496,32438,22.6731640625,159801,17.446607220710305,999.1533375310738,0,,,,N/A
2024-03-17T16:28:06,-0.9672985360499999,2.4598216327999998,9.68674409045,0.04001167310197001,-0.0007635815477475193,-0.04413501345980661,0.03934,0.4531800000000001,-0.43960000000000005,15.5,0,13554,11426,13540,32562,22.4911328125,156685,17.411943766866234,999.1664241367508,0,,,,N/A
2024-03-17T16:28:06,-1.00199446375,2.47597318535,9.66161945315,0.038637226316024474,0.0013744467859455349,-0.04245513405476207,0.048580000000000005,0.44842000000000004,-0.44282000000000005,14.5,0,13554,11426,13540,32562,22.4911328125,156685,17.411943766866234,999.1664241367508,0,,,,N/A
2024-03-17T16:28:06,-1.0175478106499998,2.59441790405,9.75493953455,0.039095375244672985,-0.0016798794050445422,-0.040622538340168025,0.04102,0.44954,-0.44744000000000006,15.5,0,13554,11426,13540,32562,22.4911328125,156685,17.411943766866234,999.1664241367508,0,,,,N/A
2024-03-17T16:28:06,-1.0935199281999999,2.43768802375,9.769894675799998,0.037110063220529434,0.0007635815477475193,-0.04382958084070761,0.04102,0.44954,-0.44562000000000007,15.5,0,13554,11426,13540,32562,22.4911328125,156685,17.411943766866234,999.1664241367508,0,,,,N/A
2024-03-17T16:28:06,-1.0013962581,2.4430718745999997,9.6957171752,0.039706240482871004,0.0044287729769356115,-0.04596760917440065,0.03318,0.45122,-0.44562000000000007,15.5,0,13554,11426,13540,32562,22.4911328125,156685,17.411943766866234,999.1664241367508,0,,,,N/A
2024-03-17T16:28:07,-1.0127621654499999,2.46879471755,9.7375915707,0.039400807863771994,0.0038179077387375964,-0.041386119887915546,0.04354000000000001,0.44954,-0.44142000000000003,14.5,0,13599,11454,13566,32632,22.5817578125,164795,17.456975546366067,999.1743317557514,0,,,,N/A
2024-03-17T16:28:07,-1.0133603711,2.4604198384499996,9.717850784249999,0.03802636107782646,0.0018325957145940463,-0.0433714319120591,0.04438,0.45766,-0.45332000000000006,14.5,0,13599,11454,13566,32632,22.5817578125,164795,17.456975546366067,999.1743317557514,0,,,,N/A
2024-03-17T16:28:07,-1.03310115755,2.4442682858999993,9.700502820399999,0.04046982203061852,-0.0018325957145940463,-0.04382958084070761,0.04186000000000001,0.4459,-0.44352,14.5,0,13599,11454,13566,32632,22.5817578125,164795,17.456975546366067,999.1743317557514,0,,,,N/A
2024-03-17T16:28:07,-1.0187442219499998,2.4532413706500003,9.744171832849998,0.04001167310197001,-0.003054326190990077,-0.04642575810304917,0.04186000000000001,0.4459,-0.44352,14.5,0,13599,11454,13566,32632,22.5817578125,164795,17.456975546366067,999.1743317557514,0,,,,N/A
2024-03-17T16:28:07,-1.01395857675,2.4352952011499998,9.647262517549999,0.039858956792420505,-0.0022907446432425577,-0.04001167310197001,0.0357,0.4537400000000001,-0.44548000000000004,15.5,0,13599,11454,13566,32632,22.5817578125,164795,17.456975546366067,999.1743317557514,0,,,,N/A
2024-03-17T16:28:08,-1.01515498805,2.4526431649999996,9.716056167299998,0.04016438941151951,0.0012217304763960308,-0.07819075048934597,0.03262,0.44758000000000003,-0.4494,15.5,0,13644,11479,13592,32714,22.3798046875,157858,17.396096311060166,999.1725301705255,0,,,,N/A
2024-03-17T16:28:08,-0.9810572659999999,2.4532413706500003,9.6490571345,0.0009162978572970231,0.002901609881440573,-0.041691552507014555,0.03262,0.44758000000000003,-0.4494,14.5,0,13644,11479,13592,32714,22.3798046875,157858,17.396096311060166,999.1725301705255,0,,,,N/A
2024-03-17T16:28:08,-0.97567341515,2.4466611085,9.75135030065,0.04306599929296009,-0.0009162978572970231,-0.04657847441259867,0.04102,0.44450000000000006,-0.43764000000000003,15.5,0,13644,11479,13592,32714,22.3798046875,157858,17.396096311060166,999.1725301705255,0,,,,N/A
2024-03-17T16:28:08,-0.98524470555,2.44845572545,9.73340413115,0.03787364476827696,0.0015271630954950385,-0.041691552507014555,0.04326000000000001,0.44534,-0.45654,15.5,0,13668,11493,13602,32761,22.3798046875,157858,17.396096311060166,999.1725301705255,0,,,,N/A
2024-03-17T16:28:08,-1.0414760366499998,2.4335005842,9.687342296099999,0.07605272215565292,-0.0015271630954950385,-0.04382958084070761,0.0413,0.4478600000000001,-0.4620000000000001,14.5,0,13668,11493,13602,32761,22.3798046875,157858,17.396096311060166,999.1725301705255,0,,,,N/A
2024-03-17T16:28:09,-0.99720881855,2.4574288101999997,9.744171832849998,0.036193765363232405,-0.0003054326190990077,-0.04886921905584123,0.04046,0.4473000000000001,-0.44632000000000005,14.5,0,13691,11505,13609,32786,22.191328125,155101,17.38130856965867,999.1695270957875,0,,,,N/A
2024-03-17T16:28:09,-1.0205388389,2.4358934068,9.705288465599999,0.04306599929296009,0.0,-0.0435241482216086,0.04326000000000001,0.43834,-0.44954,15.5,0,13691,11505,13609,32786,22.191328125,155101,17.38130856965867,999.1695270957875,0,,,,N/A
2024-03-17T16:28:09,-1.0432706536,2.4382862293999996,9.719047195549999,0.039706240482871004,0.0012217304763960308,-0.04520402762665314,0.0441,0.46102000000000004,-0.4466,14.5,0,13691,11505,13609,32786,22.191328125,155101,17.38130856965867,999.1695270957875,0,,,,N/A
2024-03-17T16:28:09,-1.0145567824,2.4323041728999995,9.71665437295,0.039858956792420505,0.003054326190990077,-0.04550946024575215,0.038220000000000004,0.44898000000000005,-0.4536,14.5,0,13691,11505,13609,32786,22.191328125,155101,17.38130856965867,999.1695270957875,0,,,,N/A
2024-03-17T16:28:09,-0.9978070242,2.4275185276999998,9.714261550349999,0.038942658935123484,-0.0012217304763960308,-0.04505131131710364,0.04018000000000001,0.45038000000000006,-0.4461800000000001,14.5,0,13691,11505,13609,32786,22.191328125,155101,17.38130856965867,999.1695270957875,0,,,,N/A
2024-03-17T16:28:09,-0.9571290399999999,2.4610180441,9.789635462249999,0.038331793696925465,0.0019853120241435504,-0.041386119887915546,0.04018000000000001,0.45038000000000006,-0.4461800000000001,14.5,0,13691,11505,13609,32786,22.191328125,155101,17.38130856965867,999.1695270957875,0,,,,N/A
2024-03-17T16:28:09,-0.9906285563999999,2.476571391,9.774680320999998,0.039400807863771994,0.0035124751196385882,-0.04550946024575215,0.045500000000000006,0.4461800000000001,-0.44212000000000007,14.5,0,13691,11505,13609,32786,22.036640625,152992,17.39345023225046,999.1684259105318,0,,,,N/A
2024-03-17T16:28:10,-0.9906285563999999,2.47358036275,9.75733235715,0.0435241482216086,0.0015271630954950385,-0.04276056667386108,0.038220000000000004,0.44394000000000006,-0.43666000000000005,14.5,0,13704,11511,13617,32805,22.147578125,163359,17.434430074478904,999.154766518,0,,,,N/A
2024-03-17T16:28:10,-0.99242317335,2.43888443505,9.6598248362,0.03756821214917795,-0.004123340357836604,-0.041080687268816536,0.042140000000000004,0.44310000000000005,-0.44310000000000005,14.5,0,13704,11511,13617,32805,22.147578125,163359,17.434430074478904,999.154766518,0,,,,N/A
2024-03-17T16:28:10,-0.9864411168499999,2.44008084635,9.7208418125,0.040622538340168025,0.0012217304763960308,-0.04489859500755413,0.050260000000000006,0.4548600000000001,-0.4432400000000001,15.5,0,13704,11511,13617,32805,22.147578125,163359,17.434430074478904,999.154766518,0,,,,N/A
2024-03-17T16:28:10,-1.0175478106499998,2.4436700802499995,9.77288570405,0.04001167310197001,-0.003207042500539581,-0.04550946024575215,0.051660000000000005,0.44702000000000003,-0.43596,14.5,0,13704,11511,13617,32805,22.147578125,163359,17.434430074478904,999.154766518,0,,,,N/A
2024-03-17T16:28:10,-1.03070833495,2.45683060455,9.719047195549999,0.04260785036431157,0.0056505034533316425,-0.04123340357836604,0.047740000000000005,0.4478600000000001,-0.44884,14.5,0,13704,11511,13617,32805,22.147578125,163359,17.434430074478904,999.154766518,0,,,,N/A
2024-03-17T16:28:11,-0.9762716207999999,2.4496521367499997,9.72024360685,0.04001167310197001,-0.002901609881440573,-0.0433714319120591,0.03654,0.4461800000000001,-0.44310000000000005,15.5,0,13703,11496,13602,32769,22.0633984375,160104,17.404899543497027,999.1572212997381,0,,,,N/A
2024-03-17T16:28:11,-0.9595218625999999,2.44486649155,9.72502925205,0.04001167310197001,-0.00015271630954950385,-0.0435241482216086,0.05054000000000001,0.44898000000000005,-0.44926000000000005,14.5,0,13703,11496,13602,32769,22.0633984375,160104,17.404899543497027,999.1572212997381,0,,,,N/A
2024-03-17T16:28:11,-1.0265208954,2.4502503424,9.742975421549998,0.04123340357836604,-0.0025961772623415654,-0.0435241482216086,0.05054000000000001,0.44058,-0.43610000000000004,14.5,0,13703,11496,13602,32769,22.0633984375,160104,17.404899543497027,999.1572212997381,0,,,,N/A
2024-03-17T16:28:11,-0.99003035075,2.4598216327999998,9.786644434,0.039858956792420505,-0.002901609881440573,-0.041386119887915546,0.04578,0.43946,-0.43750000000000006,15.5,0,13703,11496,13602,32769,22.0633984375,160104,17.404899543497027,999.1572212997381,0,,,,N/A
2024-03-17T16:28:11,-1.0313065406,2.4490539311,9.64367328365,0.039553524173321496,0.00045814892864851157,-0.04474587869800463,0.04186000000000001,0.44898000000000005,-0.43904000000000004,14.5,0,13703,11496,13602,32769,22.0633984375,160104,17.404899543497027,999.1572212997381,0,,,,N/A
2024-03-17T16:28:12,-1.0157531937,2.4335005842,9.6993064091,0.04230241774521256,0.0,-0.04260785036431157,0.048580000000000005,0.44702000000000003,-0.4478600000000001,14.5,0,13708,11498,13607,32784,21.9333203125,155961,17.393148119436876,999.1537358119472,0,,,,N/A
2024-03-17T16:28:12,-1.0133603711,2.47358036275,9.77886776055,0.041996985126113565,-0.0016798794050445422,-0.04612032548395016,0.037380000000000004,0.44870000000000004,-0.44646,15.5,0,13708,11498,13607,32784,21.9333203125,155961,17.393148119436876,999.1537358119472,0,,,,N/A
2024-03-17T16:28:12,-1.02233345585,2.4538395763,9.7196454012,0.03726277953007894,-0.0015271630954950385,-0.04520402762665314,0.037380000000000004,0.44926000000000005,-0.43946,15.5,0,13708,11498,13607,32784,21.9333203125,155961,17.393148119436876,999.1537358119472,0,,,,N/A
2024-03-17T16:28:12,-1.0253244841,2.4622144553999994,9.718448989899999,0.03466660226773738,0.0015271630954950385,-0.04550946024575215,0.0427,0.44394000000000006,-0.44828,14.5,0,13708,11498,13607,32784,21.9333203125,155961,17.393148119436876,999.1537358119472,0,,,,N/A
2024-03-17T16:28:12,-1.07976119825,2.4436700802499995,9.738787982,0.03924809155422249,0.00015271630954950385,-0.0435241482216086,0.03542,0.44282000000000005,-0.43918000000000007,14.5,0,13708,11498,13607,32784,21.9333203125,155961,17.393148119436876,999.1537358119472,0,,,,N/A
2024-03-17T16:28:13,-0.9290133744499999,2.4574288101999997,9.7567341515,0.03726277953007894,0.001069014166846527,-0.04459316238845512,0.04718000000000001,0.44282000000000005,-0.44170000000000004,14.5,0,13730,11508,13619,32831,21.85265625,155817,17.409111530261136,999.1547708556291,0,,,,N/A
2024-03-17T16:28:13,-1.0450652705499999,2.4346969955,9.753144917599998,0.0357356164345839,-0.0027488935718910697,-0.04612032548395016,0.04578,0.44058,-0.44898000000000005,14.5,0,13730,11508,13619,32831,21.85265625,155817,17.409111530261136,999.1547708556291,0,,,,N/A
2024-03-17T16:28:13,-1.00678010895,2.4753749797,9.7782695549,0.039095375244672985,-0.0015271630954950385,-0.041996985126113565,0.046900000000000004,0.44870000000000004,-0.43526000000000004,14.5,0,13730,11508,13619,32831,21.85265625,155817,17.409111530261136,999.1547708556291,0,,,,N/A
2024-03-17T16:28:13,-1.0420742422999998,2.4502503424,9.81356368825,0.038637226316024474,0.0006108652381980154,-0.041996985126113565,0.046900000000000004,0.44870000000000004,-0.43638000000000005,14.5,0,13730,11508,13619,32831,21.85265625,155817,17.409111530261136,999.1547708556291,0,,,,N/A
2024-03-17T16:28:13,-1.01395857675,2.4681965119,9.714261550349999,0.0003054326190990077,0.0006108652381980154,-0.043676864531158106,0.04718000000000001,0.4531800000000001,-0.43638000000000005,14.5,0,13730,11508,13619,32831,21.85265625,155817,17.409111530261136,999.1547708556291,0,,,,N/A
2024-03-17T16:28:14,-1.0175478106499998,2.4490539311,9.7196454012,0.03604104905368291,-0.0015271630954950385,-0.04413501345980661,0.04522,0.44338000000000005,-0.4537400000000001,14.5,0,13767,11526,13636,32875,21.7659375,153689,17.424760920990206,999.1600484810734,0,,,,N/A
2024-03-17T16:28:14,-1.1114660977,2.4538395763,9.769894675799998,0.040317105721069016,-0.0015271630954950385,-0.04260785036431157,0.04494000000000001,0.45038000000000006,-0.44982000000000005,14.5,0,13767,11526,13636,32875,21.7659375,153689,17.424760920990206,999.1600484810734,0,,,,N/A
2024-03-17T16:28:14,-1.0109675485,2.476571391,9.774680320999998,0.04214970143566306,0.0027488935718910697,-0.04596760917440065,0.04102,0.44506000000000007,-0.44114000000000003,14.5,0,13767,11526,13636,32875,21.7659375,153689,17.424760920990206,999.1600484810734,0,,,,N/A
2024-03-17T16:28:14,-0.9888339394499999,2.4897319152999997,9.72622566335,0.038484510006474966,-0.003207042500539581,-0.04276056667386108,0.04102,0.44506000000000007,-0.44114000000000003,14.5,0,13767,11526,13636,32875,21.7659375,153689,17.424760920990206,999.1600484810734,0,,,,N/A
2024-03-17T16:28:14,-1.0061819033,2.4670001006,9.894321451,0.041386119887915546,0.0027488935718910697,-0.0433714319120591,0.0483,0.44478,-0.44184,15.5,0,13767,11526,13636,32875,21.7659375,153689,17.424760920990206,999.1600484810734,0,,,,N/A
2024-03-17T16:28:14,-0.9864411168499999,2.47597318535,9.728020280299999,0.04230241774521256,-0.0012217304763960308,-0.04734205596034619,0.0427,0.43862000000000007,-0.44520000000000004,14.5,0,13767,11526,13636,32875,21.7659375,153689,17.424760920990206,999.1600484810734,0,,,,N/A
2024-03-17T16:28:14,-1.0271191010499998,2.4394826406999996,9.799206752649999,0.03604104905368291,0.002138028333693054,-0.041386119887915546,0.03934,0.44842000000000004,-0.4426800000000001,14.5,0,13767,11526,13636,32875,21.6981640625,152027,17.451450035411742,999.159072892917,0,,,,N/A
2024-03-17T16:28:15,-0.9798608546999998,2.46400907235,9.7375915707,0.038789942625573975,0.0025961772623415654,-0.0435241482216086,0.04326000000000001,0.45402000000000003,-0.4494,15.5,0,13783,11528,13641,32890,21.876875,161948,17.521117297999293,999.1394422640197,0,,,,N/A
2024-03-17T16:28:15,-0.9475577495999999,2.4538395763,9.774680320999998,0.041691552507014555,0.0016798794050445422,-0.04505131131710364,0.04662,0.44254000000000004,-0.43806000000000006,14.5,0,13783,11528,13641,32890,21.876875,161948,17.521117297999293,999.1394422640197,0,,,,N/A
2024-03-17T16:28:15,-0.9834500885999999,2.4418754632999997,9.754341328899999,0.038331793696925465,0.00015271630954950385,-0.04382958084070761,0.048580000000000005,0.45822,-0.45052000000000003,14.5,0,13783,11528,13641,32890,21.876875,161948,17.521117297999293,999.1394422640197,0,,,,N/A
2024-03-17T16:28:15,-1.0037890807,2.4693929231999996,9.784849817049999,0.04230241774521256,0.0009162978572970231,-0.04581489286485116,0.048580000000000005,0.45822,-0.45052000000000003,14.5,0,13783,11528,13641,32890,21.876875,161948,17.521117297999293,999.1394422640197,0,,,,N/A
2024-03-17T16:28:15,-0.9966106129,2.4538395763,9.775876732299999,0.037110063220529434,0.0003054326190990077,-0.04153883619746505,0.039060000000000004,0.45038000000000006,-0.4461800000000001,14.5,0,13783,11528,13641,32890,21.876875,161948,17.521117297999293,999.1394422640197,0,,,,N/A
2024-03-17T16:28:16,-0.9990034354999999,2.42333108815,9.73699336505,0.04214970143566306,0.0,-0.041691552507014555,0.04746000000000001,0.4467400000000001,-0.4555600000000001,15.5,0,13846,11560,13690,33048,21.857734375,157710,17.510050955040516,999.1542134450895,0,,,,N/A
2024-03-17T16:28:16,-0.9990034354999999,2.45443778195,9.742975421549998,0.04520402762665314,0.002901609881440573,-0.04291328298341058,0.050820000000000004,0.43946,-0.44408000000000003,15.5,0,13846,11560,13690,33048,21.857734375,157710,17.510050955040516,999.1542134450895,0,,,,N/A
2024-03-17T16:28:16,-0.9894321450999999,2.4622144553999994,9.77049288145,0.038179077387375956,-0.00045814892864851157,-0.043982297150257116,0.038220000000000004,0.4467400000000001,-0.44646,14.5,0,13846,11560,13690,33048,21.857734375,157710,17.510050955040516,999.1542134450895,0,,,,N/A
2024-03-17T16:28:16,-1.04745809315,2.4454646972,9.7567341515,0.04123340357836604,0.0003054326190990077,-0.038179077387375956,0.038220000000000004,0.4467400000000001,-0.44646,15.5,0,13846,11560,13690,33048,21.857734375,157710,17.510050955040516,999.1542134450895,0,,,,N/A
2024-03-17T16:28:16,-1.00199446375,2.4813570361999995,9.75613594585,0.039400807863771994,-0.0019853120241435504,-0.039400807863771994,0.0427,0.44646,-0.4543000000000001,15.5,0,13846,11560,13690,33048,21.857734375,157710,17.510050955040516,999.1542134450895,0,,,,N/A
2024-03-17T16:28:17,-1.0181460163,2.4664018949499997,9.82433138995,0.04046982203061852,0.0003054326190990077,-0.04673119072214818,0.039900000000000005,0.44422,-0.45038000000000006,14.5,0,13902,11597,13734,33174,21.78078125,154817,17.506059796828964,999.1435783065423,0,,,,N/A
2024-03-17T16:28:17,-0.9912267620499999,2.4825534474999995,9.7112705221,0.03634648167278191,-0.00015271630954950385,-0.04596760917440065,0.04326000000000001,0.44814000000000004,-0.43792000000000003,14.5,0,13902,11597,13734,33174,21.78078125,154817,17.506059796828964,999.1435783065423,0,,,,N/A
2024-03-17T16:28:17,-0.9846464998999999,2.4550359876,9.752546711949998,0.04123340357836604,-0.0007635815477475193,-0.041386119887915546,0.04326000000000001,0.44814000000000004,-0.43792000000000003,14.5,0,13902,11597,13734,33174,21.78078125,154817,17.506059796828964,999.1435783065423,0,,,,N/A
2024-03-17T16:28:17,-0.9577272456499999,2.47597318535,9.6885387074,0.03588833274413341,-0.0015271630954950385,-0.04046982203061852,0.041580000000000006,0.4473000000000001,-0.45276000000000005,14.5,0,13902,11597,13734,33174,21.78078125,154817,17.506059796828964,999.1435783065423,0,,,,N/A
2024-03-17T16:28:17,-1.0289137179999999,2.4430718745999997,9.77288570405,0.036193765363232405,0.0035124751196385882,-0.0435241482216086,0.04746000000000001,0.4473000000000001,-0.4571,15.5,0,13902,11597,13734,33174,21.78078125,154817,17.506059796828964,999.1435783065423,0,,,,N/A
2024-03-17T16:28:18,-1.0414760366499998,2.44845572545,9.76690364755,0.037110063220529434,0.0015271630954950385,-0.04428772976935611,0.04886000000000001,0.45094000000000006,-0.43624000000000007,15.5,0,13950,11623,13765,33265,21.7094921875,154817,17.522503538397228,999.1527982863279,0,,,,N/A
2024-03-17T16:28:18,-1.07018990785,2.41495620905,9.8153583052,0.03756821214917795,-0.001069014166846527,-0.04566217655530165,0.04886000000000001,0.4473000000000001,-0.44744000000000006,15.5,0,13950,11623,13765,33265,21.7094921875,154817,17.522503538397228,999.1527982863279,0,,,,N/A
2024-03-17T16:28:18,-0.9996016411499998,2.46400907235,9.758528768449999,0.038789942625573975,0.00015271630954950385,-0.04260785036431157,0.04886000000000001,0.4473000000000001,-0.44744000000000006,14.5,0,13950,11623,13765,33265,21.7094921875,154817,17.522503538397228,999.1527982863279,0,,,,N/A
2024-03-17T16:28:18,-0.9846464998999999,2.4508485480499997,9.789635462249999,0.04245513405476207,0.0038179077387375964,-0.04489859500755413,0.05054000000000001,0.45402000000000003,-0.44296,15.5,0,13999,11650,13793,33351,21.7094921875,154817,17.522503538397228,999.1527982863279,0,,,,N/A
2024-03-17T16:28:18,-1.0073783146,2.43409878985,9.76331441365,0.04260785036431157,0.0,-0.04566217655530165,0.048580000000000005,0.44478,-0.43568000000000007,15.5,0,13999,11650,13793,33351,21.7094921875,154817,17.522503538397228,999.1527982863279,0,,,,N/A
2024-03-17T16:28:19,-0.9864411168499999,2.4628126610499996,9.6993064091,0.038484510006474966,0.0015271630954950385,-0.04291328298341058,0.044660000000000005,0.45626000000000005,-0.45122,15.5,0,14036,11667,13810,33421,21.6471875,152577,17.544447279203325,999.1589737853194,0,,,,N/A
2024-03-17T16:28:19,-1.0420742422999998,2.4502503424,9.75733235715,0.03466660226773738,-0.0015271630954950385,-0.04550946024575215,0.044660000000000005,0.4529,-0.4426800000000001,14.5,0,14036,11667,13810,33421,21.6471875,152577,17.544447279203325,999.1589737853194,0,,,,N/A
2024-03-17T16:28:19,-1.0187442219499998,2.45802701585,9.7950193131,0.03756821214917795,0.003970624048287101,-0.04444044607890562,0.044660000000000005,0.4529,-0.4426800000000001,15.5,0,14036,11667,13810,33421,21.6471875,152577,17.544447279203325,999.1589737853194,0,,,,N/A
2024-03-17T16:28:19,-0.9930213789999999,2.45563419325,9.674181771799999,0.041080687268816536,-0.0015271630954950385,-0.04520402762665314,0.04354000000000001,0.45038000000000006,-0.44534,14.5,0,14036,11667,13810,33421,21.6471875,152577,17.544447279203325,999.1589737853194,0,,,,N/A
2024-03-17T16:28:19,-1.0127621654499999,2.4454646972,9.750752095,0.038637226316024474,-0.0007635815477475193,-0.04077525464971753,0.052500000000000005,0.45402000000000003,-0.44842000000000004,14.5,0,14036,11667,13810,33421,21.6471875,152577,17.544447279203325,999.1589737853194,0,,,,N/A
2024-03-17T16:28:19,-0.9828518829499999,2.3216361276499997,9.81834933345,0.04566217655530165,0.0013744467859455349,-0.04474587869800463,0.052500000000000005,0.45402000000000003,-0.44842000000000004,15.5,0,14036,11667,13810,33421,21.6471875,152577,17.544447279203325,999.1589737853194,0,,,,N/A
2024-03-17T16:28:19,-1.01395857675,2.4562323989,9.713663344699999,0.04077525464971753,0.00045814892864851157,-0.04382958084070761,0.048580000000000005,0.45654,-0.44352,14.5,0,14036,11667,13810,33421,21.6471875,152577,17.544447279203325,999.1589737853194,0,,,,N/A
2024-03-17T16:28:20,-1.0414760366499998,2.43409878985,9.757930562799999,0.04016438941151951,-0.0013744467859455349,-0.041386119887915546,0.04186000000000001,0.4526200000000001,-0.43666000000000005,14.5,0,14062,11675,13826,33481,21.5950390625,151210,17.57195358719899,999.162258467153,0,,,,N/A
2024-03-17T16:28:20,-1.0426724479499998,2.4478575198,9.677771005699999,0.036499197982331415,0.0,-0.04459316238845512,0.04718000000000001,0.44842000000000004,-0.44282000000000005,14.5,0,14062,11675,13826,33481,21.5950390625,151210,17.57195358719899,999.162258467153,0,,,,N/A
2024-03-17T16:28:20,-0.9918249676999998,2.4741785683999997,9.746564655449998,0.04260785036431157,0.0006108652381980154,-0.04474587869800463,0.047740000000000005,0.4529,-0.44100000000000006,14.5,0,14062,11675,13826,33481,21.5950390625,151210,17.57195358719899,999.162258467153,0,,,,N/A
2024-03-17T16:28:20,-1.0342975688499998,2.43409878985,9.8093762487,0.04306599929296009,0.001069014166846527,-0.04413501345980661,0.0483,0.4461800000000001,-0.43316000000000004,15.5,0,14062,11675,13826,33481,21.5950390625,151210,17.57195358719899,999.162258467153,0,,,,N/A
2024-03-17T16:28:20,-1.02352986715,2.43409878985,9.73340413115,0.040622538340168025,0.0,-0.041386119887915546,0.04914000000000001,0.44646,-0.44338000000000005,14.5,0,14062,11675,13826,33481,21.5950390625,151210,17.57195358719899,999.162258467153,0,,,,N/A
2024-03-17T16:28:21,-1.0295119236499999,2.40418850735,9.731609514199999,0.0357356164345839,0.002138028333693054,-0.039858956792420505,0.052500000000000005,0.45346000000000003,-0.43106000000000005,15.5,0,14123,11695,13866,33628,21.553828125,149601,17.594993171837793,999.1639371224196,0,,,,N/A
2024-03-17T16:28:21,-1.09531454515,2.4502503424,9.8727860476,0.04245513405476207,-0.0003054326190990077,-0.04428772976935611,0.050820000000000004,0.44534,-0.43876000000000004,15.5,0,14123,11695,13866,33628,21.553828125,149601,17.594993171837793,999.1639371224196,0,,,,N/A
2024-03-17T16:28:21,-1.0384850084,2.4693929231999996,9.757930562799999,0.040317105721069016,0.0022907446432425577,-0.048258353817643214,0.05222,0.4501,-0.44002,14.5,0,14123,11695,13866,33628,21.553828125,149601,17.594993171837793,999.1639371224196,0,,,,N/A
2024-03-17T16:28:21,-0.9774680320999999,2.44486649155,9.710074110799999,0.03756821214917795,-0.00045814892864851157,-0.04550946024575215,0.0539,0.44870000000000004,-0.43792000000000003,14.5,0,14123,11695,13866,33628,21.553828125,149601,17.594993171837793,999.1639371224196,0,,,,N/A
2024-03-17T16:28:21,-1.00199446375,2.2983061072999997,9.731609514199999,0.03695734691097993,0.0003054326190990077,-0.039858956792420505,0.0539,0.45570000000000005,-0.44114000000000003,15.5,0,14123,11695,13866,33628,21.553828125,149601,17.594993171837793,999.1639371224196,0,,,,N/A
2024-03-17T16:28:22,-0.9744770038499999,2.44606290285,9.748957478049999,0.039858956792420505,-0.00015271630954950385,-0.04657847441259867,0.04942,0.4520600000000001,-0.4459,15.5,0,14172,11720,13901,33737,21.523359375,149072,17.638743131765946,999.1672368359182,0,,,,N/A
2024-03-17T16:28:22,-0.9583254512999998,2.4909283265999997,9.74177901025,0.039095375244672985,0.0006108652381980154,-0.043676864531158106,0.046340000000000006,0.44982000000000005,-0.43512000000000006,15.5,0,14172,11720,13901,33737,21.523359375,149072,17.638743131765946,999.1672368359182,0,,,,N/A
2024-03-17T16:28:22,-1.0127621654499999,2.45563419325,9.777073143599997,0.039095375244672985,-0.0009162978572970231,-0.04550946024575215,0.046060000000000004,0.4526200000000001,-0.43638000000000005,15.5,0,14172,11720,13901,33737,21.523359375,149072,17.638743131765946,999.1672368359182,0,,,,N/A
2024-03-17T16:28:22,-0.9774680320999999,2.4370898180999996,9.678369211349999,0.04260785036431157,0.0009162978572970231,-0.0433714319120591,0.046060000000000004,0.4520600000000001,-0.44366,15.5,0,14172,11720,13901,33737,21.523359375,149072,17.638743131765946,999.1672368359182,0,,,,N/A
2024-03-17T16:28:22,-1.0486545044499997,2.47477677405,9.776474937949999,0.03726277953007894,-0.0012217304763960308,-0.04214970143566306,0.046060000000000004,0.4520600000000001,-0.44366,15.5,0,14172,11720,13901,33737,21.523359375,149072,17.638743131765946,999.1672368359182,0,,,,N/A
2024-03-17T16:28:23,-1.0103693428499998,2.5914268758,9.794421107449999,0.03665191429188092,-0.002138028333693054,-0.041080687268816536,0.046060000000000004,0.4473000000000001,-0.4508000000000001,15.5,0,14269,11775,13970,33945,21.5005078125,146739,17.677862172103097,999.1670538469792,0,,,,N/A
2024-03-17T16:28:23,-0.9954142015999999,2.4789642136,9.7818587888,0.03802636107782646,0.0035124751196385882,-0.0435241482216086,0.04494000000000001,0.44954,-0.44450000000000006,15.5,0,14269,11775,13970,33945,21.5005078125,146739,17.677862172103097,999.1670538469792,0,,,,N/A
2024-03-17T16:28:23,-1.0187442219499998,2.4598216327999998,9.799206752649999,0.03756821214917795,0.0013744467859455349,-0.04566217655530165,0.043820000000000005,0.45038000000000006,-0.45458000000000004,15.5,0,14269,11775,13970,33945,21.5005078125,146739,17.677862172103097,999.1670538469792,0,,,,N/A
2024-03-17T16:28:23,-1.0073783146,2.4628126610499996,9.669994332249999,0.039400807863771994,0.0024434609527920616,-0.04321871560250959,0.038500000000000006,0.45038000000000006,-0.44898000000000005,15.5,0,14269,11775,13970,33945,21.5005078125,146739,17.677862172103097,999.1670538469792,0,,,,N/A
2024-03-17T16:28:23,-1.00797652025,2.42093826555,9.793224696149998,0.03924809155422249,0.0019853120241435504,-0.04612032548395016,0.038500000000000006,0.44954,-0.45458000000000004,15.5,0,14269,11775,13970,33945,21.5005078125,146739,17.677862172103097,999.1670538469792,0,,,,N/A
2024-03-17T16:28:24,-0.9846464998999999,2.44486649155,9.732207719849999,0.041386119887915546,-0.0027488935718910697,-0.04505131131710364,0.047740000000000005,0.43946,-0.44072,15.5,0,14310,11795,13998,34031,21.4844921875,144850,17.747598645846615,999.1691933044677,0,,,,N/A
2024-03-17T16:28:24,-1.0145567824,2.4693929231999996,9.855438083749998,0.041386119887915546,0.0012217304763960308,-0.04459316238845512,0.0413,0.4473000000000001,-0.4443600000000001,14.5,0,14310,11795,13998,34031,21.4844921875,144850,17.747598645846615,999.1691933044677,0,,,,N/A
2024-03-17T16:28:24,-0.9984052298499999,2.4681965119,9.7555377402,0.03604104905368291,-0.0013744467859455349,-0.0433714319120591,0.045500000000000006,0.4473000000000001,-0.4494,15.5,0,14310,11795,13998,34031,21.4844921875,144850,17.747598645846615,999.1691933044677,0,,,,N/A
2024-03-17T16:28:24,-1.07497555305,2.47716959665,9.832706269049998,0.038179077387375956,0.0019853120241435504,-0.04642575810304917,0.046340000000000006,0.44842000000000004,-0.4389,15.5,0,14310,11795,13998,34031,21.4844921875,144850,17.747598645846615,999.1691933044677,0,,,,N/A
2024-03-17T16:28:24,-1.0073783146,2.4358934068,9.7567341515,0.038179077387375956,0.0016798794050445422,-0.043676864531158106,0.046340000000000006,0.44842000000000004,-0.4389,15.5,0,14310,11795,13998,34031,21.4844921875,144850,17.747598645846615,999.1691933044677,0,,,,N/A
2024-03-17T16:28:24,-1.0767701699999999,2.44486649155,9.7651090306,0.038179077387375956,0.004581489286485115,-0.04474587869800463,0.046900000000000004,0.44758000000000003,-0.43904000000000004,14.5,0,14310,11795,13998,34031,21.4844921875,144850,17.747598645846615,999.1691933044677,0,,,,N/A
2024-03-17T16:28:24,-0.9870393224999998,2.44845572545,9.775278526649998,0.04123340357836604,0.0024434609527920616,-0.04321871560250959,0.0539,0.44170000000000004,-0.45178,15.5,0,14310,11795,13998,34031,21.4731640625,142646,17.83275603241216,999.1683748150017,0,,,,N/A
2024-03-17T16:28:25,-1.0342975688499998,2.4352952011499998,9.7794659662,0.03512475119638588,-0.0007635815477475193,-0.04276056667386108,0.04494000000000001,0.44338000000000005,-0.43498000000000003,15.5,0,14350,11813,14031,34133,21.6930859375,153409,17.90493485232627,999.1419221043146,0,,,,N/A
2024-03-17T16:28:25,-0.9320044027,2.46879471755,9.705886671250001,0.03497203488683638,0.0033597588100890844,-0.043982297150257116,0.0413,0.4467400000000001,-0.4438000000000001,15.5,0,14350,11813,14031,34133,21.6930859375,153409,17.90493485232627,999.1419221043146,0,,,,N/A
2024-03-17T16:28:25,-1.03070833495,2.44606290285,9.75733235715,0.03924809155422249,-0.0036651914291880926,-0.04321871560250959,0.04942,0.44506000000000007,-0.42980000000000007,15.5,0,14350,11813,14031,34133,21.6930859375,153409,17.90493485232627,999.1419221043146,0,,,,N/A
2024-03-17T16:28:25,-1.0247262784499998,2.2971096959999997,9.750752095,0.04260785036431157,0.0009162978572970231,-0.04001167310197001,0.04942,0.44506000000000007,-0.42980000000000007,15.5,0,14350,11813,14031,34133,21.6930859375,153409,17.90493485232627,999.1419221043146,0,,,,N/A
2024-03-17T16:28:25,-1.0121639597999998,2.4227328824999996,9.77767134925,0.039553524173321496,0.003207042500539581,-0.04596760917440065,0.0427,0.4478600000000001,-0.43904000000000004,15.5,0,14400,11838,14074,34249,21.6930859375,153409,17.90493485232627,999.1419221043146,0,,,,N/A
2024-03-17T16:28:26,-1.00199446375,2.5112673186999994,9.87218784195,0.038789942625573975,0.003054326190990077,-0.04276056667386108,0.03654,0.45094000000000006,-0.43442000000000003,15.5,0,14465,11876,14125,34416,21.709296875,151074,17.946213339462908,999.1507086277575,0,,,,N/A
2024-03-17T16:28:26,-0.97208418125,2.4335005842,9.75733235715,0.0433714319120591,-0.001069014166846527,-0.04703662334124718,0.037380000000000004,0.44954,-0.43750000000000006,15.5,0,14465,11876,14125,34416,21.709296875,151074,17.946213339462908,999.1507086277575,0,,,,N/A
2024-03-17T16:28:26,-0.9930213789999999,2.4717857457999997,9.6753781831,0.037110063220529434,0.001069014166846527,-0.040622538340168025,0.046900000000000004,0.4478600000000001,-0.43526000000000004,15.5,0,14465,11876,14125,34416,21.709296875,151074,17.946213339462908,999.1507086277575,0,,,,N/A
2024-03-17T16:28:26,-0.9990034354999999,2.44127725765,9.851848849849999,0.04153883619746505,0.0015271630954950385,-0.0433714319120591,0.046900000000000004,0.4478600000000001,-0.43526000000000004,15.5,0,14465,11876,14125,34416,21.709296875,151074,17.946213339462908,999.1507086277575,0,,,,N/A
2024-03-17T16:28:26,-0.9846464998999999,2.4305095559499996,9.7363951594,0.04077525464971753,-0.0009162978572970231,-0.04489859500755413,0.04662,0.44338000000000005,-0.4478600000000001,14.5,0,14465,11876,14125,34416,21.709296875,151074,17.946213339462908,999.1507086277575,0,,,,N/A
2024-03-17T16:28:27,-0.92542414055,2.45563419325,9.809974454349998,0.039706240482871004,0.0025961772623415654,-0.043982297150257116,0.042980000000000004,0.44534,-0.45248,15.5,0,14539,11921,14180,34579,21.664765625,147509,17.994395959295936,999.1611459059603,0,,,,N/A
2024-03-17T16:28:27,-1.0253244841,2.3892333660999996,9.771689292749999,0.039858956792420505,0.0015271630954950385,-0.0435241482216086,0.04242,0.45094000000000006,-0.43848000000000004,15.5,0,14539,11921,14180,34579,21.664765625,147509,17.994395959295936,999.1611459059603,0,,,,N/A
2024-03-17T16:28:27,-1.0121639597999998,2.4508485480499997,9.777073143599997,0.03634648167278191,0.0003054326190990077,-0.04306599929296009,0.04326000000000001,0.44954,-0.4389,15.5,0,14539,11921,14180,34579,21.664765625,147509,17.994395959295936,999.1611459059603,0,,,,N/A
2024-03-17T16:28:27,-1.0295119236499999,2.45802701585,9.84945602725,0.038179077387375956,0.0024434609527920616,-0.04703662334124718,0.04326000000000001,0.44954,-0.4389,14.5,0,14539,11921,14180,34579,21.664765625,147509,17.994395959295936,999.1611459059603,0,,,,N/A
2024-03-17T16:28:27,-1.0061819033,2.4622144553999994,9.772287498399999,0.03924809155422249,-0.0006108652381980154,-0.0433714319120591,0.03962,0.45094000000000006,-0.44450000000000006,15.5,0,14539,11921,14180,34579,21.664765625,147509,17.994395959295936,999.1611459059603,0,,,,N/A
2024-03-17T16:28:28,-1.00797652025,2.42333108815,9.783653405749998,0.03924809155422249,-0.038942658935123484,-0.04474587869800463,0.04802,0.4501,-0.44394000000000006,15.5,0,14654,11984,14258,34819,21.6190625,145600,18.047584627352233,999.1608065278346,0,,,,N/A
2024-03-17T16:28:28,-0.9738787981999999,2.4466611085,9.7064848769,0.038331793696925465,-0.002138028333693054,-0.04230241774521256,0.050260000000000006,0.44310000000000005,-0.4389,15.5,0,14654,11984,14258,34819,21.6190625,145600,18.047584627352233,999.1608065278346,0,,,,N/A
2024-03-17T16:28:28,-1.0037890807,2.44845572545,9.767501853199999,0.03772092845872745,0.0009162978572970231,-0.04276056667386108,0.0441,0.45066,-0.45472,15.5,0,14654,11984,14258,34819,21.6190625,145600,18.047584627352233,999.1608065278346,0,,,,N/A
2024-03-17T16:28:28,-0.99242317335,2.4508485480499997,9.8069834261,0.036804630601430424,0.0044287729769356115,-0.04688390703169768,0.0441,0.45066,-0.45472,15.5,0,14654,11984,14258,34819,21.6190625,145600,18.047584627352233,999.1608065278346,0,,,,N/A
2024-03-17T16:28:28,-1.0175478106499998,2.4693929231999996,9.727422074649999,0.041080687268816536,0.0012217304763960308,-0.041080687268816536,0.044660000000000005,0.4473000000000001,-0.44716,15.5,0,14654,11984,14258,34819,21.6190625,145600,18.047584627352233,999.1608065278346,0,,,,N/A
2024-03-17T16:28:29,-1.0372885971,2.464607278,9.7112705221,0.03726277953007894,0.0024434609527920616,-0.04734205596034619,0.044660000000000005,0.45178,-0.43302,15.5,0,14694,12001,14287,34918,21.580390625,145224,18.091045392679884,999.1595590425543,0,,,,N/A
2024-03-17T16:28:29,-1.0695917021999999,2.4095723582,9.7399843933,0.0433714319120591,0.004123340357836604,-0.04474587869800463,0.05054000000000001,0.4501,-0.44114000000000003,15.5,0,14694,12001,14287,34918,21.580390625,145224,18.091045392679884,999.1595590425543,0,,,,N/A
2024-03-17T16:28:29,-1.0043872863499999,2.4705893344999996,9.774680320999998,0.040622538340168025,-0.0003054326190990077,-0.04321871560250959,0.05054000000000001,0.4501,-0.44114000000000003,15.5,0,14694,12001,14287,34918,21.580390625,145224,18.091045392679884,999.1595590425543,0,,,,N/A
2024-03-17T16:28:29,-1.0540383553,2.46400907235,9.8548398781,0.041996985126113565,-0.0025961772623415654,-0.04474587869800463,0.04802,0.4478600000000001,-0.43666000000000005,15.5,0,14694,12001,14287,34918,21.580390625,145224,18.091045392679884,999.1595590425543,0,,,,N/A
2024-03-17T16:28:29,-0.99601240725,2.4239292938,9.76690364755,0.043982297150257116,0.0015271630954950385,-0.04535674393620265,0.0441,0.45066,-0.4501,15.5,0,14694,12001,14287,34918,21.580390625,145224,18.091045392679884,999.1595590425543,0,,,,N/A
2024-03-17T16:28:29,-0.99242317335,2.4574288101999997,9.7806623775,0.03543018381548489,0.0033597588100890844,-0.041996985126113565,0.04186000000000001,0.44926000000000005,-0.43862000000000007,15.5,0,14694,12001,14287,34918,21.580390625,145224,18.091045392679884,999.1595590425543,0,,,,N/A
2024-03-17T16:28:29,-1.01635139935,2.46879471755,9.8069834261,0.038637226316024474,-0.00045814892864851157,-0.04321871560250959,0.0441,0.4531800000000001,-0.43820000000000003,15.5,0,14694,12001,14287,34918,21.550703125,145851,18.124875672784768,999.1623695422048,0,,,,N/A
2024-03-17T16:28:30,-1.08574325475,2.4532413706500003,9.826724212550001,0.039553524173321496,-0.0016798794050445422,-0.04444044607890562,0.050260000000000006,0.45038000000000006,-0.44310000000000005,15.5,0,14793,12051,14353,35136,21.756171875,157416,18.18648894796967,999.1370084934528,0,,,,N/A
2024-03-17T16:28:30,-1.03908321405,2.4335005842,9.752546711949998,0.039858956792420505,0.0009162978572970231,-0.04214970143566306,0.043820000000000005,0.44506000000000007,-0.42882000000000003,15.5,0,14793,12051,14353,35136,21.756171875,157416,18.18648894796967,999.1370084934528,0,,,,N/A
2024-03-17T16:28:30,-0.9726823868999999,2.4317059672499997,9.7555377402,0.041386119887915546,0.0012217304763960308,-0.04276056667386108,0.043820000000000005,0.44506000000000007,-0.42882000000000003,15.5,0,14793,12051,14353,35136,21.756171875,157416,18.18648894796967,999.1370084934528,0,,,,N/A
2024-03-17T16:28:30,-1.0576275892,2.43649161245,9.8045906035,0.038331793696925465,-0.038942658935123484,-0.04123340357836604,0.0413,0.44926000000000005,-0.4461800000000001,15.5,0,14793,12051,14353,35136,21.756171875,157416,18.18648894796967,999.1370084934528,0,,,,N/A
2024-03-17T16:28:30,-1.0432706536,2.4442682858999993,9.8321080634,0.04382958084070761,-0.0018325957145940463,-0.04260785036431157,0.038220000000000004,0.44870000000000004,-0.44016000000000005,15.5,0,14793,12051,14353,35136,21.756171875,157416,18.18648894796967,999.1370084934528,0,,,,N/A
2024-03-17T16:28:31,-1.0420742422999998,2.428714939,9.820742156049999,0.038637226316024474,0.0007635815477475193,-0.04077525464971753,0.0427,0.44422,-0.44548000000000004,15.5,0,14826,12064,14373,35201,21.7596875,153409,18.171484512708307,999.1445237805799,0,,,,N/A
2024-03-17T16:28:31,-1.0127621654499999,2.45802701585,9.7794659662,0.04046982203061852,-0.0033597588100890844,-0.04474587869800463,0.04102,0.45346000000000003,-0.44632000000000005,15.5,0,14826,12064,14373,35201,21.7596875,153409,18.171484512708307,999.1445237805799,0,,,,N/A
2024-03-17T16:28:31,-0.99720881855,2.45802701585,9.744171832849998,0.041844268816564056,0.0,-0.04459316238845512,0.04718000000000001,0.45066,-0.4466,15.5,0,14826,12064,14373,35201,21.7596875,153409,18.171484512708307,999.1445237805799,0,,,,N/A
2024-03-17T16:28:31,-0.9876375281499999,2.4335005842,9.7950193131,0.03924809155422249,0.0019853120241435504,-0.043676864531158106,0.047740000000000005,0.45878,-0.45248,15.5,0,14826,12064,14373,35201,21.7596875,153409,18.171484512708307,999.1445237805799,0,,,,N/A
2024-03-17T16:28:31,-1.00678010895,2.4520449593499998,9.775278526649998,0.0357356164345839,0.0022907446432425577,-0.04734205596034619,0.0427,0.45542,-0.45220000000000005,15.5,0,14826,12064,14373,35201,21.7596875,153409,18.171484512708307,999.1445237805799,0,,,,N/A
2024-03-17T16:28:32,-0.9870393224999998,2.42452749945,9.83509909165,0.0355829001250344,0.0003054326190990077,-0.040622538340168025,0.04662,0.4531800000000001,-0.4389,15.5,0,14857,12079,14396,35278,21.706953125,149734,18.15347070979334,999.1468785982973,0,,,,N/A
2024-03-17T16:28:32,-1.01395857675,2.4418754632999997,9.809974454349998,0.040317105721069016,0.0009162978572970231,-0.041844268816564056,0.04578,0.45150000000000007,-0.44898000000000005,15.5,0,14857,12079,14396,35278,21.706953125,149734,18.15347070979334,999.1468785982973,0,,,,N/A
2024-03-17T16:28:32,-1.03070833495,2.4616162497499996,9.789037256599999,0.04245513405476207,-0.0007635815477475193,-0.04627304179349966,0.05138,0.44506000000000007,-0.43960000000000005,15.5,0,14857,12079,14396,35278,21.706953125,149734,18.15347070979334,999.1468785982973,0,,,,N/A
2024-03-17T16:28:32,-1.05583297225,2.4424736689499995,9.6634140701,0.040622538340168025,-0.00045814892864851157,-0.04428772976935611,0.050820000000000004,0.4459,-0.4502400000000001,15.5,0,14857,12079,14396,35278,21.706953125,149734,18.15347070979334,999.1468785982973,0,,,,N/A
2024-03-17T16:28:32,-0.9858429111999999,2.4263221163999997,9.774680320999998,0.0355829001250344,0.0015271630954950385,-0.04413501345980661,0.050820000000000004,0.4459,-0.4502400000000001,15.5,0,14894,12097,14422,35363,21.706953125,149734,18.15347070979334,999.1468785982973,0,,,,N/A
2024-03-17T16:28:33,-0.9918249676999998,2.4478575198,9.77049288145,0.041691552507014555,0.002901609881440573,-0.0474947722698957,0.05138,0.45038000000000006,-0.44128,15.5,0,14922,12107,14444,35429,21.655,147380,18.145629427047762,999.1522678487368,0,,,,N/A
2024-03-17T16:28:33,-1.0115657541499998,2.46520548365,9.839884736850001,0.038942658935123484,0.0003054326190990077,-0.04123340357836604,0.042140000000000004,0.44478,-0.43694000000000005,15.5,0,14922,12107,14444,35429,21.655,147380,18.145629427047762,999.1522678487368,0,,,,N/A
2024-03-17T16:28:33,-1.00678010895,2.4538395763,9.783653405749998,0.039400807863771994,0.00015271630954950385,-0.04596760917440065,0.04438,0.44926000000000005,-0.44506000000000007,15.5,0,14922,12107,14444,35429,21.655,147380,18.145629427047762,999.1522678487368,0,,,,N/A
2024-03-17T16:28:33,-1.0229316615,2.428714939,9.7950193131,0.036499197982331415,0.0044287729769356115,-0.04657847441259867,0.041580000000000006,0.45402000000000003,-0.44464000000000004,15.5,0,14922,12107,14444,35429,21.655,147380,18.145629427047762,999.1522678487368,0,,,,N/A
2024-03-17T16:28:33,-1.0043872863499999,2.45563419325,9.6849494735,0.039858956792420505,0.0019853120241435504,-0.04596760917440065,0.041580000000000006,0.45402000000000003,-0.44464000000000004,15.5,0,14922,12107,14444,35429,21.655,147380,18.145629427047762,999.1522678487368,0,,,,N/A
2024-03-17T16:28:34,-1.0360921857999998,2.416750826,9.726823868999999,0.04092797095926703,-0.00473420559603462,-0.04123340357836604,0.04914000000000001,0.44338000000000005,-0.44548000000000004,15.5,0,14953,12117,14469,35516,21.6133984375,146612,18.158589920087312,999.1586304775706,0,,,,N/A
2024-03-17T16:28:34,-1.0205388389,2.43649161245,9.884750160599998,0.03588833274413341,-0.0024434609527920616,-0.04612032548395016,0.03934,0.44422,-0.45752000000000004,14.5,0,14953,12117,14469,35516,21.6133984375,146612,18.158589920087312,999.1586304775706,0,,,,N/A
2024-03-17T16:28:34,-1.0271191010499998,2.4658036893,9.7806623775,0.04077525464971753,0.00015271630954950385,-0.049327367984489744,0.04438,0.44562000000000007,-0.44408000000000003,15.5,0,14953,12117,14469,35516,21.6133984375,146612,18.158589920087312,999.1586304775706,0,,,,N/A
2024-03-17T16:28:34,-0.9918249676999998,2.4514467537,9.83629550295,0.036499197982331415,-0.0006108652381980154,-0.0435241482216086,0.0427,0.44814000000000004,-0.44114000000000003,15.5,0,14953,12117,14469,35516,21.6133984375,146612,18.158589920087312,999.1586304775706,0,,,,N/A
2024-03-17T16:28:34,-1.0199406332499998,2.43888443505,9.79202828485,0.039858956792420505,0.0012217304763960308,-0.043676864531158106,0.0427,0.44814000000000004,-0.44114000000000003,15.5,0,14953,12117,14469,35516,21.6133984375,146612,18.158589920087312,999.1586304775706,0,,,,N/A
2024-03-17T16:28:34,-0.9708877699499999,2.4382862293999996,9.773483909699998,0.03924809155422249,-0.0006108652381980154,-0.04459316238845512,0.05054000000000001,0.44478,-0.4555600000000001,15.5,0,14953,12117,14469,35516,21.6133984375,146612,18.158589920087312,999.1586304775706,0,,,,N/A
2024-03-17T16:28:34,-0.99242317335,2.4317059672499997,9.781260583149999,0.040317105721069016,-0.0024434609527920616,-0.04520402762665314,0.04578,0.44702000000000003,-0.4531800000000001,15.5,0,14953,12117,14469,35516,21.6133984375,146612,18.158589920087312,999.1586304775706,0,,,,N/A
2024-03-17T16:28:35,-0.97208418125,2.4604198384499996,9.80638522045,0.039858956792420505,0.0027488935718910697,-0.04382958084070761,0.04662,0.4537400000000001,-0.45472,15.5,0,15007,12136,14501,35635,21.579609375,146104,18.15678297129275,999.170673114591,0,,,,N/A
2024-03-17T16:28:35,-0.9786644433999999,2.4490539311,9.7686982645,0.041386119887915546,-0.002138028333693054,-0.04382958084070761,0.04718000000000001,0.45234,-0.44870000000000004,15.5,0,15007,12136,14501,35635,21.579609375,146104,18.15678297129275,999.170673114591,0,,,,N/A
2024-03-17T16:28:35,-1.0289137179999999,2.4622144553999994,9.7974121357,0.0433714319120591,0.0019853120241435504,-0.04657847441259867,0.046900000000000004,0.45514000000000004,-0.45234,15.5,0,15007,12136,14501,35635,21.579609375,146104,18.15678297129275,999.170673114591,0,,,,N/A
2024-03-17T16:28:35,-1.0253244841,2.4358934068,9.750153889349999,0.040622538340168025,-0.0007635815477475193,-0.04886921905584123,0.046900000000000004,0.45514000000000004,-0.45234,15.5,0,15007,12136,14501,35635,21.579609375,146104,18.15678297129275,999.170673114591,0,,,,N/A
2024-03-17T16:28:35,-1.02233345585,2.4496521367499997,9.784849817049999,0.04092797095926703,0.0006108652381980154,-0.04291328298341058,0.045500000000000006,0.4403000000000001,-0.45752000000000004,15.5,0,15007,12136,14501,35635,21.579609375,146104,18.15678297129275,999.170673114591,0,,,,N/A
2024-03-17T16:28:36,-0.9708877699499999,2.45683060455,9.814760099549998,0.03802636107782646,-0.0024434609527920616,-0.043982297150257116,0.046900000000000004,0.44814000000000004,-0.44310000000000005,15.5,0,15031,12144,14522,35690,21.55578125,144602,18.17575512402119,999.1706695770251,0,,,,N/A
2024-03-17T16:28:36,-1.07377914175,2.4670001006,9.6897351187,0.04046982203061852,-0.0015271630954950385,-0.0476474885794452,0.04718000000000001,0.45094000000000006,-0.4467400000000001,15.5,0,15031,12144,14522,35690,21.55578125,144602,18.17575512402119,999.1706695770251,0,,,,N/A
2024-03-17T16:28:36,-1.0103693428499998,2.44127725765,9.794421107449999,0.03787364476827696,0.0015271630954950385,-0.04016438941151951,0.042980000000000004,0.4543000000000001,-0.44772,15.5,0,15031,12144,14522,35690,21.55578125,144602,18.17575512402119,999.1706695770251,0,,,,N/A
2024-03-17T16:28:36,-1.0899306942999998,2.4299113503,9.798010341349999,0.03802636107782646,-0.0012217304763960308,-0.050549098460885775,0.046340000000000006,0.45458000000000004,-0.43274000000000007,15.5,0,15031,12144,14522,35690,21.55578125,144602,18.17575512402119,999.1706695770251,0,,,,N/A
2024-03-17T16:28:36,-1.0043872863499999,2.4346969955,9.789037256599999,0.041386119887915546,0.0003054326190990077,-0.04520402762665314,0.046340000000000006,0.45458000000000004,-0.43274000000000007,15.5,0,15031,12144,14522,35690,21.55578125,144602,18.17575512402119,999.1706695770251,0,,,,N/A
2024-03-17T16:28:37,-1.0414760366499998,2.4466611085,9.7938229018,0.040317105721069016,0.00015271630954950385,-0.043676864531158106,0.04914000000000001,0.45038000000000006,-0.45472,15.5,0,15094,12172,14566,35847,21.53625,144231,18.20002139412543,999.1741468104989,0,,,,N/A
2024-03-17T16:28:37,-0.9948159959499998,2.4634108667000003,9.836893708599998,0.041691552507014555,-0.0006108652381980154,-0.04612032548395016,0.04718000000000001,0.45234,-0.45542,15.5,0,15094,12172,14566,35847,21.53625,144231,18.20002139412543,999.1741468104989,0,,,,N/A
2024-03-17T16:28:37,-1.0313065406,2.43649161245,9.7818587888,0.03726277953007894,0.0016798794050445422,-0.04444044607890562,0.048580000000000005,0.4548600000000001,-0.4461800000000001,15.5,0,15094,12172,14566,35847,21.53625,144231,18.20002139412543,999.1741468104989,0,,,,N/A
2024-03-17T16:28:37,-1.0037890807,2.43649161245,9.78604622835,0.04245513405476207,-0.003207042500539581,-0.04428772976935611,0.048580000000000005,0.4548600000000001,-0.4461800000000001,15.5,0,15094,12172,14566,35847,21.53625,144231,18.20002139412543,999.1741468104989,0,,,,N/A
2024-03-17T16:28:37,-0.9990034354999999,2.46879471755,9.809974454349998,0.03772092845872745,-0.0038179077387375964,-0.04291328298341058,0.052500000000000005,0.44982000000000005,-0.4502400000000001,15.5,0,15094,12172,14566,35847,21.53625,144231,18.20002139412543,999.1741468104989,0,,,,N/A
2024-03-17T16:28:38,-1.0348957745,2.4161526203499997,9.735796953749999,0.04077525464971753,0.00045814892864851157,-0.041691552507014555,0.04102,0.44814000000000004,-0.45276000000000005,15.5,0,15120,12188,14589,35909,21.5216015625,143373,18.229616460776878,999.1679036020131,0,,,,N/A
2024-03-17T16:28:38,-1.09651095645,2.4311077616,9.79561751875,0.04382958084070761,-0.0006108652381980154,-0.04505131131710364,0.04018000000000001,0.44926000000000005,-0.45234,15.5,0,15120,12188,14589,35909,21.5216015625,143373,18.229616460776878,999.1679036020131,0,,,,N/A
2024-03-17T16:28:38,-1.0366903914499999,2.4478575198,9.799206752649999,0.04413501345980661,0.0025961772623415654,-0.043676864531158106,0.04018000000000001,0.44926000000000005,-0.45234,15.5,0,15120,12188,14589,35909,21.5216015625,143373,18.229616460776878,999.1679036020131,0,,,,N/A
2024-03-17T16:28:38,-1.0193424276,2.4634108667000003,9.859625523299998,0.03695734691097993,0.0015271630954950385,-0.04123340357836604,0.0427,0.44870000000000004,-0.45934,15.5,0,15120,12188,14589,35909,21.5216015625,143373,18.229616460776878,999.1679036020131,0,,,,N/A
2024-03-17T16:28:38,-1.03310115755,2.4532413706500003,9.78245699445,0.041386119887915546,0.0013744467859455349,-0.04214970143566306,0.046340000000000006,0.4467400000000001,-0.44800000000000006,15.5,0,15120,12188,14589,35909,21.5216015625,143373,18.229616460776878,999.1679036020131,0,,,,N/A
2024-03-17T16:28:39,-1.11924277115,2.4586252214999997,9.79561751875,0.03756821214917795,-0.0024434609527920616,-0.04214970143566306,0.03962,0.45122,-0.45808000000000004,15.5,0,15136,12197,14605,35942,21.51125,143495,18.254383046264447,999.1704531360086,0,,,,N/A
2024-03-17T16:28:39,-1.00678010895,2.4346969955,9.732805925500001,0.039706240482871004,0.0006108652381980154,-0.04245513405476207,0.035980000000000005,0.44758000000000003,-0.44828,15.5,0,15136,12197,14605,35942,21.51125,143495,18.254383046264447,999.1704531360086,0,,,,N/A
2024-03-17T16:28:39,-1.0271191010499998,2.4454646972,9.75374312325,0.040622538340168025,-0.0015271630954950385,-0.04123340357836604,0.035980000000000005,0.44758000000000003,-0.44828,15.5,0,15136,12197,14605,35942,21.51125,143495,18.254383046264447,999.1704531360086,0,,,,N/A
2024-03-17T16:28:39,-0.9930213789999999,2.4382862293999996,9.7112705221,0.039706240482871004,0.0009162978572970231,-0.04382958084070761,0.04438,0.44758000000000003,-0.44646,15.5,0,15136,12197,14605,35942,21.51125,143495,18.254383046264447,999.1704531360086,0,,,,N/A
2024-03-17T16:28:39,-1.0127621654499999,2.4430718745999997,9.727422074649999,0.038789942625573975,0.0007635815477475193,-0.041691552507014555,0.043820000000000005,0.44702000000000003,-0.45514000000000004,15.5,0,15136,12197,14605,35942,21.51125,143495,18.254383046264447,999.1704531360086,0,,,,N/A
2024-03-17T16:28:39,-0.9996016411499998,2.4430718745999997,9.839286531199999,0.03726277953007894,-0.00045814892864851157,-0.04016438941151951,0.039060000000000004,0.44926000000000005,-0.4520600000000001,15.5,0,15141,12201,14614,35976,21.51125,143495,18.254383046264447,999.1704531360086,0,,,,N/A
2024-03-17T16:28:39,-1.0205388389,2.44008084635,9.749555683699999,0.03497203488683638,-0.0013744467859455349,-0.04413501345980661,0.039060000000000004,0.44926000000000005,-0.4520600000000001,15.5,0,15141,12201,14614,35976,21.5020703125,144974,18.253890186894015,999.1678379377253,0,,,,N/A
2024-03-17T16:28:40,-1.0564311779,2.44127725765,9.750752095,0.03741549583962844,-0.003054326190990077,-0.04306599929296009,0.04102,0.44842000000000004,-0.44814000000000004,15.5,0,15136,12197,14614,35977,21.7243359375,156540,18.331736443884527,999.1451857278146,0,,,,N/A
2024-03-17T16:28:40,-1.0127621654499999,2.4795624192499996,9.830911652099998,0.040622538340168025,0.0018325957145940463,-0.041386119887915546,0.043820000000000005,0.4461800000000001,-0.46228,14.5,0,15136,12197,14614,35977,21.7243359375,156540,18.331736443884527,999.1451857278146,0,,,,N/A
2024-03-17T16:28:40,-1.00199446375,2.4532413706500003,9.816554716499999,0.04153883619746505,-0.0012217304763960308,-0.04276056667386108,0.043820000000000005,0.4461800000000001,-0.46228,15.5,0,15136,12197,14614,35977,21.7243359375,156540,18.331736443884527,999.1451857278146,0,,,,N/A
2024-03-17T16:28:40,-1.0432706536,2.4358934068,9.7878408453,0.0027488935718910697,0.0015271630954950385,-0.04321871560250959,0.041580000000000006,0.44534,-0.45094000000000006,15.5,0,15136,12197,14614,35977,21.7243359375,156540,18.331736443884527,999.1451857278146,0,,,,N/A
2024-03-17T16:28:40,-1.0229316615,2.4370898180999996,9.789635462249999,0.039400807863771994,0.038942658935123484,-0.04077525464971753,0.04354000000000001,0.4467400000000001,-0.45738000000000006,15.5,0,15136,12197,14614,35977,21.7243359375,156540,18.331736443884527,999.1451857278146,0,,,,N/A
2024-03-17T16:28:41,-0.9696913586499999,2.4508485480499997,9.731609514199999,0.038484510006474966,-0.002901609881440573,-0.04428772976935611,0.04522,0.45514000000000004,-0.44716,15.5,0,15122,12186,14604,35966,21.7411328125,152715,18.297153028744418,999.1443045421943,0,,,,N/A
2024-03-17T16:28:41,-1.00319087505,2.4592234271499995,9.748957478049999,0.039553524173321496,-0.0015271630954950385,-0.04596760917440065,0.04326000000000001,0.44702000000000003,-0.44716,15.5,0,15122,12186,14604,35966,21.7411328125,152715,18.297153028744418,999.1443045421943,0,,,,N/A
2024-03-17T16:28:41,-1.0193424276,2.4502503424,9.757930562799999,0.036804630601430424,0.002901609881440573,-0.04474587869800463,0.04102,0.44338000000000005,-0.43568000000000007,15.5,0,15122,12186,14604,35966,21.7411328125,152715,18.297153028744418,999.1443045421943,0,,,,N/A
2024-03-17T16:28:41,-0.9463613382999998,2.44606290285,9.748957478049999,0.036804630601430424,0.00045814892864851157,-0.0433714319120591,0.04886000000000001,0.4473000000000001,-0.44212000000000007,15.5,0,15122,12186,14604,35966,21.7411328125,152715,18.297153028744418,999.1443045421943,0,,,,N/A
2024-03-17T16:28:41,-1.0283155123499998,2.4197418542499998,9.774680320999998,0.04077525464971753,-0.002138028333693054,-0.04581489286485116,0.04102,0.4543000000000001,-0.45346000000000003,15.5,0,15122,12186,14604,35966,21.7411328125,152715,18.297153028744418,999.1443045421943,0,,,,N/A
2024-03-17T16:28:42,-1.05702938355,2.4634108667000003,9.757930562799999,0.039553524173321496,0.0009162978572970231,-0.0433714319120591,0.045500000000000006,0.44394000000000006,-0.44310000000000005,15.5,0,15078,12153,14581,35911,21.6985546875,150000,18.274585308477942,999.1366952745107,0,,,,N/A
2024-03-17T16:28:42,-1.0588240004999998,2.4604198384499996,9.809974454349998,0.03756821214917795,-0.00045814892864851157,-0.04444044607890562,0.04494000000000001,0.44982000000000005,-0.45472,15.5,0,15078,12153,14581,35911,21.6985546875,150000,18.274585308477942,999.1366952745107,0,,,,N/A
2024-03-17T16:28:42,-1.0043872863499999,2.4352952011499998,9.76929647015,0.03924809155422249,0.002138028333693054,-0.04780020488899471,0.04494000000000001,0.44982000000000005,-0.45472,15.5,0,15078,12153,14581,35911,21.6985546875,150000,18.274585308477942,999.1366952745107,0,,,,N/A
2024-03-17T16:28:42,-0.91944208405,2.44486649155,9.75972517975,0.03665191429188092,0.0007635815477475193,-0.04276056667386108,0.038500000000000006,0.4520600000000001,-0.44772,15.5,0,15078,12153,14581,35911,21.6985546875,150000,18.274585308477942,999.1366952745107,0,,,,N/A
2024-03-17T16:28:42,-1.0289137179999999,2.44486649155,9.77288570405,0.07803803417979646,-0.0003054326190990077,-0.043676864531158106,0.049980000000000004,0.44310000000000005,-0.43820000000000003,15.5,0,15078,12153,14581,35911,21.6985546875,150000,18.274585308477942,999.1366952745107,0,,,,N/A
2024-03-17T16:28:43,-1.0283155123499998,2.4693929231999996,9.798608546999999,0.03512475119638588,0.0009162978572970231,-0.040317105721069016,0.039900000000000005,0.45514000000000004,-0.44450000000000006,15.5,0,15049,12136,14563,35866,21.655390625,147251,18.236797094595428,999.129891792367,0,,,,N/A
2024-03-17T16:28:43,-1.0283155123499998,2.41017056385,9.69392255825,0.040622538340168025,-0.0007635815477475193,-0.04077525464971753,0.04046,0.45178,-0.46326000000000006,15.5,0,15049,12136,14563,35866,21.655390625,147251,18.236797094595428,999.129891792367,0,,,,N/A
2024-03-17T16:28:43,-1.0121639597999998,2.4442682858999993,9.7555377402,0.03787364476827696,0.0013744467859455349,-0.0433714319120591,0.04186000000000001,0.44926000000000005,-0.45220000000000005,15.5,0,15049,12136,14563,35866,21.655390625,147251,18.236797094595428,999.129891792367,0,,,,N/A
2024-03-17T16:28:43,-0.9559326286999998,2.45443778195,9.8093762487,0.038789942625573975,0.0,-0.04581489286485116,0.03878,0.4526200000000001,-0.45528,15.5,0,15049,12136,14563,35866,21.655390625,147251,18.236797094595428,999.129891792367,0,,,,N/A
2024-03-17T16:28:43,-1.03190474625,2.4574288101999997,9.77408211535,0.041080687268816536,-0.00045814892864851157,-0.04382958084070761,0.03878,0.44646,-0.44352,15.5,0,15049,12136,14563,35866,21.655390625,147251,18.236797094595428,999.129891792367,0,,,,N/A
2024-03-17T16:28:44,-1.0642078513499997,2.44606290285,9.7950193131,0.043982297150257116,0.0007635815477475193,-0.04291328298341058,0.04718000000000001,0.44758000000000003,-0.45304,15.5,0,14984,12091,14515,35741,21.619453125,146739,18.22980215234455,999.120729344332,0,,,,N/A
2024-03-17T16:28:44,-1.040877831,2.43768802375,9.7914300792,0.039553524173321496,-0.00015271630954950385,-0.04505131131710364,0.029820000000000003,0.44926000000000005,-0.45346000000000003,15.5,0,14984,12091,14515,35741,21.619453125,146739,18.22980215234455,999.120729344332,0,,,,N/A
2024-03-17T16:28:44,-1.0085747259,2.4622144553999994,9.72024360685,0.036499197982331415,-0.00015271630954950385,-0.04505131131710364,0.03934,0.44954,-0.44520000000000004,15.5,0,14984,12091,14515,35741,21.619453125,146739,18.22980215234455,999.120729344332,0,,,,N/A
2024-03-17T16:28:44,-1.0145567824,2.44127725765,9.771689292749999,0.03787364476827696,0.0007635815477475193,-0.04474587869800463,0.03878,0.44534,-0.45822,15.5,0,14984,12091,14515,35741,21.619453125,146739,18.22980215234455,999.120729344332,0,,,,N/A
2024-03-17T16:28:44,-1.0193424276,2.4550359876,9.7818587888,0.04291328298341058,0.0016798794050445422,-0.04214970143566306,0.03878,0.44534,-0.45822,15.5,0,14984,12091,14515,35741,21.619453125,146739,18.22980215234455,999.120729344332,0,,,,N/A
2024-03-17T16:28:44,-1.0013962581,2.4945175605,9.6849494735,0.04230241774521256,-0.006108652381980154,-0.04520402762665314,0.04438,0.4478600000000001,-0.44744000000000006,15.5,0,14984,12091,14515,35741,21.619453125,146739,18.22980215234455,999.120729344332,0,,,,N/A
2024-03-17T16:28:44,-1.0193424276,2.58365020235,9.722038223799998,0.03665191429188092,-0.0009162978572970231,-0.041844268816564056,0.04102,0.4537400000000001,-0.45346000000000003,15.5,0,14984,12091,14515,35741,21.5907421875,145851,18.21813249757057,999.1145219495338,0,,,,N/A
2024-03-17T16:28:45,-0.99242317335,2.4317059672499997,9.7603233854,0.04276056667386108,0.0012217304763960308,-0.04612032548395016,0.040740000000000005,0.4473000000000001,-0.4466,15.5,0,14952,12072,14489,35686,21.7977734375,156685,18.279928854435333,999.1005144681008,0,,,,N/A
2024-03-17T16:28:45,-1.0905288999499998,2.4161526203499997,9.768100058849999,0.03802636107782646,0.0019853120241435504,-0.0435241482216086,0.039900000000000005,0.45458000000000004,-0.45234,15.5,0,14952,12072,14489,35686,21.7977734375,156685,18.279928854435333,999.1005144681008,0,,,,N/A
2024-03-17T16:28:45,-0.9978070242,2.46520548365,9.774680320999998,0.03543018381548489,0.001069014166846527,-0.04016438941151951,0.040740000000000005,0.45346000000000003,-0.45122,15.5,0,14952,12072,14489,35686,21.7977734375,156685,18.279928854435333,999.1005144681008,0,,,,N/A
2024-03-17T16:28:45,-1.00917293155,2.4095723582,9.7950193131,0.039706240482871004,0.0012217304763960308,-0.04077525464971753,0.04186000000000001,0.4467400000000001,-0.45094000000000006,15.5,0,14952,12072,14489,35686,21.7977734375,156685,18.279928854435333,999.1005144681008,0,,,,N/A
2024-03-17T16:28:45,-1.02233345585,2.4329023785499997,9.77767134925,0.039553524173321496,0.0007635815477475193,-0.04459316238845512,0.04186000000000001,0.4467400000000001,-0.45094000000000006,15.5,0,14952,12072,14489,35686,21.7977734375,156685,18.279928854435333,999.1005144681008,0,,,,N/A
2024-03-17T16:28:46,-1.01635139935,2.4532413706500003,9.75733235715,0.03802636107782646,-0.001069014166846527,-0.041996985126113565,0.037660000000000006,0.4461800000000001,-0.45346000000000003,15.5,0,14930,12058,14474,35659,21.803046875,153409,18.224465115154064,999.112672224852,0,,,,N/A
2024-03-17T16:28:46,-0.9176474671,2.4670001006,9.8321080634,0.04016438941151951,-0.0009162978572970231,-0.043676864531158106,0.04326000000000001,0.45458000000000004,-0.43946,15.5,0,14930,12058,14474,35659,21.803046875,153409,18.224465115154064,999.112672224852,0,,,,N/A
2024-03-17T16:28:46,-1.0109675485,2.4472593141499996,9.77767134925,0.038637226316024474,0.0015271630954950385,-0.04886921905584123,0.046340000000000006,0.45626000000000005,-0.4432400000000001,15.5,0,14930,12058,14474,35659,21.803046875,153409,18.224465115154064,999.112672224852,0,,,,N/A
2024-03-17T16:28:46,-1.01395857675,2.4526431649999996,9.81715292215,0.040622538340168025,0.00015271630954950385,-0.039706240482871004,0.034300000000000004,0.4548600000000001,-0.44072,15.5,0,14930,12058,14474,35659,21.803046875,153409,18.224465115154064,999.112672224852,0,,,,N/A
2024-03-17T16:28:46,-1.01635139935,2.4436700802499995,9.793224696149998,0.03924809155422249,0.0016798794050445422,-0.04245513405476207,0.034300000000000004,0.4548600000000001,-0.44072,15.5,0,14930,12058,14474,35659,21.803046875,153409,18.224465115154064,999.112672224852,0,,,,N/A
2024-03-17T16:28:47,-0.9984052298499999,2.4538395763,9.7794659662,0.041080687268816536,0.0027488935718910697,-0.04566217655530165,0.048580000000000005,0.44506000000000007,-0.4424,15.5,0,14910,12040,14459,35655,21.7524609375,149072,18.186289963572484,999.1185504585997,0,,,,N/A
2024-03-17T16:28:47,-1.1198409767999997,2.44008084635,9.794421107449999,0.03756821214917795,-0.0003054326190990077,-0.040622538340168025,0.046060000000000004,0.44870000000000004,-0.44534,15.5,0,14910,12040,14459,35655,21.7524609375,149072,18.186289963572484,999.1185504585997,0,,,,N/A
2024-03-17T16:28:47,-1.0175478106499998,2.45563419325,9.7782695549,0.041691552507014555,-0.002138028333693054,-0.041996985126113565,0.04018000000000001,0.44562000000000007,-0.45822,15.5,0,14910,12040,14459,35655,21.7524609375,149072,18.186289963572484,999.1185504585997,0,,,,N/A
2024-03-17T16:28:47,-1.0636096457,2.4508485480499997,9.8321080634,0.038637226316024474,-0.0012217304763960308,-0.04428772976935611,0.04018000000000001,0.44562000000000007,-0.45822,15.5,0,14910,12040,14459,35655,21.7524609375,149072,18.186289963572484,999.1185504585997,0,,,,N/A
2024-03-17T16:28:47,-0.98404829425,2.43888443505,9.771091087099999,0.03802636107782646,-0.00045814892864851157,-0.04627304179349966,0.04438,0.44870000000000004,-0.4443600000000001,15.5,0,14910,12040,14459,35655,21.7524609375,149072,18.186289963572484,999.1185504585997,0,,,,N/A
2024-03-17T16:28:48,-1.0007980524499998,2.4831516531499993,9.807581631749999,0.038637226316024474,0.0033597588100890844,-0.041386119887915546,0.039060000000000004,0.4501,-0.43498000000000003,15.5,0,14910,12041,14459,35669,21.702265625,147767,18.158282539253378,999.117972930599,0,,,,N/A
2024-03-17T16:28:48,-0.96849494735,2.4813570361999995,9.815956510849999,0.04276056667386108,0.0019853120241435504,-0.04092797095926703,0.039060000000000004,0.44422,-0.43498000000000003,15.5,0,14910,12041,14459,35669,21.702265625,147767,18.158282539253378,999.117972930599,0,,,,N/A
2024-03-17T16:28:48,-1.0450652705499999,2.4628126610499996,9.792626490499998,0.03787364476827696,0.0006108652381980154,-0.039858956792420505,0.0413,0.45122,-0.44744000000000006,15.5,0,14910,12041,14459,35669,21.702265625,147767,18.158282539253378,999.117972930599,0,,,,N/A
2024-03-17T16:28:48,-1.0241280728,2.4107687694999997,9.8404829425,0.038484510006474966,-0.0013744467859455349,-0.04276056667386108,0.0413,0.4461800000000001,-0.44506000000000007,15.5,0,14910,12041,14459,35669,21.702265625,147767,18.158282539253378,999.117972930599,0,,,,N/A
2024-03-17T16:28:48,-1.0103693428499998,2.4436700802499995,9.76451082495,0.04077525464971753,-0.0038179077387375964,-0.0435241482216086,0.038220000000000004,0.45038000000000006,-0.44100000000000006,15.5,0,14910,12041,14459,35669,21.702265625,147767,18.158282539253378,999.117972930599,0,,,,N/A
2024-03-17T16:28:49,-1.0594222061499998,2.4107687694999997,9.744171832849998,0.03787364476827696,0.00045814892864851157,-0.041844268816564056,0.042980000000000004,0.4501,-0.4529,15.5,0,14924,12049,14468,35714,21.656953125,146231,18.140672235930673,999.1182824985827,0,,,,N/A
2024-03-17T16:28:49,-1.0109675485,2.46879471755,9.70947590515,0.03527746750593539,0.0022907446432425577,-0.041844268816564056,0.04242,0.45178,-0.4529,15.5,0,14924,12049,14468,35714,21.656953125,146231,18.140672235930673,999.1182824985827,0,,,,N/A
2024-03-17T16:28:49,-1.0175478106499998,2.4466611085,9.75135030065,0.039400807863771994,-0.0006108652381980154,-0.04535674393620265,0.042140000000000004,0.46158000000000005,-0.45570000000000005,15.5,0,14924,12049,14468,35714,21.656953125,146231,18.140672235930673,999.1182824985827,0,,,,N/A
2024-03-17T16:28:49,-1.0564311779,2.45683060455,9.810572659999998,0.039706240482871004,-0.0015271630954950385,-0.04046982203061852,0.046340000000000006,0.45122,-0.44562000000000007,15.5,0,14924,12049,14468,35714,21.656953125,146231,18.140672235930673,999.1182824985827,0,,,,N/A
2024-03-17T16:28:49,-1.0336993632,2.4586252214999997,9.838688325549999,0.03772092845872745,0.0019853120241435504,-0.04474587869800463,0.046340000000000006,0.4526200000000001,-0.45514000000000004,15.5,0,14924,12049,14468,35714,21.656953125,146231,18.140672235930673,999.1182824985827,0,,,,N/A
2024-03-17T16:28:49,-1.0480562988,2.4789642136,9.878169898449999,0.04459316238845512,0.00045814892864851157,-0.04489859500755413,0.042980000000000004,0.4526200000000001,-0.45514000000000004,15.5,0,14924,12049,14468,35714,21.656953125,146231,18.140672235930673,999.1182824985827,0,,,,N/A
2024-03-17T16:28:49,-1.0127621654499999,2.4502503424,9.8010013696,0.04016438941151951,-0.00015271630954950385,-0.04596760917440065,0.04326000000000001,0.4548600000000001,-0.44814000000000004,15.5,0,14924,12049,14468,35714,21.656953125,146231,18.140672235930673,999.1182824985827,0,,,,N/A
2024-03-17T16:28:50,-1.02352986715,2.4035903016999995,9.74177901025,0.038789942625573975,-0.0035124751196385882,-0.04444044607890562,0.045500000000000006,0.44758000000000003,-0.4585000000000001,15.5,0,14940,12060,14483,35758,21.6266796875,145474,18.139054109291102,999.1219179424028,0,,,,N/A
2024-03-17T16:28:50,-0.99720881855,2.45443778195,9.772287498399999,0.041996985126113565,0.00015271630954950385,-0.041691552507014555,0.040740000000000005,0.4501,-0.45542,15.5,0,14940,12060,14483,35758,21.6266796875,145474,18.139054109291102,999.1219179424028,0,,,,N/A
2024-03-17T16:28:50,-0.9882357337999998,2.4394826406999996,9.75733235715,0.038637226316024474,-0.003970624048287101,-0.041691552507014555,0.04102,0.4548600000000001,-0.45444000000000007,15.5,0,14940,12060,14483,35758,21.6266796875,145474,18.139054109291102,999.1219179424028,0,,,,N/A
2024-03-17T16:28:50,-0.99003035075,2.43409878985,9.771091087099999,0.038942658935123484,-0.00015271630954950385,-0.043676864531158106,0.046900000000000004,0.45150000000000007,-0.46592000000000006,15.5,0,14940,12060,14483,35758,21.6266796875,145474,18.139054109291102,999.1219179424028,0,,,,N/A
2024-03-17T16:28:50,-1.00917293155,2.46400907235,9.7842516114,0.039553524173321496,0.0025961772623415654,-0.04306599929296009,0.046900000000000004,0.45150000000000007,-0.44520000000000004,15.5,0,14940,12060,14483,35758,21.6266796875,145474,18.139054109291102,999.1219179424028,0,,,,N/A
2024-03-17T16:28:51,-0.9936195846499999,2.4197418542499998,9.900303507499999,0.04016438941151951,0.00473420559603462,-0.041996985126113565,0.0413,0.44142000000000003,-0.46032000000000006,15.5,0,14972,12093,14517,35842,21.60109375,145978,18.122505605024124,999.1190483493874,0,,,,N/A
2024-03-17T16:28:51,-1.0073783146,2.428714939,9.838688325549999,0.04520402762665314,0.0027488935718910697,-0.04550946024575215,0.04242,0.44002,-0.45164000000000004,15.5,0,14972,12093,14517,35842,21.60109375,145978,18.122505605024124,999.1190483493874,0,,,,N/A
2024-03-17T16:28:51,-0.98045906035,2.4418754632999997,9.75613594585,0.04520402762665314,0.0018325957145940463,-0.043982297150257116,0.04242,0.44114000000000003,-0.43610000000000004,15.5,0,14972,12093,14517,35842,21.60109375,145978,18.122505605024124,999.1190483493874,0,,,,N/A
2024-03-17T16:28:51,-1.0295119236499999,2.4251257050999997,9.661021247499999,0.040317105721069016,0.0016798794050445422,-0.04505131131710364,0.04494000000000001,0.44254000000000004,-0.43596,15.5,0,14972,12093,14517,35842,21.60109375,145978,18.122505605024124,999.1190483493874,0,,,,N/A
2024-03-17T16:28:51,-1.0109675485,2.4538395763,9.781260583149999,0.04153883619746505,-0.0033597588100890844,-0.04520402762665314,0.04494000000000001,0.44254000000000004,-0.43596,15.5,0,14972,12093,14517,35842,21.60109375,145978,18.122505605024124,999.1190483493874,0,,,,N/A
2024-03-17T16:28:52,-0.9457631326499999,2.4526431649999996,9.7471628611,0.04413501345980661,0.00045814892864851157,-0.04474587869800463,0.035980000000000005,0.44758000000000003,-0.43932000000000004,15.5,0,14990,12108,14526,35883,21.581171875,144726,18.126502104797062,999.1148123144848,0,,,,N/A
2024-03-17T16:28:52,-1.040877831,2.4155544147,9.722636429449999,0.03604104905368291,0.0015271630954950385,-0.038179077387375956,0.03962,0.45038000000000006,-0.44338000000000005,15.5,0,14990,12108,14526,35883,21.581171875,144726,18.126502104797062,999.1148123144848,0,,,,N/A
2024-03-17T16:28:52,-1.0055836976499999,2.46879471755,9.783653405749998,0.04077525464971753,0.003054326190990077,-0.04474587869800463,0.03626000000000001,0.4543000000000001,-0.44870000000000004,15.5,0,14990,12108,14526,35883,21.581171875,144726,18.126502104797062,999.1148123144848,0,,,,N/A
2024-03-17T16:28:52,-1.0606186174499999,2.4837498588,9.73460054245,0.039706240482871004,-0.0015271630954950385,-0.04413501345980661,0.0413,0.4501,-0.43498000000000003,15.5,0,14990,12108,14526,35883,21.581171875,144726,18.126502104797062,999.1148123144848,0,,,,N/A
2024-03-17T16:28:52,-1.0372885971,2.4496521367499997,9.762118002349998,0.0435241482216086,0.0022907446432425577,-0.04214970143566306,0.0413,0.4501,-0.43498000000000003,15.5,0,14990,12108,14526,35883,21.581171875,144726,18.126502104797062,999.1148123144848,0,,,,N/A
2024-03-17T16:28:53,-0.9619146851999999,2.4664018949499997,9.798010341349999,0.04077525464971753,-0.0035124751196385882,-0.04260785036431157,0.046340000000000006,0.44898000000000005,-0.44996,15.5,0,15006,12119,14536,35914,21.56515625,145725,18.120587370639775,999.1151889342851,0,,,,N/A
2024-03-17T16:28:53,-1.04027962535,2.44127725765,9.72861848595,0.043676864531158106,0.0038179077387375964,-0.039858956792420505,0.04438,0.44478,-0.4461800000000001,15.5,0,15006,12119,14536,35914,21.56515625,145725,18.120587370639775,999.1151889342851,0,,,,N/A
2024-03-17T16:28:53,-1.0001998468,2.4705893344999996,9.7806623775,0.0006108652381980154,0.0006108652381980154,-0.041996985126113565,0.04326000000000001,0.44646,-0.44996,15.5,0,15006,12119,14536,35914,21.56515625,145725,18.120587370639775,999.1151889342851,0,,,,N/A
2024-03-17T16:28:53,-1.02233345585,2.44845572545,9.6897351187,0.03741549583962844,0.0019853120241435504,-0.04092797095926703,0.04326000000000001,0.44646,-0.44996,15.5,0,15006,12119,14536,35914,21.56515625,145725,18.120587370639775,999.1151889342851,0,,,,N/A
2024-03-17T16:28:53,-1.02592268975,2.45443778195,9.7686982645,0.036804630601430424,0.0018325957145940463,-0.04489859500755413,0.042980000000000004,0.45122,-0.43442000000000003,15.5,0,15006,12119,14536,35914,21.56515625,145725,18.120587370639775,999.1151889342851,0,,,,N/A
2024-03-17T16:28:54,-0.9936195846499999,2.4604198384499996,9.678967416999999,0.03787364476827696,0.0006108652381980154,-0.041386119887915546,0.04102,0.4467400000000001,-0.43694000000000005,15.5,0,15057,12151,14565,36011,21.551875,145349,18.12493821800893,999.1094131087448,0,,,,N/A
2024-03-17T16:28:54,-0.93260260835,2.31804689375,9.72383284075,0.04245513405476207,0.0033597588100890844,-0.04291328298341058,0.04438,0.44758000000000003,-0.45038000000000006,15.5,0,15057,12151,14565,36011,21.551875,145349,18.12493821800893,999.1094131087448,0,,,,N/A
2024-03-17T16:28:54,-0.9978070242,2.4329023785499997,9.75135030065,0.03924809155422249,0.0003054326190990077,-0.0433714319120591,0.042140000000000004,0.44702000000000003,-0.45164000000000004,15.5,0,15057,12151,14565,36011,21.551875,145349,18.12493821800893,999.1094131087448,0,,,,N/A
2024-03-17T16:28:54,-1.0576275892,2.43649161245,9.784849817049999,0.039706240482871004,0.004886921905584123,-0.041844268816564056,0.042140000000000004,0.44702000000000003,-0.45164000000000004,15.5,0,15057,12151,14565,36011,21.551875,145349,18.12493821800893,999.1094131087448,0,,,,N/A
2024-03-17T16:28:54,-1.0283155123499998,2.4346969955,9.8045906035,0.03772092845872745,0.0003054326190990077,-0.043982297150257116,0.04102,0.44170000000000004,-0.44506000000000007,15.5,0,15057,12151,14565,36011,21.551875,145349,18.12493821800893,999.1094131087448,0,,,,N/A
2024-03-17T16:28:54,-1.0719845248,2.42931314465,9.790233667899999,0.039858956792420505,-0.0013744467859455349,-0.040317105721069016,0.035980000000000005,0.4467400000000001,-0.44478,15.5,0,15057,12151,14565,36011,21.551875,145349,18.12493821800893,999.1094131087448,0,,,,N/A
2024-03-17T16:28:54,-1.0193424276,2.43768802375,9.722038223799998,0.03924809155422249,-0.00015271630954950385,-0.04505131131710364,0.043820000000000005,0.44646,-0.44338000000000005,15.5,0,15057,12151,14565,36011,21.551875,145349,18.12493821800893,999.1094131087448,0,,,,N/A
2024-03-17T16:28:55,-1.0085747259,2.4323041728999995,9.7806623775,0.03588833274413341,0.00015271630954950385,-0.04596760917440065,0.040740000000000005,0.45094000000000006,-0.43862000000000007,15.5,0,15104,12182,14596,36108,21.5368359375,145474,18.119076240674953,999.1131538943171,0,,,,N/A
2024-03-17T16:28:55,-1.0366903914499999,2.45443778195,9.776474937949999,0.038331793696925465,-0.0007635815477475193,-0.0435241482216086,0.04578,0.44926000000000005,-0.45976000000000006,15.5,0,15104,12182,14596,36108,21.5368359375,145474,18.119076240674953,999.1131538943171,0,,,,N/A
2024-03-17T16:28:55,-0.9708877699499999,2.4562323989,9.7686982645,0.041996985126113565,-0.0003054326190990077,-0.041386119887915546,0.04578,0.44534,-0.4461800000000001,15.5,0,15104,12182,14596,36108,21.5368359375,145474,18.119076240674953,999.1131538943171,0,,,,N/A
2024-03-17T16:28:55,-0.9870393224999998,2.4329023785499997,9.757930562799999,0.04276056667386108,0.0027488935718910697,-0.04505131131710364,0.047740000000000005,0.44534,-0.4461800000000001,15.5,0,15104,12182,14596,36108,21.5368359375,145474,18.119076240674953,999.1131538943171,0,,,,N/A
2024-03-17T16:28:55,-1.02352986715,2.4502503424,9.77886776055,0.038484510006474966,-0.00015271630954950385,-0.04260785036431157,0.04018000000000001,0.44506000000000007,-0.4561200000000001,15.5,0,15104,12182,14596,36108,21.5368359375,145474,18.119076240674953,999.1131538943171,0,,,,N/A
2024-03-17T16:28:56,-1.0301101293,2.4969103831,9.750752095,0.041691552507014555,0.0019853120241435504,-0.04596760917440065,0.038500000000000006,0.44450000000000006,-0.43022000000000005,15.5,0,15214,12246,14656,36307,21.5204296875,144602,18.113142102990608,999.1252787438566,0,,,,N/A
2024-03-17T16:28:56,-1.0689934965499999,2.4454646972,9.7016992317,0.04123340357836604,0.0033597588100890844,-0.04657847441259867,0.03654,0.43666000000000005,-0.44478,15.5,0,15214,12246,14656,36307,21.5204296875,144602,18.113142102990608,999.1252787438566,0,,,,N/A
2024-03-17T16:28:56,-1.0109675485,2.4622144553999994,9.807581631749999,0.03665191429188092,-0.0016798794050445422,-0.0433714319120591,0.03654,0.43666000000000005,-0.44478,15.5,0,15214,12246,14656,36307,21.5204296875,144602,18.113142102990608,999.1252787438566,0,,,,N/A
2024-03-17T16:28:56,-1.09292172255,2.4711875401499994,9.936195846499999,0.03741549583962844,-0.0009162978572970231,-0.04612032548395016,0.03962,0.44506000000000007,-0.43526000000000004,15.5,0,15214,12246,14656,36307,21.5204296875,144602,18.113142102990608,999.1252787438566,0,,,,N/A
2024-03-17T16:28:56,-1.016949605,2.4508485480499997,9.7686982645,0.039858956792420505,-0.002138028333693054,-0.04230241774521256,0.0427,0.44534,-0.44212000000000007,15.5,0,15214,12246,14656,36307,21.5204296875,144602,18.113142102990608,999.1252787438566,0,,,,N/A
2024-03-17T16:28:57,-0.9762716207999999,2.4670001006,9.75493953455,0.04016438941151951,0.0018325957145940463,-0.04566217655530165,0.048580000000000005,0.44898000000000005,-0.44226000000000004,15.5,0,15272,12277,14689,36416,21.505,145600,18.107260831321806,999.1389980035251,0,,,,N/A
2024-03-17T16:28:57,-1.00797652025,2.42333108815,9.69392255825,0.036804630601430424,-0.002138028333693054,-0.04123340357836604,0.0483,0.45150000000000007,-0.44226000000000004,15.5,0,15272,12277,14689,36416,21.505,145600,18.107260831321806,999.1389980035251,0,,,,N/A
2024-03-17T16:28:57,-1.01395857675,2.4490539311,9.748359272399998,0.038331793696925465,0.0003054326190990077,-0.04596760917440065,0.0483,0.45150000000000007,-0.44226000000000004,15.5,0,15272,12277,14689,36416,21.505,145600,18.107260831321806,999.1389980035251,0,,,,N/A
2024-03-17T16:28:57,-1.0713863191499997,2.4346969955,9.69272614695,0.04214970143566306,0.0012217304763960308,-0.04673119072214818,0.044660000000000005,0.44702000000000003,-0.44128,15.5,0,15272,12277,14689,36416,21.505,145600,18.107260831321806,999.1389980035251,0,,,,N/A
2024-03-17T16:28:57,-1.02352986715,2.4394826406999996,9.767501853199999,0.04092797095926703,-0.002138028333693054,-0.04459316238845512,0.04438,0.45038000000000006,-0.43526000000000004,15.5,0,15272,12277,14689,36416,21.505,145600,18.107260831321806,999.1389980035251,0,,,,N/A
2024-03-17T16:28:58,-1.016949605,2.4586252214999997,9.780064171849999,0.03924809155422249,-0.0006108652381980154,-0.04291328298341058,0.0413,0.44842000000000004,-0.4354,15.5,0,15330,12315,14721,36533,21.488984375,146739,18.106407181409587,999.1393685960659,0,,,,N/A
2024-03-17T16:28:58,-0.9702895642999998,2.44008084635,9.735796953749999,0.04077525464971753,0.0,-0.04673119072214818,0.04494000000000001,0.44282000000000005,-0.44870000000000004,15.5,0,15397,12350,14755,36656,21.488984375,146739,18.106407181409587,999.1393685960659,0,,,,N/A
2024-03-17T16:28:58,-1.0115657541499998,2.4508485480499997,9.759126974099999,0.04046982203061852,-0.0007635815477475193,-0.04657847441259867,0.04494000000000001,0.44282000000000005,-0.44870000000000004,15.5,0,15397,12350,14755,36656,21.488984375,146739,18.106407181409587,999.1393685960659,0,,,,N/A
2024-03-17T16:28:58,-1.0480562988,2.4358934068,9.702297437349998,0.04260785036431157,0.0027488935718910697,-0.04734205596034619,0.046900000000000004,0.44478,-0.44842000000000004,15.5,0,15397,12350,14755,36656,21.488984375,146739,18.106407181409587,999.1393685960659,0,,,,N/A
2024-03-17T16:28:58,-1.0133603711,2.4370898180999996,9.72502925205,0.040622538340168025,0.0,-0.043676864531158106,0.041580000000000006,0.43918000000000007,-0.43610000000000004,15.5,0,15397,12350,14755,36656,21.488984375,146739,18.106407181409587,999.1393685960659,0,,,,N/A
2024-03-17T16:28:59,-1.03070833495,2.44127725765,9.76690364755,0.07712173632249944,-0.0006108652381980154,-0.04321871560250959,0.04102,0.4478600000000001,-0.45892,15.5,0,15454,12386,14790,36773,21.4753125,147251,18.100620676850838,999.1400293816162,0,,,,N/A
2024-03-17T16:28:59,-1.0301101293,2.4430718745999997,9.80159957525,0.037110063220529434,0.0016798794050445422,-0.04382958084070761,0.044660000000000005,0.44646,-0.45738000000000006,15.5,0,15454,12386,14790,36773,21.4753125,147251,18.100620676850838,999.1400293816162,0,,,,N/A
2024-03-17T16:28:59,-0.9990034354999999,2.42093826555,9.70708308255,0.03329215548179184,-0.003970624048287101,-0.04413501345980661,0.04326000000000001,0.4478600000000001,-0.4466,15.5,0,15454,12386,14790,36773,21.4753125,147251,18.100620676850838,999.1400293816162,0,,,,N/A
2024-03-17T16:28:59,-0.97328059255,2.43649161245,9.702895643,0.04230241774521256,0.0,-0.04444044607890562,0.03682,0.4403000000000001,-0.44632000000000005,14.5,0,15454,12386,14790,36773,21.4753125,147251,18.100620676850838,999.1400293816162,0,,,,N/A
2024-03-17T16:28:59,-1.00319087505,2.44008084635,9.77408211535,0.039706240482871004,-0.0003054326190990077,-0.043982297150257116,0.03682,0.4403000000000001,-0.44632000000000005,14.5,0,15454,12386,14790,36773,21.4753125,147251,18.100620676850838,999.1400293816162,0,,,,N/A
2024-03-17T16:28:59,-1.0115657541499998,2.4520449593499998,9.7304131029,0.03695734691097993,0.0007635815477475193,-0.04810563750809371,0.03934,0.44422,-0.44898000000000005,15.5,0,15454,12386,14790,36773,21.4753125,147251,18.100620676850838,999.1400293816162,0,,,,N/A
2024-03-17T16:28:59,-1.0001998468,2.4502503424,9.69272614695,0.03787364476827696,-0.00015271630954950385,-0.04306599929296009,0.039060000000000004,0.4389,-0.46088000000000007,15.5,0,15454,12386,14790,36773,21.46125,149204,18.07458632123891,999.1453602343724,0,,,,N/A
2024-03-17T16:29:00,-0.96370930215,2.4526431649999996,9.776474937949999,0.03787364476827696,0.00045814892864851157,-0.04382958084070761,0.042980000000000004,0.4389,-0.4660600000000001,15.5,0,15501,12415,14811,36845,21.6798046875,159801,18.141894009003373,999.12021843047,0,,,,N/A
2024-03-17T16:29:00,-0.9696913586499999,2.4436700802499995,9.69751179215,0.04230241774521256,0.0018325957145940463,-0.04306599929296009,0.041580000000000006,0.4459,-0.44996,15.5,0,15501,12415,14811,36845,21.6798046875,159801,18.141894009003373,999.12021843047,0,,,,N/A
2024-03-17T16:29:00,-1.0121639597999998,2.59441790405,9.79202828485,0.039553524173321496,0.0036651914291880926,-0.04276056667386108,0.04102,0.44198000000000004,-0.45598,14.5,0,15501,12415,14811,36845,21.6798046875,159801,18.141894009003373,999.12021843047,0,,,,N/A
2024-03-17T16:29:00,-0.99242317335,2.4299113503,9.677771005699999,0.04123340357836604,0.003207042500539581,-0.04581489286485116,0.0441,0.4473000000000001,-0.45402000000000003,14.5,0,15501,12415,14811,36845,21.6798046875,159801,18.141894009003373,999.12021843047,0,,,,N/A
2024-03-17T16:29:00,-1.0540383553,2.4496521367499997,9.754341328899999,0.038179077387375956,0.004276056667386108,-0.04688390703169768,0.0441,0.4473000000000001,-0.45402000000000003,14.5,0,15501,12415,14811,36845,21.6798046875,159801,18.141894009003373,999.12021843047,0,,,,N/A
2024-03-17T16:29:01,-1.0175478106499998,2.4921247379,9.7435736272,0.041386119887915546,-0.00045814892864851157,-0.04505131131710364,0.04662,0.44450000000000006,-0.4496800000000001,15.5,0,15571,12449,14834,36930,21.6930859375,157269,18.08693566671144,999.1277585550554,0,,,,N/A
2024-03-17T16:29:01,-0.92063849535,2.3018953412000003,9.6885387074,0.0357356164345839,-0.0022907446432425577,-0.04566217655530165,0.04802,0.44170000000000004,-0.44856000000000007,14.5,0,15571,12449,14834,36930,21.6930859375,157269,18.08693566671144,999.1277585550554,0,,,,N/A
2024-03-17T16:29:01,-0.9978070242,2.4658036893,9.70827949385,0.040317105721069016,-0.0007635815477475193,-0.04810563750809371,0.040740000000000005,0.44506000000000007,-0.45220000000000005,15.5,0,15571,12449,14834,36930,21.6930859375,157269,18.08693566671144,999.1277585550554,0,,,,N/A
2024-03-17T16:29:01,-1.0450652705499999,2.4299113503,9.723234635099999,0.04001167310197001,-0.0003054326190990077,-0.04245513405476207,0.040740000000000005,0.44506000000000007,-0.45220000000000005,14.5,0,15571,12449,14834,36930,21.6930859375,157269,18.08693566671144,999.1277585550554,0,,,,N/A
2024-03-17T16:29:01,-1.0384850084,2.4442682858999993,9.727422074649999,0.04214970143566306,0.0007635815477475193,-0.04550946024575215,0.042140000000000004,0.44982000000000005,-0.44856000000000007,15.5,0,15571,12449,14834,36930,21.6930859375,157269,18.08693566671144,999.1277585550554,0,,,,N/A
2024-03-17T16:29:02,-1.03310115755,2.45683060455,9.75493953455,0.039095375244672985,-0.00045814892864851157,-0.043676864531158106,0.03318,0.44170000000000004,-0.4389,15.5,0,15599,12459,14835,36936,21.645625,155101,18.043940650928185,999.1245545644083,0,,,,N/A
2024-03-17T16:29:02,-1.1001001903499998,2.4472593141499996,9.7878408453,0.0433714319120591,0.001069014166846527,-0.04550946024575215,0.039060000000000004,0.44170000000000004,-0.44758000000000003,15.5,0,15599,12459,14835,36936,21.645625,155101,18.043940650928185,999.1245545644083,0,,,,N/A
2024-03-17T16:29:02,-1.0360921857999998,2.4466611085,9.7818587888,0.038942658935123484,-0.0007635815477475193,-0.04092797095926703,0.039060000000000004,0.44170000000000004,-0.4466,14.5,0,15599,12459,14835,36936,21.645625,155101,18.043940650928185,999.1245545644083,0,,,,N/A
2024-03-17T16:29:02,-1.0247262784499998,2.4281167333499996,9.762118002349998,0.041080687268816536,0.0013744467859455349,-0.051007247389534285,0.03402,0.45346000000000003,-0.4466,15.5,0,15599,12459,14835,36936,21.645625,155101,18.043940650928185,999.1245545644083,0,,,,N/A
2024-03-17T16:29:02,-1.0121639597999998,2.4490539311,9.729216691599998,0.03634648167278191,0.0003054326190990077,-0.04016438941151951,0.04914000000000001,0.44562000000000007,-0.45304,14.5,0,15599,12459,14835,36936,21.645625,155101,18.043940650928185,999.1245545644083,0,,,,N/A
2024-03-17T16:29:03,-0.9343972252999999,2.4753749797,9.68435126785,0.038637226316024474,-0.001069014166846527,-0.0435241482216086,0.04046,0.4478600000000001,-0.44982000000000005,14.5,0,15610,12453,14804,36863,21.597578125,153270,18.01610531749314,999.123923855226,0,,,,N/A
2024-03-17T16:29:03,-1.016949605,2.4496521367499997,9.68435126785,0.03787364476827696,-0.0009162978572970231,-0.04214970143566306,0.04354000000000001,0.44702000000000003,-0.43946,14.5,0,15610,12453,14804,36863,21.597578125,153270,18.01610531749314,999.123923855226,0,,,,N/A
2024-03-17T16:29:03,-1.0109675485,2.4616162497499996,9.772287498399999,0.04260785036431157,0.0016798794050445422,-0.04153883619746505,0.04354000000000001,0.44702000000000003,-0.43946,15.5,0,15610,12453,14804,36863,21.597578125,153270,18.01610531749314,999.123923855226,0,,,,N/A
