Timestamp,Accel_X,Accel_Y,Accel_Z,Gyro_X,Gyro_Y,Gyro_Z,Mag_X,Mag_Y,Mag_Z,LSM9DS1_Temp,Proximity,Color_R,Color_G,Color_B,Color_C,BME680_Temp,Gas,Humidity,Pressure,Switch_Pressed,GPS_Latitude,GPS_Longitude,GPS_Speed,GPS_Timestamp,Pad_press
2024-03-29T10:52:23,-0.16869399329999998,0.09212367009999999,10.109077279349998,0.038637226316024474,0.038942658935123484,-0.036804630601430424,0.30870000000000003,0.33698,-0.41146000000000005,5.5,0,0,0,0,0,33.574921875,11452810,100,695.662002676745,0,,,,N/A,False
2024-03-29T10:52:23,-0.12861421474999998,0.11904292434999998,10.060622621699999,0.03772092845872745,0.0044287729769356115,-0.03634648167278191,0.30954000000000004,0.3381,-0.41104,5.5,0,0,0,0,0,33.574921875,11452810,100,695.662002676745,0,40.689095,-73.99169,2.4,14:51:47,False
2024-03-29T10:52:23,-0.16211373114999997,0.12622139215,10.061819032999999,0.03420845333908886,0.002901609881440573,-0.03924809155422249,0.30506,0.3453800000000001,-0.40516,5.5,0,11512,9671,14155,35828,33.574921875,11452810,100,695.662002676745,0,40.689095,-73.99169,2.4,14:51:47,False
2024-03-29T10:52:23,-0.13339985995,0.12562318649999998,10.097711372000001,0.03741549583962844,0.004276056667386108,-0.03665191429188092,0.31262,0.33390000000000003,-0.40054,5.5,0,11512,9671,14155,35828,13.5993359375,297181,24.816706418133922,1005.6948604934877,0,40.689095,-73.99169,2.4,14:51:47,False
2024-03-29T10:52:23,-0.1579262916,0.1004985492,10.11864856975,0.03726277953007894,0.0035124751196385882,-0.03451388595818787,0.31710000000000005,0.3423,-0.4148200000000001,5.5,0,11512,9671,14155,35828,13.5993359375,297181,24.816706418133922,1005.6948604934877,0,40.689095,-73.99169,2.4,14:51:47,False
2024-03-29T10:52:23,-0.12981062605,0.11485548479999999,10.1120683076,0.03604104905368291,0.0006108652381980154,-0.0357356164345839,0.32018,0.33642,-0.40432000000000007,5.5,0,11512,9671,14155,35828,13.5993359375,297181,24.816706418133922,1005.6948604934877,0,40.689095,-73.99169,2.4,14:51:47,False
2024-03-29T10:52:23,-0.14895320685,0.10827522265,10.1072826624,0.03802636107782646,0.0,-0.03756821214917795,0.31766,0.34370000000000006,-0.41020000000000006,5.5,0,11512,9671,14155,35828,13.833515625,250701,24.895287102836853,1005.6689286099202,0,40.689095,-73.99169,2.4,14:51:47,False
2024-03-29T10:52:23,-0.1447657673,0.12023933564999999,10.0905329042,0.03466660226773738,0.0019853120241435504,-0.03665191429188092,0.31598000000000004,0.33362,-0.41034000000000004,5.5,0,11512,9671,14155,35828,13.833515625,250701,24.895287102836853,1005.6689286099202,0,40.689095,-73.99169,2.4,14:51:47,False
2024-03-29T10:52:23,-0.16151552549999998,0.12562318649999998,10.091729315499999,0.03420845333908886,-0.0007635815477475193,-0.03726277953007894,0.31206,0.34370000000000006,-0.40978000000000003,5.5,0,11512,9671,14155,35828,13.833515625,250701,24.895287102836853,1005.6689286099202,0,40.689143,-73.991529,0.17,14:52:17,False
2024-03-29T10:52:23,-0.1363908882,0.09870393224999999,10.04566748045,0.03543018381548489,0.0015271630954950385,-0.03726277953007894,0.32382000000000005,0.33698,-0.40124000000000004,5.5,0,11512,9671,14155,35828,14.228828125,233746,24.968804423388637,1005.6597021772395,0,40.689143,-73.991529,0.17,14:52:17,False
2024-03-29T10:52:24,-0.1734796385,0.11485548479999999,10.088738287249999,0.03512475119638588,0.00045814892864851157,-0.03802636107782646,0.31766,0.33978,-0.40978000000000003,5.5,0,11512,9671,14155,35828,14.228828125,233746,24.968804423388637,1005.6597021772395,0,40.689138,-73.991525,0.17,14:52:18,False
2024-03-29T10:52:24,-0.13998012209999997,0.11425727914999999,10.062417238649997,0.04153883619746505,0.0007635815477475193,-0.036804630601430424,0.31906,0.3330600000000001,-0.40208000000000005,5.5,0,11512,9671,14155,35828,14.228828125,233746,24.968804423388637,1005.6597021772395,0,40.689138,-73.991525,0.17,14:52:18,False
2024-03-29T10:52:24,-0.12442677519999999,0.12741780345,10.109077279349998,0.038484510006474966,0.001069014166846527,-0.03787364476827696,0.31318,0.33698,-0.39536,5.5,0,11512,9671,14155,35828,14.6657421875,225333,25.040028379980477,1005.652178288999,0,40.689138,-73.991525,0.17,14:52:18,False
2024-03-29T10:52:24,-0.14416756165,0.12323036389999999,10.1120683076,0.037110063220529434,0.0,-0.039553524173321496,0.31710000000000005,0.3400600000000001,-0.41496000000000005,5.5,0,11512,9671,14155,35828,14.6657421875,225333,25.040028379980477,1005.652178288999,0,40.689138,-73.991525,0.37,14:52:18,False
2024-03-29T10:52:24,-0.15672988029999999,0.13100703735,10.107880868049998,0.04092797095926703,0.0009162978572970231,-0.03405573702953936,0.31178000000000006,0.34202000000000005,-0.40404,5.5,0,11523,9679,14172,35851,14.6657421875,225333,25.040028379980477,1005.652178288999,0,40.689138,-73.991525,0.37,14:52:18,False
2024-03-29T10:52:24,-0.11186445655,0.1339980656,10.1084790737,0.039095375244672985,0.0003054326190990077,-0.03787364476827696,0.30898000000000003,0.34426000000000007,-0.41370000000000007,5.5,0,11523,9679,14172,35851,15.088203125,223060,25.078774195448453,1005.6531614634873,0,40.689133,-73.991518,0.37,14:52:19,False
2024-03-29T10:52:24,-0.1519442351,0.11904292434999998,10.104291634149998,0.03665191429188092,0.0027488935718910697,-0.03359758810089085,0.32354,0.3451,-0.39704,5.5,0,11523,9679,14172,35851,15.088203125,223060,25.078774195448453,1005.6531614634873,0,40.689133,-73.991518,0.37,14:52:19,False
2024-03-29T10:52:24,-0.14057832774999998,0.12562318649999998,10.119844981049999,0.03604104905368291,0.0018325957145940463,-0.038331793696925465,0.32018,0.33978,-0.4123,5.5,0,11523,9679,14172,35851,15.088203125,223060,25.078774195448453,1005.6531614634873,0,40.689133,-73.991518,0.37,14:52:19,False
2024-03-29T10:52:24,-0.1052841944,0.13100703735,10.111470101950001,0.03741549583962844,0.0013744467859455349,-0.03543018381548489,0.31318,0.34622,-0.39620000000000005,5.5,0,11523,9679,14172,35851,15.46984375,221128,25.125538176750844,1005.6541585715121,0,40.689133,-73.991518,0.18,14:52:19,False
2024-03-29T10:52:24,-0.15373885204999999,0.10289137179999999,10.06361364995,0.03466660226773738,0.004276056667386108,-0.0357356164345839,0.3129,0.34118,-0.39942,5.5,0,11523,9679,14172,35851,15.46984375,221128,25.125538176750844,1005.6541585715121,0,40.689133,-73.991518,0.18,14:52:19,False
2024-03-29T10:52:24,-0.13938191645,0.107677017,10.077970585549998,0.036499197982331415,0.007941248096574201,-0.03375030441044035,0.31150000000000005,0.34762000000000004,-0.40404,5.5,0,11523,9679,14172,35851,15.46984375,221128,25.125538176750844,1005.6541585715121,0,40.689128,-73.991518,0.18,14:52:20,False
2024-03-29T10:52:24,-0.12861421474999998,0.11006983959999998,10.1084790737,0.038637226316024474,0.0013744467859455349,-0.039706240482871004,0.31934,0.33866,-0.4113200000000001,5.5,0,11523,9679,14172,35851,15.805390625,220834,25.153436775160813,1005.6501544021585,0,40.689128,-73.991518,0.18,14:52:20,False
2024-03-29T10:52:24,-0.13579268255,0.11066804524999999,10.164112199149999,0.039400807863771994,-0.0006108652381980154,-0.04092797095926703,0.31794000000000006,0.3353,-0.4048800000000001,5.5,0,11523,9679,14172,35851,15.805390625,220834,25.153436775160813,1005.6501544021585,0,40.689128,-73.991518,0.18,14:52:20,False
2024-03-29T10:52:24,-0.14416756165,0.09571290399999999,10.06720288385,0.0355829001250344,0.0003054326190990077,-0.037110063220529434,0.31150000000000005,0.33866,-0.40516,5.5,0,11523,9679,14172,35851,15.805390625,220834,25.153436775160813,1005.6501544021585,0,40.689128,-73.991518,0.29,14:52:20,False
2024-03-29T10:52:24,-0.17527425545,0.11724830739999999,10.07916699685,0.03466660226773738,0.00015271630954950385,-0.04153883619746505,0.31710000000000005,0.3400600000000001,-0.41832,5.5,0,11523,9679,14172,35851,16.096015625,222911,25.173084048289834,1005.655574752627,0,40.689128,-73.991518,0.29,14:52:20,False
2024-03-29T10:52:24,-0.15672988029999999,0.12143574694999999,10.083354436399997,0.03451388595818787,-0.001069014166846527,-0.03436116964863837,0.31906,0.34370000000000006,-0.40362000000000003,5.5,0,11523,9679,14172,35851,16.096015625,222911,25.173084048289834,1005.655574752627,0,40.689123,-73.99152,0.29,14:52:21,False
2024-03-29T10:52:24,-0.13220344865,0.12203395259999998,10.087541875949999,0.03726277953007894,0.0003054326190990077,-0.03756821214917795,0.31878,0.34146000000000004,-0.4142600000000001,5.5,0,11531,9694,14193,35889,16.096015625,222911,25.173084048289834,1005.655574752627,0,40.689123,-73.99152,0.29,14:52:21,False
2024-03-29T10:52:25,-0.15493526335,0.13459627124999998,10.0594262104,0.037110063220529434,0.003207042500539581,-0.04046982203061852,0.3129,0.34314000000000006,-0.40572,5.5,0,11531,9694,14193,35889,16.347578125,224418,25.190145126913144,1005.6574677290517,0,40.689123,-73.99152,0.29,14:52:21,False
2024-03-29T10:52:25,-0.13160524299999998,0.1280160091,10.08036340815,0.03741549583962844,0.002138028333693054,-0.038179077387375956,0.31402,0.34454,-0.40964000000000006,5.5,0,11531,9694,14193,35889,16.347578125,224418,25.190145126913144,1005.6574677290517,0,40.689123,-73.99152,0.87,14:52:21,False
2024-03-29T10:52:25,-0.15613167464999997,0.1351944769,10.071390323399998,0.041996985126113565,0.0035124751196385882,-0.038331793696925465,0.31514000000000003,0.33782000000000006,-0.4158,5.5,0,11531,9694,14193,35889,16.347578125,224418,25.190145126913144,1005.6574677290517,0,40.689123,-73.99152,0.87,14:52:21,False
2024-03-29T10:52:25,-0.15493526335,0.13459627124999998,10.1288180658,0.03405573702953936,0.0035124751196385882,-0.038484510006474966,0.31514000000000003,0.33726000000000006,-0.40166,5.5,0,11531,9694,14193,35889,16.5614453125,225333,25.204689463410794,1005.6511931502365,0,40.689118,-73.991521,0.87,14:52:22,False
2024-03-29T10:52:25,-0.1328016543,0.1052841944,10.088738287249999,0.038789942625573975,0.0024434609527920616,-0.038789942625573975,0.3199,0.34118,-0.40572,5.5,0,11531,9694,14193,35889,16.5614453125,225333,25.204689463410794,1005.6511931502365,0,40.689118,-73.991521,0.87,14:52:22,False
2024-03-29T10:52:25,-0.13459627124999998,0.1112662509,10.101300605899999,0.03420845333908886,0.007177666548826681,-0.038942658935123484,0.31654000000000004,0.33782000000000006,-0.41076000000000007,5.5,0,11531,9694,14193,35889,16.5614453125,225333,25.204689463410794,1005.6511931502365,0,40.689118,-73.991521,0.87,14:52:22,False
2024-03-29T10:52:25,-0.11066804524999999,0.12741780345,10.25862869185,0.038942658935123484,0.00595593607243065,-0.03497203488683638,0.30954000000000004,0.33642,-0.41076000000000007,5.5,0,11531,9694,14193,35889,16.7462109375,229066,25.201342275167185,1005.6457911510199,0,40.689118,-73.991521,0.87,14:52:22,False
2024-03-29T10:52:25,-0.04247260115,0.1351944769,10.106086251099997,0.04230241774521256,0.013591751549905842,-0.03604104905368291,0.31682000000000005,0.3381,-0.40936,5.5,0,11531,9694,14193,35889,16.7462109375,229066,25.201342275167185,1005.6457911510199,0,40.689118,-73.991521,0.87,14:52:22,False
2024-03-29T10:52:25,-0.12203395259999998,0.11485548479999999,10.08036340815,0.03726277953007894,-0.00595593607243065,-0.038637226316024474,0.31934,0.33502000000000004,-0.41370000000000007,5.5,0,11531,9694,14193,35889,16.9065625,230179,25.196343147406076,1005.6455697042319,0,40.689118,-73.991521,0.87,14:52:22,False
2024-03-29T10:52:25,-0.18723836844999997,0.12203395259999998,10.068997500799998,0.039095375244672985,-0.0012217304763960308,-0.038637226316024474,0.31738000000000005,0.33474,-0.40348,5.5,0,11528,9690,14194,35869,16.9065625,230179,25.196343147406076,1005.6455697042319,0,40.689118,-73.991521,0.87,14:52:22,False
2024-03-29T10:52:25,-0.1782652837,0.11964112999999998,10.098907783299998,0.04260785036431157,0.0036651914291880926,-0.039858956792420505,0.31850000000000006,0.33054,-0.41384000000000004,5.5,0,11528,9690,14194,35869,16.9065625,230179,25.196343147406076,1005.6455697042319,0,40.689118,-73.991521,0.87,14:52:22,5
2024-03-29T10:52:25,-0.15852449724999998,0.11665010174999998,10.1072826624,0.04046982203061852,0.0035124751196385882,-0.03420845333908886,0.31402,0.3395000000000001,-0.40376000000000006,5.5,0,11528,9690,14194,35869,17.0454296875,230819,25.18988566040493,1005.646637414219,0,40.689118,-73.991521,0.87,14:52:22,5
2024-03-29T10:52:25,-0.13758729949999998,0.11964112999999998,10.078568791199999,0.0357356164345839,0.0012217304763960308,-0.03726277953007894,0.31794000000000006,0.33978,-0.39396000000000003,5.5,0,11528,9690,14194,35869,17.0454296875,230819,25.18988566040493,1005.646637414219,0,40.689118,-73.991521,0.73,14:52:22,5
2024-03-29T10:52:25,-0.28474588939999995,0.13698909385,10.14496961835,0.039706240482871004,0.008246680715673207,-0.03787364476827696,0.31542000000000003,0.33614000000000005,-0.39746000000000004,5.5,0,11528,9690,14194,35869,17.0454296875,230819,25.18988566040493,1005.646637414219,0,40.689118,-73.991521,0.73,14:52:22,5
2024-03-29T10:52:25,-0.14117653339999997,0.11365907349999999,10.121639597999998,0.040317105721069016,0.005803219762881146,-0.04016438941151951,0.31458,0.33166,-0.40432000000000007,5.5,0,11528,9690,14194,35869,17.1665234375,233089,25.171585848884096,1005.6604442114867,0,40.68912,-73.991506,0.73,14:52:23,-1
2024-03-29T10:52:26,-0.1782652837,0.12203395259999998,10.111470101950001,0.039706240482871004,0.018173240836390957,-0.038637226316024474,0.31962,0.34398,-0.41342,5.5,0,11528,9690,14194,35869,17.1665234375,233089,25.171585848884096,1005.6604442114867,0,40.68912,-73.991506,0.73,14:52:23,-1
2024-03-29T10:52:26,-0.09391828705,0.10827522265,10.064211855599998,0.03420845333908886,0.01756237559819294,-0.040317105721069016,0.31570000000000004,0.33502000000000004,-0.39858000000000005,5.5,0,11528,9690,14194,35869,17.271796875,237256,25.157522356779687,1005.6621129951682,0,40.68912,-73.991506,0.73,14:52:23,-1
2024-03-29T10:52:26,-0.1579262916,0.10588240005,10.133603711,0.041996985126113565,-0.004123340357836604,-0.03756821214917795,0.31626000000000004,0.33222,-0.39970000000000006,5.5,0,11528,9690,14194,35869,17.271796875,237256,25.157522356779687,1005.6621129951682,0,40.68912,-73.991506,0.73,14:52:23,9
2024-03-29T10:52:26,-0.12981062605,0.13698909385,10.119844981049999,0.03527746750593539,0.005039638215133627,-0.03329215548179184,0.31906,0.32914000000000004,-0.39984000000000003,5.5,0,11528,9690,14194,35869,17.362421875,238107,25.126508010026814,1005.6676684394,0,40.68912,-73.991506,0.73,14:52:23,9
2024-03-29T10:52:26,-0.1304088317,0.12622139215,10.0893364929,0.036804630601430424,0.0024434609527920616,-0.04016438941151951,0.31486000000000003,0.33726000000000006,-0.40572,5.5,0,11499,9670,14173,35814,17.362421875,238107,25.126508010026814,1005.6676684394,0,40.689123,-73.991483,0.73,14:52:24,9
2024-03-29T10:52:26,-0.11784651304999999,0.11006983959999998,10.08634546465,0.03741549583962844,-0.005192354524683131,-0.03375030441044035,0.32046,0.33642,-0.40138000000000007,5.5,0,11499,9670,14173,35814,17.362421875,238107,25.126508010026814,1005.6676684394,0,40.689123,-73.991483,0.73,14:52:24,9
2024-03-29T10:52:26,-0.12323036389999999,0.12442677519999999,10.08155981945,0.036193765363232405,-0.012217304763960308,-0.037110063220529434,0.32270000000000004,0.33670000000000005,-0.40292,5.5,0,11499,9670,14173,35814,17.4415234375,240175,25.12128856125152,1005.6752568346517,0,40.689123,-73.991483,0.73,14:52:24,-1
2024-03-29T10:52:26,-0.11964112999999998,0.11844471869999999,10.138987561849998,0.038789942625573975,0.014202616788103858,-0.04321871560250959,0.32046,0.32858000000000004,-0.39466,5.5,0,11499,9670,14173,35814,17.4415234375,240175,25.12128856125152,1005.6752568346517,0,40.689123,-73.991483,0.69,14:52:24,-1
2024-03-29T10:52:26,-0.15373885204999999,0.10947163395000001,10.091729315499999,0.038331793696925465,-0.002901609881440573,-0.038484510006474966,0.31346,0.33138000000000006,-0.41244000000000003,5.5,0,11499,9670,14173,35814,17.513203125,242280,25.09961184220861,1005.6863900195382,0,40.689123,-73.991483,0.69,14:52:24,-1
2024-03-29T10:52:26,-0.13698909385,0.1088734283,10.0893364929,0.03787364476827696,0.01114829059711378,-0.03634648167278191,0.30758,0.34118,-0.3971800000000001,5.5,0,11499,9670,14173,35814,17.513203125,242280,25.09961184220861,1005.6863900195382,0,40.689126,-73.991465,0.69,14:52:25,10
2024-03-29T10:52:26,-0.15493526335,0.09930213789999999,10.1001041946,0.03283400655314333,0.0016798794050445422,-0.039553524173321496,0.31374,0.33082000000000006,-0.39942,5.5,0,11499,9670,14173,35814,17.57453125,247153,25.06127956826282,1005.6856775452924,0,40.689126,-73.991465,0.69,14:52:25,10
2024-03-29T10:52:26,-0.14057832774999998,0.11964112999999998,10.0929257268,0.03787364476827696,-0.003207042500539581,-0.03543018381548489,0.31346,0.33670000000000005,-0.40628000000000003,5.5,0,11499,9670,14173,35814,17.57453125,247153,25.06127956826282,1005.6856775452924,0,40.689126,-73.991465,0.69,14:52:25,10
2024-03-29T10:52:26,-0.1280160091,0.09690931529999999,10.1001041946,0.04016438941151951,-0.0003054326190990077,-0.04046982203061852,0.31878,0.33726000000000006,-0.3925600000000001,5.5,0,11499,9670,14173,35814,17.57453125,247153,25.06127956826282,1005.6856775452924,0,40.689126,-73.991465,0.38,14:52:25,-1
2024-03-29T10:52:27,-0.0945164927,0.107677017,10.08634546465,0.03481931857728687,0.007635815477475193,-0.0355829001250344,0.32214000000000004,0.33614000000000005,-0.40082000000000007,5.5,0,11499,9670,14173,35814,17.63078125,248262,25.02791985447765,1005.680077628125,0,40.689126,-73.991465,0.38,14:52:25,-1
2024-03-29T10:52:27,-0.15672988029999999,0.11425727914999999,10.11386292455,0.03726277953007894,0.008704829644321718,-0.03802636107782646,0.31794000000000006,0.33390000000000003,-0.40516,5.5,0,11516,9689,14204,35876,17.63078125,248262,25.02791985447765,1005.680077628125,0,40.68913,-73.991445,0.38,14:52:26,-1
2024-03-29T10:52:27,-0.16630117069999997,0.14057832774999998,10.12223780365,0.036193765363232405,0.0022907446432425577,-0.03466660226773738,0.31682000000000005,0.33502000000000004,-0.40474000000000004,5.5,0,11516,9689,14204,35876,17.63078125,248262,25.02791985447765,1005.680077628125,0,40.68913,-73.991445,0.38,14:52:26,6
2024-03-29T10:52:27,-0.14895320685,0.11665010174999998,10.122836009299998,0.038789942625573975,0.0006108652381980154,-0.040622538340168025,0.31598000000000004,0.33586,-0.3948,5.5,0,11516,9689,14204,35876,17.6817578125,249945,25.0048315673763,1005.6745498241654,0,40.68913,-73.991445,0.38,14:52:26,6
2024-03-29T10:52:27,-0.13938191645,0.15134602945,10.089934698549998,0.039858956792420505,0.004276056667386108,-0.039400807863771994,0.32354,0.3330600000000001,-0.3976,5.5,0,11516,9689,14204,35876,17.6817578125,249945,25.0048315673763,1005.6745498241654,0,40.68913,-73.991445,0.61,14:52:26,6
2024-03-29T10:52:27,-0.1459621786,0.107677017,10.1240324206,0.03665191429188092,-0.004123340357836604,-0.036499197982331415,0.31206,0.33446000000000004,-0.40404,5.5,0,11516,9689,14204,35876,17.6817578125,249945,25.0048315673763,1005.6745498241654,0,40.68913,-73.991445,0.61,14:52:26,6
2024-03-29T10:52:27,-0.12203395259999998,0.11306086784999998,10.0749795573,0.036193765363232405,-0.007330382858376185,-0.03802636107782646,0.31878,0.3353,-0.40908000000000005,5.5,0,11516,9689,14204,35876,17.726484375,251080,24.97069062186758,1005.6745244870908,0,40.689133,-73.991433,0.61,14:52:27,-1
2024-03-29T10:52:27,-0.15433705769999997,0.1328016543,10.0893364929,0.03313943917224234,-0.006719517620178169,-0.03466660226773738,0.31542000000000003,0.3311,-0.40474000000000004,5.5,0,11516,9689,14204,35876,17.726484375,251080,24.97069062186758,1005.6745244870908,0,40.689133,-73.991433,0.61,14:52:27,-1
2024-03-29T10:52:27,-0.15912270289999997,0.09750752095,10.063015444300001,0.03787364476827696,0.005039638215133627,-0.038789942625573975,0.31234,0.33194000000000007,-0.4053,5.5,0,11516,9689,14204,35876,17.7675,254938,24.936301144467617,1005.6824408163343,0,40.689133,-73.991433,0.61,14:52:27,-1
2024-03-29T10:52:27,-0.1519442351,0.10468598874999999,10.062417238649997,0.03451388595818787,0.0013744467859455349,-0.03222314131494531,0.31486000000000003,0.33642,-0.40712000000000004,5.5,0,11516,9689,14204,35876,17.7675,254938,24.936301144467617,1005.6824408163343,0,40.689133,-73.991433,0.61,14:52:27,-1
2024-03-29T10:52:27,-0.15373885204999999,0.13579268255,10.064211855599998,0.03451388595818787,0.0056505034533316425,-0.03344487179134134,0.30954000000000004,0.33362,-0.40656000000000003,5.5,0,11516,9689,14204,35876,17.8020703125,257711,24.89616634846159,1005.684984283783,0,40.689133,-73.991433,0.61,14:52:27,4
2024-03-29T10:52:27,-0.16630117069999997,0.11784651304999999,10.1156575415,0.03634648167278191,-0.005345070834232635,-0.038331793696925465,0.31962,0.32970000000000005,-0.40348,5.5,0,11568,9734,14264,36021,17.8020703125,257711,24.89616634846159,1005.684984283783,0,40.689133,-73.991433,0.61,14:52:27,4
2024-03-29T10:52:27,-0.14057832774999998,0.11186445655,10.225129175449998,0.03634648167278191,0.0016798794050445422,-0.037110063220529434,0.31738000000000005,0.33726000000000006,-0.40628000000000003,5.5,0,11568,9734,14264,36021,17.832734375,258715,24.855773865897028,1005.6881113271729,0,40.689133,-73.991433,0.61,14:52:27,4
2024-03-29T10:52:28,-0.15074782379999999,0.11545369045,10.071988529050001,0.03726277953007894,-0.0016798794050445422,-0.03695734691097993,0.31262,0.3330600000000001,-0.40292,5.5,0,11568,9734,14264,36021,17.832734375,258715,24.855773865897028,1005.6881113271729,0,40.689133,-73.991433,0.61,14:52:27,-1
2024-03-29T10:52:28,-0.18604195715,0.11006983959999998,10.097113166349997,0.04077525464971753,0.03237585762449482,-0.040317105721069016,0.31514000000000003,0.33586,-0.40558000000000005,5.5,0,11568,9734,14264,36021,17.8594921875,261571,24.815124577005232,1005.6830218238794,0,40.689133,-73.991433,0.61,14:52:27,-1
2024-03-29T10:52:28,-0.16809578764999997,0.1268195978,10.1443714127,0.039858956792420505,0.005039638215133627,-0.04123340357836604,0.31794000000000006,0.34090000000000004,-0.39942,5.5,0,11568,9734,14264,36021,17.8594921875,261571,24.815124577005232,1005.6830218238794,0,40.689133,-73.991433,0.27,14:52:27,-1
2024-03-29T10:52:28,-0.26919254249999996,0.12203395259999998,10.109077279349998,0.03375030441044035,0.003054326190990077,-0.03741549583962844,0.31514000000000003,0.3389400000000001,-0.40236,5.5,0,11568,9734,14264,36021,17.8594921875,261571,24.815124577005232,1005.6830218238794,0,40.689133,-73.991433,0.27,14:52:27,-1
2024-03-29T10:52:28,-0.09511469834999998,0.1483550012,10.0821580251,0.04153883619746505,0.017409659288643436,-0.0355829001250344,0.31542000000000003,0.33362,-0.39928,5.5,0,11568,9734,14264,36021,17.8837109375,261159,24.77961893017334,1005.6860577655056,0,40.689138,-73.991423,0.27,14:52:28,-1
2024-03-29T10:52:28,-0.1088734283,0.1387837108,10.077970585549998,0.03207042500539581,-0.0036651914291880926,-0.0355829001250344,0.31794000000000006,0.3400600000000001,-0.40054,5.5,0,11568,9734,14264,36021,17.8837109375,261159,24.77961893017334,1005.6860577655056,0,40.689138,-73.991423,0.27,14:52:28,4
2024-03-29T10:52:28,-0.059222359349999996,0.13220344865,10.110273690649999,0.03390302071998985,-0.0036651914291880926,-0.03741549583962844,0.31486000000000003,0.33754,-0.41034000000000004,5.5,0,11559,9728,14261,36011,17.9067578125,265761,24.73343029334198,1005.6871557405185,0,40.689138,-73.991423,0.27,14:52:28,-1
2024-03-29T10:52:28,-0.19441683624999997,0.11545369045,10.12223780365,0.03481931857728687,-0.0044287729769356115,-0.03481931857728687,0.32186000000000003,0.33670000000000005,-0.40278,5.5,0,11559,9728,14261,36011,17.9067578125,265761,24.73343029334198,1005.6871557405185,0,40.689138,-73.991423,0.64,14:52:28,-1
2024-03-29T10:52:28,-0.14356935599999998,0.11665010174999998,10.0582297991,0.036193765363232405,0.010231992739816757,-0.03772092845872745,0.31822,0.33782000000000006,-0.4116,5.5,0,11559,9728,14261,36011,17.896015625,256912,24.65315256934792,1005.7028612553951,0,40.689138,-73.991423,0.64,14:52:28,-1
2024-03-29T10:52:28,-0.14356935599999998,0.09870393224999999,10.09113110985,0.039095375244672985,0.005803219762881146,-0.040622538340168025,0.32046,0.33670000000000005,-0.40264000000000005,5.5,0,11559,9728,14261,36011,17.896015625,256912,24.65315256934792,1005.7028612553951,0,40.689141,-73.991418,0.64,14:52:29,-1
2024-03-29T10:52:29,-0.19202401365,0.1004985492,10.0594262104,0.03695734691097993,0.010995574287564279,-0.037110063220529434,0.32018,0.33754,-0.39578,5.5,0,11562,9732,14271,36018,17.8606640625,262398,24.61895863514462,1005.6972799771517,0,40.689141,-73.991418,0.64,14:52:29,-1
2024-03-29T10:52:29,-0.10408778309999998,0.11605189609999998,10.1072826624,0.0355829001250344,0.0007635815477475193,-0.03802636107782646,0.31850000000000006,0.33586,-0.40334000000000003,5.5,0,11562,9732,14271,36018,17.8606640625,262398,24.61895863514462,1005.6972799771517,0,40.689141,-73.991418,0.64,14:52:29,-1
2024-03-29T10:52:29,-0.11784651304999999,0.11066804524999999,10.028917722249998,0.038942658935123484,0.0015271630954950385,-0.03512475119638588,0.31738000000000005,0.33866,-0.40166,5.5,0,11562,9732,14271,36018,17.8606640625,262398,24.61895863514462,1005.6972799771517,0,40.689141,-73.991418,0.12,14:52:29,-1
2024-03-29T10:52:29,-0.1328016543,0.12023933564999999,10.071988529050001,0.03772092845872745,-0.0027488935718910697,-0.038179077387375956,0.31934,0.33418000000000003,-0.40684000000000003,5.5,0,11562,9732,14271,36018,17.348359375,244422,24.320060535220147,1005.7130267616213,0,40.689141,-73.991418,0.12,14:52:29,-1
2024-03-29T10:52:29,-0.017946169499999998,0.15912270289999997,10.0929257268,0.04153883619746505,0.027947084647559205,-0.038789942625573975,0.31458,0.33782000000000006,-0.4011,5.5,0,11562,9732,14271,36018,17.348359375,244422,24.320060535220147,1005.7130267616213,0,40.689143,-73.991408,0.12,14:52:30,12
2024-03-29T10:52:30,-0.13339985995,0.13220344865,10.012167964049999,0.038331793696925465,0.008552113334772215,-0.03756821214917795,0.31262,0.33642,-0.41034000000000004,5.5,0,11547,9717,14258,35938,17.0977734375,252225,24.298134100504225,1005.6857023942247,0,40.689143,-73.991408,0.12,14:52:30,12
2024-03-29T10:52:30,-0.09571290399999999,0.12143574694999999,10.066006472549999,0.038179077387375956,0.0036651914291880926,-0.03772092845872745,0.31738000000000005,0.32970000000000005,-0.4083800000000001,5.5,0,11547,9717,14258,35938,17.0977734375,252225,24.298134100504225,1005.6857023942247,0,40.689143,-73.991408,0.12,14:52:30,12
2024-03-29T10:52:30,-0.107677017,0.12263215824999998,10.089934698549998,0.0,0.004123340357836604,-0.038331793696925465,0.31486000000000003,0.33362,-0.40166,5.5,0,11547,9717,14258,35938,17.0977734375,252225,24.298134100504225,1005.6857023942247,0,40.689143,-73.991408,0.62,14:52:30,12
2024-03-29T10:52:30,-0.11006983959999998,0.12023933564999999,10.0929257268,0.03344487179134134,0.0036651914291880926,-0.039553524173321496,0.32438000000000006,0.33026000000000005,-0.4030600000000001,5.5,0,11547,9717,14258,35938,16.5567578125,237766,23.99376167727614,1005.6926297624843,0,40.689143,-73.991408,0.62,14:52:30,12
2024-03-29T10:52:30,-0.10947163395000001,0.11545369045,10.0594262104,0.038942658935123484,0.004581489286485115,-0.03802636107782646,0.31934,0.33194000000000007,-0.40670000000000006,5.5,0,11484,9675,14204,35796,16.5567578125,237766,23.99376167727614,1005.6926297624843,0,40.689143,-73.991398,0.62,14:52:31,-1
2024-03-29T10:52:31,-0.1459621786,0.13459627124999998,10.0534441539,0.039095375244672985,-0.0019853120241435504,-0.03588833274413341,0.32074,0.33558000000000004,-0.40964000000000006,5.5,0,11475,9673,14203,35776,16.3493359375,245689,24.00127298325212,1005.6709135605843,0,40.689143,-73.991398,0.62,14:52:31,-1
2024-03-29T10:52:31,-0.13459627124999998,0.13938191645,10.0929257268,0.0355829001250344,0.0068722339297276735,-0.03741549583962844,0.3073,0.3395000000000001,-0.4046,5.5,0,11475,9673,14203,35776,16.3493359375,245689,24.00127298325212,1005.6709135605843,0,40.689143,-73.991398,0.62,14:52:31,-1
2024-03-29T10:52:31,-0.14356935599999998,0.12622139215,10.0941221381,0.03756821214917795,-0.007941248096574201,-0.03481931857728687,0.3143,0.3459400000000001,-0.41174000000000005,5.5,0,11475,9673,14203,35776,16.3493359375,245689,24.00127298325212,1005.6709135605843,0,40.689143,-73.991398,0.82,14:52:31,-1
2024-03-29T10:52:31,-0.15373885204999999,0.1268195978,10.096514960699999,0.03756821214917795,0.005803219762881146,-0.037110063220529434,0.31514000000000003,0.3381,-0.41412000000000004,5.5,0,11475,9673,14203,35776,15.9587109375,234904,23.79209793818989,1005.6758191698707,0,40.689143,-73.991398,0.82,14:52:31,-1
2024-03-29T10:52:31,-0.1447657673,0.11665010174999998,10.12463062625,0.03756821214917795,0.003054326190990077,-0.03665191429188092,0.31626000000000004,0.33698,-0.4123,5.5,0,11475,9673,14203,35776,15.9587109375,234904,23.79209793818989,1005.6758191698707,0,40.689143,-73.99141,0.82,14:52:32,9
2024-03-29T10:52:32,-0.10348957745,0.1280160091,10.05643518215,0.03726277953007894,-0.002138028333693054,-0.03726277953007894,0.31542000000000003,0.33642,-0.38780000000000003,5.5,0,11500,9693,14241,35821,15.8684765625,244242,23.802023951494814,1005.6633412412099,0,40.689143,-73.99141,0.82,14:52:32,9
2024-03-29T10:52:32,-0.12143574694999999,0.13220344865,10.006784113199998,0.03359758810089085,-0.0016798794050445422,-0.04001167310197001,0.30562,0.33782000000000006,-0.40614000000000006,5.5,0,11500,9693,14241,35821,15.8684765625,244242,23.802023951494814,1005.6633412412099,0,40.689143,-73.99141,0.82,14:52:32,9
2024-03-29T10:52:32,-0.13818550515,0.1280160091,10.033703367449998,0.03726277953007894,0.0013744467859455349,-0.038789942625573975,0.30786,0.34370000000000006,-0.39886,5.5,0,11500,9693,14241,35821,15.8684765625,244242,23.802023951494814,1005.6633412412099,0,40.689143,-73.99141,0.82,14:52:32,9
2024-03-29T10:52:32,-0.13160524299999998,0.09870393224999999,10.0929257268,0.037110063220529434,-0.0015271630954950385,-0.03405573702953936,0.30702,0.33866,-0.4019400000000001,5.5,0,11500,9693,14241,35821,15.567890625,233911,23.615042287732148,1005.6656906815997,0,40.689143,-73.99141,0.82,14:52:32,9
2024-03-29T10:52:32,-0.1363908882,0.11665010174999998,10.08395264205,0.03802636107782646,0.0016798794050445422,-0.0355829001250344,0.30842,0.34678000000000003,-0.40208000000000005,5.5,0,11500,9693,14241,35821,15.567890625,233911,23.615042287732148,1005.6656906815997,0,40.689143,-73.99141,0.82,14:52:32,9
2024-03-29T10:52:32,-0.1088734283,0.1483550012,10.07318494035,0.03298672286269283,0.0015271630954950385,-0.03756821214917795,0.31626000000000004,0.33838000000000007,-0.4018,5.5,0,11500,9693,14241,35821,15.567890625,233911,23.615042287732148,1005.6656906815997,0,40.689143,-73.99141,0.82,14:52:32,9
2024-03-29T10:52:32,-0.11665010174999998,0.12382856954999999,10.054042359550001,0.03741549583962844,-0.0019853120241435504,-0.03772092845872745,0.30898000000000003,0.33838000000000007,-0.39004,5.5,0,11449,9659,14193,35701,15.551484375,243346,23.650649190624414,1005.652554448747,0,40.689143,-73.99141,0.82,14:52:32,9
2024-03-29T10:52:32,-0.11246266220000001,0.13758729949999998,10.0893364929,0.07437284275060838,-0.021838432265579053,-0.039858956792420505,0.31486000000000003,0.3423,-0.40768000000000004,5.5,0,11449,9659,14193,35701,15.551484375,243346,23.650649190624414,1005.652554448747,0,40.689143,-73.99141,0.82,14:52:32,-1
2024-03-29T10:52:32,-0.11186445655,0.12203395259999998,10.083354436399997,0.03695734691097993,0.0006108652381980154,-0.03543018381548489,0.31234,0.34062,-0.39620000000000005,5.5,0,11449,9659,14193,35701,15.737421875,247521,23.688737013369508,1005.6481687360334,0,40.689143,-73.99141,0.58,14:52:32,-1
2024-03-29T10:52:32,-0.14775679555,0.11784651304999999,10.082756230749998,0.04123340357836604,0.00045814892864851157,-0.039706240482871004,0.30534000000000006,0.34370000000000006,-0.40362000000000003,5.5,0,11449,9659,14193,35701,15.737421875,247521,23.688737013369508,1005.6481687360334,0,40.689143,-73.99141,0.58,14:52:32,-1
2024-03-29T10:52:32,-0.14057832774999998,0.11904292434999998,10.071988529050001,0.03512475119638588,0.0016798794050445422,-0.038942658935123484,0.31850000000000006,0.33782000000000006,-0.41244000000000003,5.5,0,11449,9659,14193,35701,15.737421875,247521,23.688737013369508,1005.6481687360334,0,40.689145,-73.991406,0.58,14:52:33,10
2024-03-29T10:52:33,-0.1052841944,0.11365907349999999,10.0725867347,0.03405573702953936,0.006414085001079162,-0.037110063220529434,0.31514000000000003,0.33670000000000005,-0.40866,5.5,0,11449,9659,14193,35701,15.9985546875,252225,23.710737662211365,1005.638211577036,0,40.689145,-73.991406,0.58,14:52:33,10
2024-03-29T10:52:33,-0.11006983959999998,0.13160524299999998,10.1024970172,0.038484510006474966,0.0025961772623415654,-0.03802636107782646,0.31766,0.33866,-0.40446000000000004,5.5,0,11507,9701,14266,35832,15.9985546875,252225,23.710737662211365,1005.638211577036,0,40.689145,-73.991406,0.58,14:52:33,10
2024-03-29T10:52:33,-0.15074782379999999,0.11006983959999998,10.067801089499998,0.04001167310197001,-0.0038179077387375964,-0.03604104905368291,0.30758,0.3389400000000001,-0.40866,5.5,0,11507,9701,14266,35832,15.9985546875,252225,23.710737662211365,1005.638211577036,0,40.689145,-73.991406,0.18,14:52:33,10
2024-03-29T10:52:33,-0.12741780345,0.1483550012,10.016953609249999,0.038331793696925465,-0.0027488935718910697,-0.03588833274413341,0.30954000000000004,0.3423,-0.40824000000000005,5.5,0,11507,9701,14266,35832,15.9438671875,240002,23.597167425557075,1005.6652893944374,0,40.689145,-73.991406,0.18,14:52:33,10
2024-03-29T10:52:33,-0.09930213789999999,0.12323036389999999,10.021739254449999,0.03802636107782646,0.0009162978572970231,-0.038179077387375956,0.31542000000000003,0.33418000000000003,-0.39928,5.5,0,11507,9701,14266,35832,15.9438671875,240002,23.597167425557075,1005.6652893944374,0,40.689145,-73.991411,0.18,14:52:34,-1
2024-03-29T10:52:34,-0.12622139215,0.11844471869999999,10.060024416049998,0.03695734691097993,0.0036651914291880926,-0.036499197982331415,0.31710000000000005,0.3325000000000001,-0.3990000000000001,5.5,0,11521,9713,14292,35892,16.013984375,249007,23.61737451316325,1005.6532185078286,0,40.689145,-73.991411,0.18,14:52:34,-1
2024-03-29T10:52:34,-0.12263215824999998,0.09810572659999998,10.09591675505,0.03787364476827696,0.003054326190990077,-0.03634648167278191,0.3143,0.3353,-0.3995600000000001,5.5,0,11521,9713,14292,35892,16.013984375,249007,23.61737451316325,1005.6532185078286,0,40.689145,-73.991411,0.18,14:52:34,-1
2024-03-29T10:52:34,-0.1339980656,0.12083754129999999,10.043274657849999,0.036804630601430424,0.005345070834232635,-0.03924809155422249,0.31878,0.33614000000000005,-0.39298,5.5,0,11521,9713,14292,35892,16.013984375,249007,23.61737451316325,1005.6532185078286,0,40.689145,-73.991411,0.62,14:52:34,-1
2024-03-29T10:52:34,-0.11665010174999998,0.1351944769,10.088140081599997,0.03695734691097993,0.004886921905584123,-0.03756821214917795,0.31122000000000005,0.3453800000000001,-0.40572,5.5,0,11521,9713,14292,35892,15.734296875,237256,23.437257659186628,1005.6535221614521,0,40.689145,-73.991411,0.62,14:52:34,-1
2024-03-29T10:52:34,-0.14297115034999996,0.1363908882,10.1024970172,0.037110063220529434,0.0024434609527920616,-0.03527746750593539,0.31486000000000003,0.34174,-0.40628000000000003,5.5,0,11521,9713,14292,35892,15.734296875,237256,23.437257659186628,1005.6535221614521,0,40.689145,-73.991408,0.62,14:52:35,-1
2024-03-29T10:52:35,-0.1531406464,0.1112662509,10.077970585549998,0.03756821214917795,-0.00015271630954950385,-0.03695734691097993,0.31570000000000004,0.34202000000000005,-0.41020000000000006,5.5,0,11539,9732,14309,35931,15.72296875,245507,23.478381700224634,1005.6382754990617,0,40.689145,-73.991408,0.62,14:52:35,-1
2024-03-29T10:52:35,-0.13818550515,0.13698909385,10.096514960699999,0.0357356164345839,0.0009162978572970231,-0.03665191429188092,0.31570000000000004,0.34118,-0.4088,4.5,0,11539,9732,14309,35931,15.72296875,245507,23.478381700224634,1005.6382754990617,0,40.689145,-73.991408,0.62,14:52:35,-1
2024-03-29T10:52:35,-0.09930213789999999,0.1280160091,10.083354436399997,0.038789942625573975,0.00595593607243065,-0.03375030441044035,0.31458,0.34062,-0.40866,5.5,0,11539,9732,14309,35931,15.72296875,245507,23.478381700224634,1005.6382754990617,0,40.689145,-73.991408,0.5,14:52:35,-1
2024-03-29T10:52:35,-0.13220344865,0.13818550515,10.0941221381,0.036193765363232405,-0.00595593607243065,-0.038789942625573975,0.31710000000000005,0.3400600000000001,-0.40348,5.5,0,11539,9732,14309,35931,15.4899609375,235571,23.338170210077465,1005.6523981849059,0,40.689145,-73.991408,0.5,14:52:35,-1
2024-03-29T10:52:35,-0.11784651304999999,0.10229316614999999,10.107880868049998,0.03604104905368291,0.005192354524683131,-0.03604104905368291,0.31150000000000005,0.34314000000000006,-0.41874000000000006,5.5,0,11550,9745,14323,35979,15.4899609375,235571,23.338170210077465,1005.6523981849059,0,40.689145,-73.991413,0.5,14:52:36,-1
2024-03-29T10:52:36,-0.1363908882,0.13758729949999998,10.089934698549998,0.038331793696925465,0.0033597588100890844,-0.03787364476827696,0.30954000000000004,0.34286,-0.40712000000000004,5.5,0,11559,9756,14350,36005,15.520625,243346,23.376675518896626,1005.6382848054282,0,40.689145,-73.991413,0.5,14:52:36,-1
2024-03-29T10:52:36,-0.13220344865,0.1292124204,10.0773723799,0.03695734691097993,0.006108652381980154,-0.04001167310197001,0.31346,0.34146000000000004,-0.41146000000000005,5.5,0,11559,9756,14350,36005,15.520625,243346,23.376675518896626,1005.6382848054282,0,40.689145,-73.991413,0.5,14:52:36,-1
2024-03-29T10:52:36,-0.14237294469999998,0.11066804524999999,10.11745215845,0.04046982203061852,0.0033597588100890844,-0.03756821214917795,0.30926000000000003,0.33474,-0.4001200000000001,5.5,0,11559,9756,14350,36005,15.520625,243346,23.376675518896626,1005.6382848054282,0,40.689145,-73.991413,0.17,14:52:36,-1
2024-03-29T10:52:36,-0.1363908882,0.11365907349999999,10.061819032999999,0.03588833274413341,0.007483099167925688,-0.038179077387375956,0.31262,0.32942,-0.41594000000000003,5.5,0,11559,9756,14350,36005,15.3208203125,232926,23.270088835842735,1005.6423196783113,0,40.689145,-73.991413,0.17,14:52:36,-1
2024-03-29T10:52:36,-0.16151552549999998,0.12622139215,10.0953185494,0.03390302071998985,0.00045814892864851157,-0.03512475119638588,0.31150000000000005,0.34398,-0.41202000000000005,5.5,0,11559,9756,14350,36005,15.3208203125,232926,23.270088835842735,1005.6423196783113,0,40.689145,-73.991413,0.17,14:52:37,-1
2024-03-29T10:52:37,-0.14775679555,0.12203395259999998,10.0366943957,0.038484510006474966,0.002138028333693054,-0.039706240482871004,0.31402,0.34202000000000005,-0.42126,5.5,0,11567,9767,14379,36030,15.3825390625,240002,23.326173809578904,1005.6270617757202,0,40.689145,-73.991413,0.17,14:52:37,-1
2024-03-29T10:52:37,-0.1292124204,0.14297115034999996,10.101898811549999,0.03451388595818787,-0.0009162978572970231,-0.03695734691097993,0.30954000000000004,0.33726000000000006,-0.42126,5.5,0,11567,9767,14379,36030,15.3825390625,240002,23.326173809578904,1005.6270617757202,0,40.689145,-73.991413,0.17,14:52:37,-1
2024-03-29T10:52:37,-0.1447657673,0.11246266220000001,10.107880868049998,0.038942658935123484,0.00015271630954950385,-0.04046982203061852,0.30954000000000004,0.3381,-0.40824000000000005,5.5,0,11567,9767,14379,36030,15.3825390625,240002,23.326173809578904,1005.6270617757202,0,40.689145,-73.991413,0.17,14:52:37,-1
2024-03-29T10:52:37,-0.14237294469999998,0.1328016543,9.985846915449999,0.03726277953007894,0.0015271630954950385,-0.03665191429188092,0.31066000000000005,0.33474,-0.41356000000000004,5.5,0,11567,9767,14379,36030,15.2159375,231949,23.247850432628745,1005.6193646563217,0,40.689145,-73.991413,0.17,14:52:37,-1
2024-03-29T10:52:37,-0.13938191645,0.12442677519999999,10.145567823999999,0.04077525464971753,0.004581489286485115,-0.04123340357836604,0.31206,0.33418000000000003,-0.41972000000000004,5.5,0,11567,9767,14379,36030,15.2159375,231949,23.247850432628745,1005.6193646563217,0,40.689145,-73.991413,0.17,14:52:37,-1
2024-03-29T10:52:37,-0.14177473905,0.10468598874999999,10.11625574715,0.04077525464971753,0.0035124751196385882,-0.04046982203061852,0.31402,0.3400600000000001,-0.4025000000000001,5.5,0,11595,9794,14416,36103,15.2159375,231949,23.247850432628745,1005.6193646563217,0,40.689145,-73.991413,0.17,14:52:37,-1
2024-03-29T10:52:37,-0.14057832774999998,0.10169496049999999,10.14018397315,0.03283400655314333,-0.0019853120241435504,-0.038179077387375956,0.30814,0.34258000000000005,-0.4060000000000001,5.5,0,11595,9794,14416,36103,15.300703125,238965,23.29491933170551,1005.6089972574383,0,40.689145,-73.991413,0.17,14:52:37,-1
2024-03-29T10:52:37,-0.12562318649999998,0.1280160091,10.085149053349998,0.0355829001250344,0.004276056667386108,-0.039553524173321496,0.30702,0.33726000000000006,-0.42378000000000005,5.5,0,11595,9794,14416,36103,15.300703125,238965,23.29491933170551,1005.6089972574383,0,40.689145,-73.991413,0.17,14:52:37,-1
2024-03-29T10:52:37,-0.13459627124999998,0.11485548479999999,10.2125668568,0.03924809155422249,-0.0012217304763960308,-0.038942658935123484,0.31682000000000005,0.33866,-0.39858000000000005,5.5,0,11595,9794,14416,36103,15.300703125,238965,23.29491933170551,1005.6089972574383,0,40.689145,-73.991413,0.13,14:52:37,-1
2024-03-29T10:52:37,-0.12502498085,0.11365907349999999,10.073783145999998,0.03726277953007894,0.00045814892864851157,-0.03924809155422249,0.31094000000000005,0.33586,-0.42294000000000004,5.5,0,11595,9794,14416,36103,15.562421875,245507,23.363642702370132,1005.5952410514743,0,40.689145,-73.991413,0.13,14:52:37,-1
2024-03-29T10:52:37,-0.14536397295,0.13998012209999997,10.109077279349998,0.03237585762449482,0.007483099167925688,-0.03543018381548489,0.31318,0.33558000000000004,-0.40964000000000006,5.5,0,11595,9794,14416,36103,15.562421875,245507,23.363642702370132,1005.5952410514743,0,40.689145,-73.991413,0.13,14:52:38,-1
2024-03-29T10:52:38,-0.16450655374999998,0.12382856954999999,10.0905329042,0.04001167310197001,0.006261368691529657,-0.039706240482871004,0.31318,0.34426000000000007,-0.40586,5.5,0,11633,9827,14456,36216,15.882734375,249757,23.410074780163242,1005.5939311717808,0,40.689145,-73.991413,0.13,14:52:38,-1
2024-03-29T10:52:38,-0.14177473905,0.12622139215,10.0893364929,0.038637226316024474,0.002138028333693054,-0.03390302071998985,0.31458,0.3400600000000001,-0.41552000000000006,5.5,0,11633,9827,14456,36216,15.882734375,249757,23.410074780163242,1005.5939311717808,0,40.689145,-73.991413,0.13,14:52:38,-1
2024-03-29T10:52:38,-0.1292124204,0.11844471869999999,10.079765202499999,0.040317105721069016,0.0018325957145940463,-0.03695734691097993,0.30590000000000006,0.3451,-0.39970000000000006,5.5,0,11633,9827,14456,36216,15.882734375,249757,23.410074780163242,1005.5939311717808,0,40.689145,-73.991413,0.45,14:52:38,-1
2024-03-29T10:52:38,-0.12442677519999999,0.13160524299999998,10.069595706449999,0.03665191429188092,0.0,-0.03665191429188092,0.31486000000000003,0.34678000000000003,-0.41300000000000003,5.5,0,11633,9827,14456,36216,15.8700390625,239137,23.32039512745406,1005.6167897646154,0,40.689145,-73.991413,0.45,14:52:38,-1
2024-03-29T10:52:38,-0.10408778309999998,0.14656038424999998,10.097113166349997,0.04016438941151951,0.004123340357836604,-0.039095375244672985,0.30618,0.33754,-0.40418000000000004,5.5,0,11633,9827,14456,36216,15.8700390625,239137,23.32039512745406,1005.6167897646154,0,40.689143,-73.991408,0.45,14:52:39,-1
2024-03-29T10:52:39,-0.1363908882,0.11964112999999998,10.091729315499999,0.03481931857728687,0.0024434609527920616,-0.038942658935123484,0.3129,0.33782000000000006,-0.40628000000000003,5.5,0,11685,9878,14525,36405,15.9747265625,247153,23.379308830069007,1005.6040378074745,0,40.689143,-73.991408,0.45,14:52:39,-1
2024-03-29T10:52:39,-0.1363908882,0.11964112999999998,10.104291634149998,0.038942658935123484,0.003054326190990077,-0.04230241774521256,0.31122000000000005,0.34706000000000004,-0.3960600000000001,5.5,0,11685,9878,14525,36405,15.9747265625,247153,23.379308830069007,1005.6040378074745,0,40.689143,-73.991408,0.45,14:52:39,-1
2024-03-29T10:52:39,-0.107677017,0.107677017,10.09352393245,0.03436116964863837,0.002138028333693054,-0.03359758810089085,0.31374,0.33754,-0.40740000000000004,5.5,0,11685,9878,14525,36405,15.9747265625,247153,23.379308830069007,1005.6040378074745,0,40.689143,-73.991408,0.97,14:52:39,-1
2024-03-29T10:52:39,-0.1292124204,0.1268195978,10.107880868049998,0.03405573702953936,0.003054326190990077,-0.03527746750593539,0.31122000000000005,0.34118,-0.3960600000000001,5.5,0,11685,9878,14525,36405,15.720625,236242,23.263938194392725,1005.6168497454586,0,40.689143,-73.991408,0.97,14:52:39,-1
2024-03-29T10:52:39,-0.15254244074999998,0.10348957745,10.077970585549998,0.03802636107782646,0.00473420559603462,-0.03695734691097993,0.30926000000000003,0.34286,-0.40390000000000004,4.5,0,11685,9878,14525,36405,15.720625,236242,23.263938194392725,1005.6168497454586,0,40.689141,-73.991406,0.97,14:52:40,-1
2024-03-29T10:52:40,-0.14237294469999998,0.12442677519999999,10.091729315499999,0.03695734691097993,0.002138028333693054,-0.03741549583962844,0.30954000000000004,0.3389400000000001,-0.39382000000000006,5.5,0,11708,9898,14555,36485,15.728828125,245507,23.30624060904941,1005.6023585074659,0,40.689141,-73.991406,0.97,14:52:40,-1
2024-03-29T10:52:40,-0.12622139215,0.14775679555,10.25503945795,0.0355829001250344,0.002138028333693054,-0.039400807863771994,0.31066000000000005,0.3400600000000001,-0.4025000000000001,5.5,0,11708,9898,14555,36485,15.728828125,245507,23.30624060904941,1005.6023585074659,0,40.689141,-73.991406,0.97,14:52:40,-1
2024-03-29T10:52:40,-0.1579262916,0.1112662509,10.092327521149999,0.03787364476827696,0.003970624048287101,-0.036804630601430424,0.31178000000000006,0.3389400000000001,-0.3983,5.5,0,11718,9916,14583,36537,15.728828125,245507,23.30624060904941,1005.6023585074659,0,40.689141,-73.991406,0.69,14:52:40,-1
2024-03-29T10:52:40,-0.14057832774999998,0.13339985995,10.0953185494,0.0355829001250344,0.003207042500539581,-0.038331793696925465,0.31206,0.3395000000000001,-0.3983,5.5,0,11718,9916,14583,36537,15.5087109375,235571,23.208839612231554,1005.6115387746191,0,40.689141,-73.991406,0.69,14:52:40,-1
2024-03-29T10:52:40,-0.1363908882,0.14057832774999998,10.057033387799999,0.0355829001250344,0.002138028333693054,-0.03588833274413341,0.31878,0.34202000000000005,-0.40208000000000005,5.5,0,11718,9916,14583,36537,15.5087109375,235571,23.208839612231554,1005.6115387746191,0,40.68914,-73.991408,0.69,14:52:41,-1
2024-03-29T10:52:41,-0.16211373114999997,0.12622139215,10.106086251099997,0.03772092845872745,0.004581489286485115,-0.038331793696925465,0.30926000000000003,0.34566,-0.41398,5.5,0,11720,9924,14600,36565,15.5489453125,241048,23.2531208802329,1005.5834495551275,0,40.68914,-73.991408,0.69,14:52:41,-1
2024-03-29T10:52:41,-0.16929219894999997,0.1447657673,10.08395264205,0.04001167310197001,-0.0036651914291880926,-0.04046982203061852,0.31010000000000004,0.33978,-0.41356000000000004,4.5,0,11720,9924,14600,36565,15.5489453125,241048,23.2531208802329,1005.5834495551275,0,40.68914,-73.991408,0.69,14:52:41,-1
2024-03-29T10:52:41,-0.1351944769,0.10289137179999999,10.09591675505,0.036499197982331415,0.002901609881440573,-0.03741549583962844,0.31234,0.33558000000000004,-0.4025000000000001,5.5,0,11720,9924,14600,36565,15.5489453125,241048,23.2531208802329,1005.5834495551275,0,40.68914,-73.991408,0.39,14:52:41,-1
2024-03-29T10:52:41,-0.13998012209999997,0.12502498085,10.12582703755,0.04092797095926703,0.0054977871437821395,-0.037110063220529434,0.31122000000000005,0.33474,-0.40950000000000003,5.5,0,11720,9924,14600,36565,15.36671875,232926,23.17906515779353,1005.5955982269426,0,40.68914,-73.991408,0.39,14:52:41,-1
2024-03-29T10:52:41,-0.13579268255,0.12323036389999999,10.092327521149999,0.039706240482871004,0.004581489286485115,-0.03298672286269283,0.31654000000000004,0.33782000000000006,-0.39270000000000005,5.5,0,11720,9924,14600,36565,15.36671875,232926,23.17906515779353,1005.5955982269426,0,40.68914,-73.99141,0.39,14:52:42,-1
2024-03-29T10:52:42,-0.15672988029999999,0.11724830739999999,10.0510513313,0.03451388595818787,-0.001069014166846527,-0.03756821214917795,0.31234,0.3400600000000001,-0.39676000000000006,5.5,0,11730,9936,14629,36601,15.4395703125,240524,23.246240806606856,1005.5899909243353,0,40.68914,-73.99141,0.39,14:52:42,-1
2024-03-29T10:52:42,-0.14117653339999997,0.14057832774999998,10.086943670299998,0.03451388595818787,0.004276056667386108,-0.036193765363232405,0.3143,0.33642,-0.40208000000000005,5.5,0,11730,9936,14629,36601,15.4395703125,240524,23.246240806606856,1005.5899909243353,0,40.68914,-73.99141,0.39,14:52:42,-1
2024-03-29T10:52:42,-0.12622139215,0.12861421474999998,10.1072826624,0.03741549583962844,0.0054977871437821395,-0.039095375244672985,0.30982000000000004,0.3325000000000001,-0.41286,4.5,0,11730,9936,14629,36601,15.4395703125,240524,23.246240806606856,1005.5899909243353,0,40.68914,-73.99141,0.39,14:52:42,-1
2024-03-29T10:52:42,-0.10648060570000001,0.11904292434999998,10.0941221381,0.036193765363232405,0.0068722339297276735,-0.03772092845872745,0.31402,0.34146000000000004,-0.4053,5.5,0,11730,9936,14629,36601,15.2782421875,233253,23.173523916938418,1005.6015994624909,0,40.68914,-73.99141,0.39,14:52:42,-1
2024-03-29T10:52:42,-0.12323036389999999,0.14416756165,10.112666513249998,0.03741549583962844,0.0025961772623415654,-0.04001167310197001,0.30562,0.33390000000000003,-0.39928,5.5,0,11729,9935,14631,36574,15.2782421875,233253,23.173523916938418,1005.6015994624909,0,40.68914,-73.99141,0.39,14:52:42,-1
2024-03-29T10:52:42,-0.15493526335,0.11784651304999999,10.12463062625,0.039400807863771994,0.0006108652381980154,-0.038942658935123484,0.31234,0.33698,-0.38458000000000003,5.5,0,11729,9935,14631,36574,15.2782421875,233253,23.173523916938418,1005.6015994624909,0,40.68914,-73.99141,0.39,14:52:42,-1
2024-03-29T10:52:42,-0.14895320685,0.1292124204,10.1120683076,0.03420845333908886,0.006566801310628666,-0.036193765363232405,0.30898000000000003,0.33866,-0.40404,5.5,0,11729,9935,14631,36574,15.368671875,239137,23.226133254948905,1005.5953259857632,0,40.68914,-73.99141,0.39,14:52:42,-1
2024-03-29T10:52:42,-0.13339985995,0.1304088317,10.1001041946,0.037110063220529434,0.0018325957145940463,-0.039095375244672985,0.31150000000000005,0.3330600000000001,-0.41314000000000006,5.5,0,11729,9935,14631,36574,15.368671875,239137,23.226133254948905,1005.5953259857632,0,40.68914,-73.99141,0.39,14:52:42,-1
2024-03-29T10:52:42,-0.1519442351,0.11485548479999999,10.05643518215,0.03512475119638588,-0.00015271630954950385,-0.03512475119638588,0.30842,0.34034000000000003,-0.4081,5.5,0,11729,9935,14631,36574,15.368671875,239137,23.226133254948905,1005.5953259857632,0,40.68914,-73.99141,0.37,14:52:42,-1
2024-03-29T10:52:42,-0.1351944769,0.11784651304999999,10.08155981945,0.03390302071998985,0.0033597588100890844,-0.03772092845872745,0.30954000000000004,0.33782000000000006,-0.40754,5.5,0,11729,9935,14631,36574,15.635078125,245144,23.284653489459686,1005.5945087168016,0,40.68914,-73.99141,0.37,14:52:42,-1
2024-03-29T10:52:42,-0.13220344865,0.10468598874999999,10.1443714127,0.036193765363232405,0.0006108652381980154,-0.03313943917224234,0.30926000000000003,0.34426000000000007,-0.4054400000000001,5.5,0,11729,9935,14631,36574,15.635078125,245144,23.284653489459686,1005.5945087168016,0,40.68914,-73.991415,0.37,14:52:43,-1
2024-03-29T10:52:43,-0.1734796385,0.12622139215,10.069595706449999,0.041844268816564056,0.004276056667386108,-0.03543018381548489,0.31346,0.33698,-0.41314000000000006,5.5,0,11719,9929,14624,36525,15.95890625,250322,23.326022876864872,1005.5901389413925,0,40.68914,-73.991415,0.37,14:52:43,-1
2024-03-29T10:52:43,-0.12741780345,0.12382856954999999,10.034899778749999,0.0,0.0068722339297276735,-0.03695734691097993,0.30926000000000003,0.3353,-0.40796000000000004,5.5,0,11719,9929,14624,36525,15.95890625,250322,23.326022876864872,1005.5901389413925,0,40.68914,-73.991415,0.37,14:52:43,-1
2024-03-29T10:52:43,-0.14297115034999996,0.12263215824999998,10.0235338714,0.036499197982331415,0.0,-0.038789942625573975,0.31374,0.33698,-0.40404,5.5,0,11719,9929,14624,36525,15.95890625,250322,23.326022876864872,1005.5901389413925,0,40.68914,-73.991415,0.1,14:52:43,-1
2024-03-29T10:52:43,-0.11665010174999998,0.10348957745,10.100702400249999,0.036193765363232405,0.03665191429188092,-0.039400807863771994,0.30926000000000003,0.34370000000000006,-0.40166,5.5,0,11719,9929,14624,36525,15.9469921875,240698,23.24688962366196,1005.6142977109675,0,40.68914,-73.991415,0.1,14:52:43,-1
2024-03-29T10:52:43,-0.13459627124999998,0.1387837108,10.1072826624,0.038179077387375956,-0.003054326190990077,-0.03802636107782646,0.30954000000000004,0.33782000000000006,-0.40418000000000004,5.5,0,11719,9929,14624,36525,15.9469921875,240698,23.24688962366196,1005.6142977109675,0,40.68914,-73.991413,0.1,14:52:44,-1
2024-03-29T10:52:44,-0.29491538544999996,0.09272187574999999,10.055238770849998,0.04077525464971753,0.004581489286485115,-0.041386119887915546,0.30590000000000006,0.33866,-0.40726000000000007,5.5,0,11709,9925,14630,36481,16.0524609375,248262,23.29013550053987,1005.6010458907135,0,40.68914,-73.991413,0.1,14:52:44,-1
2024-03-29T10:52:44,-0.15852449724999998,0.11964112999999998,10.1156575415,0.03512475119638588,-0.0007635815477475193,-0.039400807863771994,0.30982000000000004,0.3423,-0.41174000000000005,5.5,0,11709,9925,14630,36481,16.0524609375,248262,23.29013550053987,1005.6010458907135,0,40.68914,-73.991413,0.1,14:52:44,-1
2024-03-29T10:52:44,-0.11904292434999998,0.1531406464,10.07557776295,0.03405573702953936,0.004581489286485115,-0.038179077387375956,0.30982000000000004,0.34286,-0.41762000000000005,5.5,0,11709,9925,14630,36481,16.0524609375,248262,23.29013550053987,1005.6010458907135,0,40.68914,-73.991413,0.92,14:52:44,-1
2024-03-29T10:52:44,-0.15134602945,0.13459627124999998,10.068997500799998,0.03695734691097993,0.0044287729769356115,-0.038789942625573975,0.30898000000000003,0.33838000000000007,-0.41258000000000006,5.5,0,11709,9925,14630,36481,15.7915234375,238107,23.163996375331372,1005.6166683954824,0,40.68914,-73.991413,0.92,14:52:44,-1
2024-03-29T10:52:44,-0.11964112999999998,0.12203395259999998,10.076774174250001,0.03588833274413341,0.0036651914291880926,-0.03390302071998985,0.30842,0.33698,-0.41958000000000006,5.5,0,11709,9925,14630,36481,15.7915234375,238107,23.163996375331372,1005.6166683954824,0,40.68914,-73.991418,0.92,14:52:45,-1
2024-03-29T10:52:45,-0.15433705769999997,0.14057832774999998,10.0438728635,0.04046982203061852,0.004886921905584123,-0.038484510006474966,0.31262,0.33642,-0.39970000000000006,5.5,0,11724,9949,14689,36532,15.79484375,243883,23.232065627153784,1005.6028632427115,0,40.68914,-73.991418,0.92,14:52:45,-1
2024-03-29T10:52:45,-0.13758729949999998,0.12981062605,10.0773723799,0.03802636107782646,0.0033597588100890844,-0.03726277953007894,0.31178000000000006,0.3381,-0.4186,4.5,0,11724,9949,14689,36532,15.79484375,243883,23.232065627153784,1005.6028632427115,0,40.68914,-73.991418,0.92,14:52:45,-1
2024-03-29T10:52:45,-0.11844471869999999,0.1387837108,10.08155981945,0.038637226316024474,0.0036651914291880926,-0.03726277953007894,0.31206,0.34034000000000003,-0.41384000000000004,5.5,0,11724,9949,14689,36532,15.79484375,243883,23.232065627153784,1005.6028632427115,0,40.68914,-73.991418,1.34,14:52:45,-1
2024-03-29T10:52:45,-0.11306086784999998,0.14057832774999998,10.205388389000001,0.038331793696925465,0.005039638215133627,-0.03588833274413341,0.31094000000000005,0.33978,-0.40908000000000005,5.5,0,11724,9949,14689,36532,15.564765625,236579,23.113251431341517,1005.6149089911203,0,40.68914,-73.991418,1.34,14:52:45,-1
2024-03-29T10:52:45,-0.1328016543,0.11964112999999998,10.0941221381,0.039095375244672985,0.0033597588100890844,-0.0013744467859455349,0.31038000000000004,0.34398,-0.4081,5.5,0,11724,9949,14689,36532,15.564765625,236579,23.113251431341517,1005.6149089911203,0,40.689141,-73.991428,1.34,14:52:46,-1
2024-03-29T10:52:46,-0.16031911419999997,0.1471585899,10.1048898398,0.03665191429188092,0.003054326190990077,-0.03741549583962844,0.30338000000000004,0.33726000000000006,-0.40572,4.5,0,11733,9955,14693,36557,15.59875,243704,23.162321050054484,1005.592246520799,0,40.689141,-73.991428,1.34,14:52:46,-1
2024-03-29T10:52:46,-0.1531406464,0.14177473905,10.24187893365,0.036193765363232405,-0.0019853120241435504,-0.039553524173321496,0.31654000000000004,0.3395000000000001,-0.41006000000000004,5.5,0,11733,9955,14693,36557,15.59875,243704,23.162321050054484,1005.592246520799,0,40.689141,-73.991428,1.34,14:52:46,-1
2024-03-29T10:52:46,-0.1531406464,0.1292124204,10.089934698549998,0.036804630601430424,0.0038179077387375964,-0.041080687268816536,0.31122000000000005,0.33838000000000007,-0.40950000000000003,5.5,0,11733,9955,14693,36557,15.59875,243704,23.162321050054484,1005.592246520799,0,40.689141,-73.991428,1.16,14:52:46,-1
2024-03-29T10:52:46,-0.15613167464999997,0.1304088317,10.08155981945,0.036193765363232405,0.0054977871437821395,-0.038179077387375956,0.31066000000000005,0.34090000000000004,-0.4048800000000001,5.5,0,11733,9955,14693,36557,15.4087109375,234904,23.077428183335762,1005.5985093594535,0,40.689141,-73.991428,1.16,14:52:46,-1
2024-03-29T10:52:46,-0.13579268255,0.11545369045,10.045069274799998,0.039095375244672985,0.0036651914291880926,-0.03772092845872745,0.31150000000000005,0.34034000000000003,-0.40922000000000003,5.5,0,11733,9955,14693,36557,15.4087109375,234904,23.077428183335762,1005.5985093594535,0,40.689143,-73.991435,1.16,14:52:47,-1
2024-03-29T10:52:47,-0.18125631194999997,0.12562318649999998,10.0749795573,0.03543018381548489,0.0012217304763960308,-0.036804630601430424,0.31682000000000005,0.33698,-0.40208000000000005,4.5,0,11773,9991,14748,36688,15.4727734375,241399,23.138775966898756,1005.5730719119671,0,40.689143,-73.991435,1.16,14:52:47,-1
2024-03-29T10:52:47,-0.1459621786,0.12203395259999998,10.08036340815,0.03512475119638588,0.0012217304763960308,-0.039706240482871004,0.30562,0.33754,-0.4081,4.5,0,11773,9991,14748,36688,15.4727734375,241399,23.138775966898756,1005.5730719119671,0,40.689143,-73.991435,1.16,14:52:47,-1
2024-03-29T10:52:47,-0.13758729949999998,0.14057832774999998,10.112666513249998,0.0355829001250344,-0.0027488935718910697,-0.03787364476827696,0.31122000000000005,0.33418000000000003,-0.41496000000000005,4.5,0,11802,10018,14791,36795,15.4727734375,241399,23.138775966898756,1005.5730719119671,0,40.689143,-73.991435,1.16,14:52:47,-1
2024-03-29T10:52:47,-0.1579262916,0.11605189609999998,10.05643518215,0.040317105721069016,0.0006108652381980154,-0.03741549583962844,0.31654000000000004,0.33334,-0.41412000000000004,5.5,0,11802,10018,14791,36795,15.3048046875,234241,23.044896089243394,1005.58247663693,0,40.689143,-73.991435,1.16,14:52:47,-1
2024-03-29T10:52:47,-0.13758729949999998,0.14536397295,10.143773207049998,0.0357356164345839,0.003054326190990077,-0.03466660226773738,0.30758,0.3389400000000001,-0.39732000000000006,5.5,0,11802,10018,14791,36795,15.3048046875,234241,23.044896089243394,1005.58247663693,0,40.689143,-73.991435,1.16,14:52:47,-1
2024-03-29T10:52:47,-0.27517459899999996,0.1292124204,10.08036340815,0.03772092845872745,0.0016798794050445422,-0.03451388595818787,0.3073,0.34482000000000007,-0.39816,4.5,0,11802,10018,14791,36795,15.3048046875,234241,23.044896089243394,1005.58247663693,0,40.689143,-73.991435,1.16,14:52:47,-1
2024-03-29T10:52:47,-0.13160524299999998,0.13100703735,10.10309522285,0.03405573702953936,0.00015271630954950385,-0.040317105721069016,0.31878,0.34286,-0.40642,5.5,0,11802,10018,14791,36795,15.3872265625,241048,23.096932258770234,1005.5664345202937,0,40.689143,-73.991435,1.16,14:52:47,-1
2024-03-29T10:52:47,-0.1328016543,0.12203395259999998,10.089934698549998,0.04077525464971753,-0.0018325957145940463,-0.038942658935123484,0.30562,0.33502000000000004,-0.40796000000000004,5.5,0,11802,10018,14791,36795,15.3872265625,241048,23.096932258770234,1005.5664345202937,0,40.689143,-73.991435,1.16,14:52:47,-1
2024-03-29T10:52:47,-0.12502498085,0.1339980656,10.0366943957,0.03543018381548489,0.0024434609527920616,-0.041844268816564056,0.30814,0.34426000000000007,-0.41398,5.5,0,11802,10018,14791,36795,15.3872265625,241048,23.096932258770234,1005.5664345202937,0,40.689143,-73.991435,0.33,14:52:47,-1
2024-03-29T10:52:47,-0.12442677519999999,0.12382856954999999,10.034899778749999,0.03451388595818787,0.0006108652381980154,-0.03665191429188092,0.30002000000000006,0.33754,-0.40432000000000007,5.5,0,11802,10018,14791,36795,15.6469921875,246785,23.16013261445139,1005.5633603420865,0,40.689143,-73.991435,0.33,14:52:47,-1
2024-03-29T10:52:47,-0.12143574694999999,0.13758729949999998,10.06720288385,0.03543018381548489,0.0022907446432425577,-0.03543018381548489,0.31010000000000004,0.33782000000000006,-0.40586,4.5,0,11802,10018,14791,36795,15.6469921875,246785,23.16013261445139,1005.5633603420865,0,40.689141,-73.991435,0.33,14:52:48,-1
2024-03-29T10:52:48,-0.1304088317,0.14237294469999998,10.106086251099997,0.036804630601430424,0.0024434609527920616,-0.039095375244672985,0.30982000000000004,0.3423,-0.41174000000000005,4.5,0,11823,10043,14831,36859,15.9661328125,252995,23.195872037716516,1005.5634859342701,0,40.689141,-73.991435,0.33,14:52:48,-1
2024-03-29T10:52:48,-0.2955135911,0.1519442351,10.0115697584,0.039553524173321496,-0.039095375244672985,-0.03497203488683638,0.30982000000000004,0.33586,-0.40712000000000004,5.5,0,11823,10043,14831,36859,15.9661328125,252995,23.195872037716516,1005.5634859342701,0,40.689141,-73.991435,0.33,14:52:48,-1
2024-03-29T10:52:48,-0.12263215824999998,0.1328016543,10.07438135165,0.04046982203061852,0.0003054326190990077,-0.04001167310197001,0.30898000000000003,0.33558000000000004,-0.4054400000000001,5.5,0,11823,10043,14831,36859,15.9661328125,252995,23.195872037716516,1005.5634859342701,0,40.689141,-73.991435,0.37,14:52:48,-1
2024-03-29T10:52:48,-0.15134602945,0.10408778309999998,10.1001041946,0.03787364476827696,0.00045814892864851157,-0.03772092845872745,0.30898000000000003,0.33642,-0.3995600000000001,5.5,0,11823,10043,14831,36859,15.9516796875,239828,23.121882987271167,1005.5869535455837,0,40.689141,-73.991435,0.37,14:52:48,-1
2024-03-29T10:52:48,-0.14237294469999998,0.13160524299999998,10.097113166349997,0.03634648167278191,-0.001069014166846527,-0.039706240482871004,0.31542000000000003,0.33978,-0.40376000000000006,4.5,0,11823,10043,14831,36859,15.9516796875,239828,23.121882987271167,1005.5869535455837,0,40.689141,-73.99144,0.37,14:52:49,-1
2024-03-29T10:52:49,-0.13698909385,0.13339985995,10.118050364099998,0.036804630601430424,0.001069014166846527,-0.04123340357836604,0.30646,0.33166,-0.4083800000000001,5.5,0,11840,10063,14864,36929,16.055390625,247521,23.15450875601306,1005.5672750178478,0,40.689141,-73.99144,0.37,14:52:49,-1
2024-03-29T10:52:49,-0.14416756165,0.12323036389999999,10.112666513249998,0.038637226316024474,0.0035124751196385882,-0.03512475119638588,0.31262,0.3389400000000001,-0.4048800000000001,5.5,0,11840,10063,14864,36929,16.055390625,247521,23.15450875601306,1005.5672750178478,0,40.689141,-73.99144,0.37,14:52:49,-1
2024-03-29T10:52:49,-0.14775679555,0.11006983959999998,10.097711372000001,0.03665191429188092,0.004276056667386108,-0.038484510006474966,0.31150000000000005,0.34286,-0.39998,4.5,0,11840,10063,14864,36929,16.055390625,247521,23.15450875601306,1005.5672750178478,0,40.689141,-73.99144,0.17,14:52:49,-1
2024-03-29T10:52:49,-0.12562318649999998,0.12143574694999999,10.103693428499998,0.03665191429188092,0.0027488935718910697,-0.03481931857728687,0.31038000000000004,0.33726000000000006,-0.39844000000000007,5.5,0,11840,10063,14864,36929,15.7981640625,238278,23.023592051138216,1005.58028423274,0,40.689141,-73.99144,0.17,14:52:49,-1
2024-03-29T10:52:49,-0.1292124204,0.14356935599999998,10.088738287249999,0.03756821214917795,-0.00045814892864851157,-0.038942658935123484,0.30982000000000004,0.33446000000000004,-0.4030600000000001,4.5,0,11860,10087,14921,37010,15.7981640625,238278,23.023592051138216,1005.58028423274,0,40.689141,-73.991443,0.17,14:52:50,-1
2024-03-29T10:52:50,-0.1519442351,0.13818550515,10.128219860149999,0.0355829001250344,0.0038179077387375964,-0.03802636107782646,0.30842,0.33670000000000005,-0.40628000000000003,5.5,0,11873,10101,14947,37045,15.80265625,246053,23.070796193349707,1005.5613996319112,0,40.689141,-73.991443,0.17,14:52:50,-1
2024-03-29T10:52:50,-0.1304088317,0.107677017,10.03848901265,0.041080687268816536,0.0036651914291880926,-0.038789942625573975,0.31346,0.32970000000000005,-0.40068000000000004,5.5,0,11873,10101,14947,37045,15.80265625,246053,23.070796193349707,1005.5613996319112,0,40.689141,-73.991443,0.17,14:52:50,-1
2024-03-29T10:52:50,-0.13220344865,0.1339980656,10.1001041946,0.03741549583962844,-0.0013744467859455349,-0.03802636107782646,0.30814,0.33698,-0.40740000000000004,4.5,0,11873,10101,14947,37045,15.80265625,246053,23.070796193349707,1005.5613996319112,0,40.689141,-73.991443,0.19,14:52:50,-1
2024-03-29T10:52:50,-0.1459621786,0.14297115034999996,10.109675485,0.038789942625573975,0.0016798794050445422,-0.03543018381548489,0.30758,0.33922,-0.39690000000000003,4.5,0,11873,10101,14947,37045,15.5719921875,236748,22.952167062208765,1005.572497980346,0,40.689141,-73.991443,0.19,14:52:50,-1
2024-03-29T10:52:50,-0.14536397295,0.14775679555,10.104291634149998,0.03604104905368291,0.0016798794050445422,-0.03772092845872745,0.30954000000000004,0.3353,-0.4046,5.5,0,11873,10101,14947,37045,15.5719921875,236748,22.952167062208765,1005.572497980346,0,40.689141,-73.99144,0.19,14:52:51,-1
2024-03-29T10:52:51,-0.15553346899999998,0.13160524299999998,10.06720288385,0.03252857393404432,-0.0015271630954950385,-0.04001167310197001,0.30450000000000005,0.33866,-0.40908000000000005,4.5,0,11870,10108,14972,37007,15.6048046875,244062,23.01150974033452,1005.5531542563127,0,40.689141,-73.99144,0.19,14:52:51,-1
2024-03-29T10:52:51,-0.14775679555,0.11904292434999998,10.12223780365,0.036193765363232405,0.003970624048287101,-0.038179077387375956,0.30702,0.33782000000000006,-0.40404,4.5,0,11870,10108,14972,37007,15.6048046875,244062,23.01150974033452,1005.5531542563127,0,40.689141,-73.99144,0.19,14:52:51,-1
2024-03-29T10:52:51,-0.16450655374999998,0.11545369045,10.042676452199998,0.039706240482871004,0.003207042500539581,-0.03772092845872745,0.30618,0.33222,-0.40278,5.5,0,11870,10108,14972,37007,15.6048046875,244062,23.01150974033452,1005.5531542563127,0,40.689141,-73.99144,0.44,14:52:51,-1
2024-03-29T10:52:51,-0.15493526335,0.1351944769,10.0845508477,0.03726277953007894,0.0012217304763960308,-0.037110063220529434,0.30954000000000004,0.3400600000000001,-0.3983,4.5,0,11870,10108,14972,37007,15.4133984375,236579,22.911073908365523,1005.5747063738489,0,40.689141,-73.99144,0.44,14:52:51,-1
2024-03-29T10:52:51,-0.11605189609999998,0.12143574694999999,10.1072826624,0.041080687268816536,0.0009162978572970231,-0.039553524173321496,0.30618,0.3395000000000001,-0.4011,4.5,0,11870,10108,14972,37007,15.4133984375,236579,22.911073908365523,1005.5747063738489,0,40.689141,-73.99144,0.44,14:52:52,-1
2024-03-29T10:52:52,-0.15493526335,0.12622139215,10.13300550535,0.03665191429188092,0.0015271630954950385,-0.03772092845872745,0.31318,0.3400600000000001,-0.3941,4.5,0,11887,10143,15079,37005,15.4784375,243525,22.961965761362094,1005.5631592960711,0,40.689141,-73.99144,0.44,14:52:52,-1
2024-03-29T10:52:52,-0.12622139215,0.12023933564999999,10.0654082669,0.03222314131494531,-0.0007635815477475193,-0.03497203488683638,0.31626000000000004,0.33698,-0.3977400000000001,5.5,0,11887,10143,15079,37005,15.4784375,243525,22.961965761362094,1005.5631592960711,0,40.689141,-73.99144,0.44,14:52:52,-1
2024-03-29T10:52:52,-0.13698909385,0.1351944769,10.134800122299998,0.04123340357836604,0.004581489286485115,-0.039706240482871004,0.31206,0.3381,-0.39214000000000004,5.5,0,11887,10143,15079,37005,15.4784375,243525,22.961965761362094,1005.5631592960711,0,40.689141,-73.99144,0.44,14:52:52,-1
2024-03-29T10:52:52,-0.15074782379999999,0.1339980656,10.088738287249999,0.03405573702953936,0.001069014166846527,-0.03787364476827696,0.31906,0.33586,-0.39536,5.5,0,11887,10143,15079,37005,15.3145703125,235071,22.873729865474676,1005.5828712596494,0,40.689141,-73.99144,0.44,14:52:52,-1
2024-03-29T10:52:52,-0.16450655374999998,0.12861421474999998,10.1132647189,0.03772092845872745,0.0027488935718910697,-0.04016438941151951,0.30870000000000003,0.34034000000000003,-0.3955000000000001,5.5,0,11887,10143,15079,37005,15.3145703125,235071,22.873729865474676,1005.5828712596494,0,40.689141,-73.99144,0.44,14:52:52,-1
2024-03-29T10:52:52,-0.15373885204999999,0.11186445655,10.10668445675,0.03802636107782646,0.0022907446432425577,-0.040317105721069016,0.31122000000000005,0.33614000000000005,-0.39886,4.5,0,11887,10143,15079,37005,15.3145703125,235071,22.873729865474676,1005.5828712596494,0,40.689141,-73.99144,0.44,14:52:52,-1
2024-03-29T10:52:52,-0.13160524299999998,0.14057832774999998,10.249057401449999,0.041844268816564056,0.0033597588100890844,-0.040622538340168025,0.30814,0.34426000000000007,-0.40376000000000006,5.5,0,11887,10143,15079,37005,15.4034375,242103,22.93127363825754,1005.5687316109501,0,40.689141,-73.99144,0.44,14:52:52,-1
2024-03-29T10:52:52,-0.12562318649999998,0.1292124204,10.05763159345,0.03588833274413341,-0.00015271630954950385,-0.03481931857728687,0.31318,0.33754,-0.38948,4.5,0,11887,10143,15079,37005,15.4034375,242103,22.93127363825754,1005.5687316109501,0,40.689141,-73.99144,0.44,14:52:52,-1
2024-03-29T10:52:52,-0.1363908882,0.13459627124999998,10.063015444300001,0.03726277953007894,0.0024434609527920616,-0.038484510006474966,0.30562,0.34118,-0.3936800000000001,5.5,0,11887,10143,15079,37005,15.4034375,242103,22.93127363825754,1005.5687316109501,0,40.689141,-73.99144,0.16,14:52:52,-1
2024-03-29T10:52:52,-0.14297115034999996,0.11605189609999998,10.055238770849998,0.038484510006474966,0.0022907446432425577,-0.038331793696925465,0.31010000000000004,0.34174,-0.41020000000000006,4.5,0,11887,10143,15079,37005,15.670625,248821,22.984357087823902,1005.5709104087625,0,40.689141,-73.99144,0.16,14:52:52,-1
2024-03-29T10:52:52,-0.1519442351,0.12143574694999999,10.071390323399998,0.038789942625573975,0.0019853120241435504,-0.036193765363232405,0.30646,0.34314000000000006,-0.40586,5.5,0,11887,10143,15079,37005,15.670625,248821,22.984357087823902,1005.5709104087625,0,40.689141,-73.991433,0.16,14:52:53,-1
2024-03-29T10:52:53,-0.12562318649999998,0.14955141249999998,10.0654082669,0.03588833274413341,0.003970624048287101,-0.03726277953007894,0.30982000000000004,0.34062,-0.40642,4.5,0,11905,10160,15091,37109,15.9969921875,252417,23.02561529752687,1005.579456530146,0,40.689141,-73.991433,0.16,14:52:53,-1
2024-03-29T10:52:53,-0.14177473905,0.13698909385,10.136594739249999,0.03802636107782646,0.00045814892864851157,-0.03756821214917795,0.31094000000000005,0.34202000000000005,-0.3983,5.5,0,11905,10160,15091,37109,15.9969921875,252417,23.02561529752687,1005.579456530146,0,40.689141,-73.991433,0.16,14:52:53,-1
2024-03-29T10:52:53,-0.15493526335,0.12562318649999998,10.110273690649999,0.036804630601430424,0.0006108652381980154,-0.03726277953007894,0.30506,0.33866,-0.39522,5.5,0,11905,10160,15091,37109,15.9969921875,252417,23.02561529752687,1005.579456530146,0,40.689141,-73.991433,0.43,14:52:53,-1
2024-03-29T10:52:53,-0.13698909385,0.1387837108,10.097113166349997,0.036804630601430424,0.004581489286485115,-0.039858956792420505,0.30114,0.34118,-0.40404,4.5,0,11905,10160,15091,37109,16.022578125,244782,22.949020516358964,1005.5954734009522,0,40.689141,-73.991433,0.43,14:52:53,-1
2024-03-29T10:52:53,-0.1483550012,0.12323036389999999,10.067801089499998,0.03451388595818787,0.006261368691529657,-0.038942658935123484,0.31766,0.33642,-0.40068000000000004,5.5,0,11905,10160,15091,37109,16.022578125,244782,22.949020516358964,1005.5954734009522,0,40.689143,-73.991435,0.43,14:52:54,-1
2024-03-29T10:52:54,-0.16031911419999997,0.12562318649999998,10.09352393245,0.04077525464971753,0.0025961772623415654,-0.0357356164345839,0.30450000000000005,0.34174,-0.40040000000000003,5.5,0,11929,10182,15118,37223,16.143671875,250134,22.998307864239738,1005.5887264446438,0,40.689143,-73.991435,0.43,14:52:54,-1
2024-03-29T10:52:54,-0.1363908882,0.13579268255,10.1120683076,0.038942658935123484,-0.0003054326190990077,-0.0357356164345839,0.31962,0.34258000000000005,-0.41202000000000005,5.5,1,11928,10182,15098,37239,16.143671875,250134,22.998307864239738,1005.5887264446438,0,40.689143,-73.991435,0.43,14:52:54,-1
2024-03-29T10:52:54,-0.15373885204999999,0.12562318649999998,10.07916699685,0.03634648167278191,0.0056505034533316425,-0.038637226316024474,0.3143,0.33726000000000006,-0.39130000000000004,5.5,1,11928,10182,15098,37239,16.143671875,250134,22.998307864239738,1005.5887264446438,0,40.689143,-73.991435,0.38,14:52:54,-1
2024-03-29T10:52:54,-0.14297115034999996,0.11605189609999998,10.073783145999998,0.038789942625573975,0.003970624048287101,-0.039095375244672985,0.31318,0.33614000000000005,-0.3983,4.5,1,11928,10182,15098,37239,15.8770703125,240349,22.85660334543029,1005.6108796262821,0,40.689143,-73.991435,0.38,14:52:54,-1
2024-03-29T10:52:54,-0.14297115034999996,0.12083754129999999,10.123434214949999,0.03726277953007894,0.0027488935718910697,-0.03756821214917795,0.31206,0.3493,-0.40236,5.5,1,11928,10182,15098,37239,15.8770703125,240349,22.85660334543029,1005.6108796262821,0,40.689145,-73.991428,0.38,14:52:55,-1
2024-03-29T10:52:55,-0.16211373114999997,0.13758729949999998,10.1443714127,0.03512475119638588,0.00045814892864851157,-0.03802636107782646,0.31710000000000005,0.34622,-0.4054400000000001,5.5,0,11919,10177,15094,37176,15.875703125,248077,22.903383356326874,1005.5980867729768,0,40.689145,-73.991428,0.38,14:52:55,-1
2024-03-29T10:52:55,-0.11844471869999999,0.1280160091,10.114461130199999,0.036804630601430424,0.004276056667386108,-0.039095375244672985,0.31094000000000005,0.34034000000000003,-0.4046,5.5,0,11919,10177,15094,37176,15.875703125,248077,22.903383356326874,1005.5980867729768,0,40.689145,-73.991428,0.38,14:52:55,-1
2024-03-29T10:52:55,-0.15373885204999999,0.14416756165,10.1264252432,0.03756821214917795,0.0018325957145940463,-0.0355829001250344,0.29946000000000006,0.33194000000000007,-0.40796000000000004,5.5,0,11919,10177,15094,37176,15.875703125,248077,22.903383356326874,1005.5980867729768,0,40.689145,-73.991428,0.22,14:52:55,-1
2024-03-29T10:52:55,-0.14416756165,0.1328016543,10.0845508477,0.040622538340168025,0.0012217304763960308,-0.038484510006474966,0.31458,0.3389400000000001,-0.4113200000000001,5.5,0,11919,10177,15094,37176,15.6450390625,240698,22.79536597012226,1005.61100178418,0,40.689145,-73.991428,0.22,14:52:55,-1
2024-03-29T10:52:55,-0.11665010174999998,0.11784651304999999,10.07916699685,0.036804630601430424,0.0015271630954950385,-0.03466660226773738,0.30366000000000004,0.33922,-0.4123,5.5,0,11919,10177,15094,37176,15.6450390625,240698,22.79536597012226,1005.61100178418,0,40.689146,-73.991416,0.22,14:52:56,-1
2024-03-29T10:52:56,-0.1483550012,0.16091731985,10.1886386308,0.03604104905368291,-0.0007635815477475193,-0.036499197982331415,0.30926000000000003,0.34146000000000004,-0.40586,4.5,0,11909,10183,15142,37129,15.676875,246969,22.8441632581817,1005.6023112074109,0,40.689146,-73.991416,0.22,14:52:56,-1
2024-03-29T10:52:56,-0.1304088317,0.13339985995,10.08395264205,0.03497203488683638,0.0016798794050445422,-0.037110063220529434,0.31262,0.34146000000000004,-0.41090000000000004,5.5,0,11909,10183,15142,37129,15.676875,246969,22.8441632581817,1005.6023112074109,0,40.689146,-73.991416,0.22,14:52:56,-1
2024-03-29T10:52:56,-0.10707881135,0.12741780345,10.0845508477,0.03726277953007894,0.003054326190990077,-0.038637226316024474,0.31262,0.34202000000000005,-0.40040000000000003,4.5,0,11909,10183,15142,37129,15.676875,246969,22.8441632581817,1005.6023112074109,0,40.689146,-73.991416,0.26,14:52:56,-1
2024-03-29T10:52:56,-0.14416756165,0.15074782379999999,10.088738287249999,0.0357356164345839,0.0013744467859455349,-0.03543018381548489,0.30590000000000006,0.35434000000000004,-0.41902000000000006,4.5,0,11909,10183,15142,37129,15.4688671875,241574,22.753274901032302,1005.612202859857,0,40.689146,-73.991416,0.26,14:52:56,-1
2024-03-29T10:52:56,-0.14237294469999998,0.1328016543,10.1048898398,0.03344487179134134,0.0024434609527920616,-0.03665191429188092,0.30506,0.34426000000000007,-0.41244000000000003,5.5,0,11939,10215,15207,37222,15.4688671875,241574,22.753274901032302,1005.612202859857,0,40.689148,-73.99141,0.26,14:52:57,-1
2024-03-29T10:52:57,-0.11066804524999999,0.13100703735,10.036096190049998,0.038179077387375956,0.007941248096574201,-0.036499197982331415,0.30758,0.33698,-0.40502000000000005,4.5,0,11966,10248,15257,37329,15.518671875,248448,22.792745517817792,1005.5912009307034,0,40.689148,-73.99141,0.26,14:52:57,-1
2024-03-29T10:52:57,-0.11844471869999999,0.13938191645,10.0582297991,0.03344487179134134,0.0036651914291880926,-0.03451388595818787,0.30982000000000004,0.34286,-0.39200000000000007,4.5,0,11966,10248,15257,37329,15.518671875,248448,22.792745517817792,1005.5912009307034,0,40.689148,-73.99141,0.26,14:52:57,-1
2024-03-29T10:52:57,-0.13758729949999998,0.17527425545,10.1048898398,0.03420845333908886,0.007177666548826681,-0.03756821214917795,0.30954000000000004,0.3400600000000001,-0.4083800000000001,4.5,0,11966,10248,15257,37329,15.518671875,248448,22.792745517817792,1005.5912009307034,0,40.689148,-73.99141,0.26,14:52:57,-1
2024-03-29T10:52:57,-0.12323036389999999,0.12861421474999998,10.067801089499998,0.03665191429188092,-0.00045814892864851157,-0.03588833274413341,0.30534000000000006,0.34146000000000004,-0.39802000000000004,4.5,0,11966,10248,15257,37329,15.3383984375,240349,22.703663558526646,1005.5995436524692,0,40.689148,-73.99141,0.26,14:52:57,-1
2024-03-29T10:52:57,-0.16091731985,0.13339985995,10.12223780365,0.04214970143566306,0.005345070834232635,-0.040622538340168025,0.31542000000000003,0.34762000000000004,-0.3983,4.5,0,11966,10248,15257,37329,15.3383984375,240349,22.703663558526646,1005.5995436524692,0,40.689148,-73.99141,0.26,14:52:57,-1
2024-03-29T10:52:57,-0.12323036389999999,0.13579268255,10.0654082669,0.03634648167278191,0.002901609881440573,-0.0355829001250344,0.31514000000000003,0.34790000000000004,-0.38724000000000003,5.5,0,11966,10248,15257,37329,15.3383984375,240349,22.703663558526646,1005.5995436524692,0,40.689148,-73.99141,0.26,14:52:57,-1
2024-03-29T10:52:57,-0.13459627124999998,0.1304088317,10.086943670299998,0.03756821214917795,0.001069014166846527,-0.04001167310197001,0.30870000000000003,0.35518,-0.39984000000000003,4.5,0,11966,10248,15257,37329,15.4118359375,248821,22.765348245867866,1005.5861481179487,0,40.689148,-73.991413,0.26,14:52:58,-1
2024-03-29T10:52:58,-0.14955141249999998,0.11844471869999999,10.09113110985,0.0355829001250344,0.0044287729769356115,-0.0357356164345839,0.31038000000000004,0.33614000000000005,-0.4018,4.5,0,11986,10276,15308,37402,15.664375,255527,22.827777537570217,1005.5903867964136,0,40.689148,-73.991413,0.26,14:52:58,-1
2024-03-29T10:52:58,-0.15672988029999999,0.12442677519999999,10.1072826624,0.04245513405476207,0.00473420559603462,-0.03665191429188092,0.31514000000000003,0.33642,-0.39116,5.5,0,11986,10276,15308,37402,15.664375,255527,22.827777537570217,1005.5903867964136,0,40.689148,-73.991413,0.26,14:52:58,-1
2024-03-29T10:52:58,-0.12981062605,0.12741780345,10.1264252432,0.036804630601430424,0.00473420559603462,-0.038484510006474966,0.3143,0.34706000000000004,-0.40698,4.5,0,11986,10276,15308,37402,15.664375,255527,22.827777537570217,1005.5903867964136,0,40.689148,-73.991413,0.68,14:52:58,-1
2024-03-29T10:52:58,-0.13758729949999998,0.15433705769999997,10.103693428499998,0.03344487179134134,0.004276056667386108,-0.03375030441044035,0.3129,0.34258000000000005,-0.41244000000000003,4.5,0,11986,10276,15308,37402,15.5567578125,247337,22.73790904830178,1005.6051567798567,0,40.689148,-73.991413,0.68,14:52:58,-1
2024-03-29T10:52:58,-0.12083754129999999,0.13938191645,10.1084790737,0.03527746750593539,0.0024434609527920616,-0.03375030441044035,0.31234,0.33754,-0.40614000000000006,5.5,0,11986,10276,15308,37402,15.5567578125,247337,22.73790904830178,1005.6051567798567,0,40.689149,-73.991411,0.68,14:52:59,-1
2024-03-29T10:52:59,-0.29012974025,0.1112662509,10.1048898398,0.03359758810089085,0.0012217304763960308,-0.038331793696925465,0.30478000000000005,0.34566,-0.40082000000000007,5.5,0,12090,10417,15691,37745,15.645625,252995,22.769397939334148,1005.5909201197372,0,40.689149,-73.991411,0.68,14:52:59,-1
2024-03-29T10:52:59,-0.15732808594999997,0.13459627124999998,10.128219860149999,0.039400807863771994,0.0044287729769356115,-0.038331793696925465,0.30562,0.34118,-0.40950000000000003,5.5,0,12090,10417,15691,37745,15.645625,252995,22.769397939334148,1005.5909201197372,0,40.689149,-73.991411,0.68,14:52:59,-1
2024-03-29T10:52:59,-0.13459627124999998,0.14656038424999998,10.073783145999998,0.03924809155422249,0.0027488935718910697,-0.03726277953007894,0.31150000000000005,0.33586,-0.40096000000000004,4.5,0,12090,10417,15691,37745,15.645625,252995,22.769397939334148,1005.5909201197372,0,40.689149,-73.991411,1.02,14:52:59,-1
2024-03-29T10:52:59,-0.16510475939999997,0.13459627124999998,10.091729315499999,0.03481931857728687,0.003970624048287101,-0.039858956792420505,0.30142,0.33838000000000007,-0.40082000000000007,5.5,0,12090,10417,15691,37745,15.448359375,245871,22.658486813176935,1005.6027929331161,0,40.689149,-73.991411,1.02,14:52:59,-1
2024-03-29T10:52:59,-0.12023933564999999,0.11545369045,10.0893364929,0.039400807863771994,0.0054977871437821395,-0.038179077387375956,0.30814,0.3453800000000001,-0.40516,4.5,0,12090,10417,15691,37745,15.448359375,245871,22.658486813176935,1005.6027929331161,0,40.689149,-73.991411,1.02,14:53:0,-1
2024-03-29T10:53:00,-0.1459621786,0.13339985995,10.091729315499999,0.03665191429188092,0.0022907446432425577,-0.03466660226773738,0.31346,0.33334,-0.39676000000000006,5.5,0,12134,10493,15982,37912,15.50578125,252802,22.719170899501286,1005.5873937860748,0,40.689149,-73.991411,1.02,14:53:0,-1
2024-03-29T10:53:00,-0.14775679555,0.12562318649999998,10.1001041946,0.03359758810089085,0.004886921905584123,-0.038484510006474966,0.31486000000000003,0.33642,-0.4060000000000001,4.5,0,12134,10493,15982,37912,15.50578125,252802,22.719170899501286,1005.5873937860748,0,40.689149,-73.991411,1.02,14:53:0,-1
2024-03-29T10:53:00,-0.13220344865,0.1268195978,10.1001041946,0.03329215548179184,0.0013744467859455349,-0.03375030441044035,0.30534000000000006,0.34062,-0.40334000000000003,4.5,0,12134,10493,15982,37912,15.50578125,252802,22.719170899501286,1005.5873937860748,0,40.689149,-73.991411,1.09,14:53:0,-1
2024-03-29T10:53:00,-0.13220344865,0.14416756165,10.107880868049998,0.03772092845872745,0.0013744467859455349,-0.0355829001250344,0.31122000000000005,0.33922,-0.39802000000000004,4.5,0,12134,10493,15982,37912,15.334296875,244422,22.620327337628606,1005.5927501468706,0,40.689149,-73.991411,1.09,14:53:0,-1
2024-03-29T10:53:00,-0.13160524299999998,0.12622139215,10.051649536949999,0.03604104905368291,0.003970624048287101,-0.036193765363232405,0.30786,0.33446000000000004,-0.40908000000000005,4.5,0,12134,10493,15982,37912,15.334296875,244422,22.620327337628606,1005.5927501468706,0,40.689146,-73.991411,1.09,14:53:1,-1
2024-03-29T10:53:01,-0.14416756165,0.1052841944,10.09352393245,0.03512475119638588,0.00045814892864851157,-0.038331793696925465,0.31094000000000005,0.34118,-0.40726000000000007,4.5,0,12134,10463,15738,37986,15.413203125,250890,22.67710005820714,1005.5866587214425,0,40.689146,-73.991411,1.09,14:53:1,-1
2024-03-29T10:53:01,-0.1304088317,0.1304088317,10.02413207705,0.03695734691097993,0.0054977871437821395,-0.038942658935123484,0.32102,0.34118,-0.40446000000000004,5.5,0,12134,10463,15738,37986,15.413203125,250890,22.67710005820714,1005.5866587214425,0,40.689146,-73.991411,1.09,14:53:1,-1
2024-03-29T10:53:01,-0.13100703735,0.12442677519999999,10.137192944899999,0.03405573702953936,0.0054977871437821395,-0.04077525464971753,0.31234,0.34118,-0.40866,4.5,0,12131,10467,15698,37924,15.413203125,250890,22.67710005820714,1005.5866587214425,0,40.689146,-73.991411,1.53,14:53:1,-1
2024-03-29T10:53:01,-0.13339985995,0.14356935599999998,10.118050364099998,0.03390302071998985,-0.0003054326190990077,-0.03634648167278191,0.31598000000000004,0.34174,-0.41034000000000004,4.5,0,12131,10467,15698,37924,15.25421875,244242,22.57909319608713,1005.6003780189087,0,40.689146,-73.991411,1.53,14:53:1,-1
2024-03-29T10:53:01,-0.0047856452,0.11665010174999998,10.12463062625,0.03588833274413341,0.0015271630954950385,-0.03588833274413341,0.30646,0.34286,-0.40222,4.5,0,12131,10467,15698,37924,15.25421875,244242,22.57909319608713,1005.6003780189087,0,40.689143,-73.991408,1.53,14:53:2,-1
2024-03-29T10:53:02,-0.1328016543,0.14656038424999998,10.030114133549999,0.039706240482871004,0.00015271630954950385,-0.039553524173321496,0.30842,0.34090000000000004,-0.39984000000000003,4.5,0,12112,10477,15808,37786,15.3403515625,252417,22.636272846625786,1005.5992716785845,0,40.689143,-73.991408,1.53,14:53:2,-1
2024-03-29T10:53:02,-0.14057832774999998,0.12562318649999998,10.078568791199999,0.04214970143566306,0.0054977871437821395,-0.039095375244672985,0.31402,0.33642,-0.41874000000000006,5.5,0,12112,10477,15808,37786,15.3403515625,252417,22.636272846625786,1005.5992716785845,0,40.689143,-73.991408,1.53,14:53:2,-1
2024-03-29T10:53:02,-0.15433705769999997,0.15134602945,10.091729315499999,0.038942658935123484,-0.0007635815477475193,-0.03665191429188092,0.31318,0.34622,-0.41300000000000003,4.5,0,12112,10477,15808,37786,15.3403515625,252417,22.636272846625786,1005.5992716785845,0,40.689143,-73.991408,1.53,14:53:2,-1
2024-03-29T10:53:02,-0.12323036389999999,0.14177473905,10.09113110985,0.03802636107782646,0.002138028333693054,-0.043676864531158106,0.31262,0.34034000000000003,-0.40936,4.5,0,12112,10477,15808,37786,15.1852734375,244062,22.54375413320531,1005.6159004491049,0,40.689143,-73.991408,1.53,14:53:2,-1
2024-03-29T10:53:02,-0.14536397295,0.14775679555,10.068997500799998,0.03497203488683638,0.0007635815477475193,-0.03802636107782646,0.30646,0.34174,-0.40768000000000004,4.5,0,12112,10477,15808,37786,15.1852734375,244062,22.54375413320531,1005.6159004491049,0,40.689143,-73.991408,1.53,14:53:2,-1
2024-03-29T10:53:02,-0.13938191645,0.12023933564999999,10.222138147199999,0.038331793696925465,0.003054326190990077,-0.03741549583962844,0.30590000000000006,0.34370000000000006,-0.40558000000000005,5.5,0,12112,10477,15808,37786,15.1852734375,244062,22.54375413320531,1005.6159004491049,0,40.689143,-73.991408,1.53,14:53:2,-1
2024-03-29T10:53:02,-0.12323036389999999,0.13339985995,10.109077279349998,0.03802636107782646,0.0044287729769356115,-0.04046982203061852,0.31486000000000003,0.34706000000000004,-0.41258000000000006,4.5,0,12112,10477,15808,37786,15.2770703125,251080,22.60124843973455,1005.6136848781866,0,40.689143,-73.991408,1.53,14:53:2,-1
2024-03-29T10:53:02,-0.15254244074999998,0.1483550012,10.07318494035,0.036804630601430424,0.0022907446432425577,-0.03695734691097993,0.31402,0.33754,-0.4088,4.5,0,12112,10477,15808,37786,15.2770703125,251080,22.60124843973455,1005.6136848781866,0,40.689143,-73.991408,1.53,14:53:2,-1
2024-03-29T10:53:02,-0.1304088317,0.13220344865,10.0929257268,0.03466660226773738,0.0024434609527920616,-0.03634648167278191,0.31010000000000004,0.3453800000000001,-0.4116,5.5,0,12112,10477,15808,37786,15.2770703125,251080,22.60124843973455,1005.6136848781866,0,40.689143,-73.991408,1.09,14:53:2,-1
2024-03-29T10:53:02,-0.12083754129999999,0.12981062605,10.066006472549999,0.03588833274413341,-0.00015271630954950385,-0.040317105721069016,0.31654000000000004,0.34258000000000005,-0.41174000000000005,4.5,0,12168,10546,15959,37987,15.543671875,258312,22.66954650045173,1005.6115521260002,0,40.689143,-73.991408,1.09,14:53:2,-1
2024-03-29T10:53:02,-0.14955141249999998,0.13220344865,10.111470101950001,0.036804630601430424,-0.0003054326190990077,-0.038942658935123484,0.31402,0.33978,-0.40572,4.5,0,12168,10546,15959,37987,15.543671875,258312,22.66954650045173,1005.6115521260002,0,40.689143,-73.991405,1.09,14:53:3,-1
2024-03-29T10:53:03,-0.12741780345,0.11545369045,10.050453125649998,0.04382958084070761,0.0016798794050445422,-0.038331793696925465,0.31878,0.33978,-0.40124000000000004,4.5,0,12168,10546,15959,37987,15.864375,261571,22.69453167129511,1005.6126783817847,0,40.689143,-73.991405,1.09,14:53:3,-1
2024-03-29T10:53:03,-0.11006983959999998,0.13160524299999998,10.07318494035,0.038484510006474966,0.0033597588100890844,-0.0357356164345839,0.31654000000000004,0.33726000000000006,-0.40362000000000003,4.5,0,12168,10546,15959,37987,15.864375,261571,22.69453167129511,1005.6126783817847,0,40.689143,-73.991405,1.09,14:53:3,-1
2024-03-29T10:53:03,-0.10408778309999998,0.12981062605,10.08155981945,0.03604104905368291,0.00015271630954950385,-0.03787364476827696,0.31654000000000004,0.34314000000000006,-0.40348,4.5,0,12168,10546,15959,37987,15.864375,261571,22.69453167129511,1005.6126783817847,0,40.689143,-73.991405,0.48,14:53:3,-1
2024-03-29T10:53:03,-0.16929219894999997,0.1112662509,10.1168539528,0.03787364476827696,0.002138028333693054,-0.038331793696925465,0.31178000000000006,0.3395000000000001,-0.40138000000000007,5.5,0,12168,10546,15959,37987,15.8622265625,252609,22.62163228982514,1005.6477299482937,0,40.689143,-73.991405,0.48,14:53:3,-1
2024-03-29T10:53:03,-0.12143574694999999,0.13579268255,10.071390323399998,0.03359758810089085,0.0056505034533316425,-0.036804630601430424,0.30982000000000004,0.33614000000000005,-0.4088,4.5,0,12174,10628,16313,38079,15.8622265625,252609,22.62163228982514,1005.6477299482937,0,40.68914,-73.991395,0.48,14:53:4,-1
2024-03-29T10:53:04,-0.12562318649999998,0.14057832774999998,10.0701939121,0.038179077387375956,0.0007635815477475193,-0.036804630601430424,0.31738000000000005,0.34566,-0.40768000000000004,4.5,0,12164,10610,16362,38284,15.968671875,258917,22.659387199246634,1005.6449171361778,0,40.68914,-73.991395,0.48,14:53:4,-1
2024-03-29T10:53:04,-0.12741780345,0.11964112999999998,10.0594262104,0.039553524173321496,0.0025961772623415654,-0.038484510006474966,0.31234,0.34090000000000004,-0.39704,4.5,0,12164,10610,16362,38284,15.968671875,258917,22.659387199246634,1005.6449171361778,0,40.68914,-73.991395,0.48,14:53:4,-1
2024-03-29T10:53:04,-0.12741780345,0.1363908882,10.1563355257,0.04291328298341058,0.003207042500539581,-0.03756821214917795,0.31010000000000004,0.34342,-0.40446000000000004,4.5,0,12164,10610,16362,38284,15.68859375,251080,22.522673600821104,1005.6603117403131,0,40.68914,-73.991395,0.91,14:53:4,-1
2024-03-29T10:53:04,-0.15912270289999997,0.13938191645,10.07438135165,0.03787364476827696,-0.0018325957145940463,-0.03756821214917795,0.31402,0.34034000000000003,-0.39648,4.5,0,12164,10610,16362,38284,15.68859375,251080,22.522673600821104,1005.6603117403131,0,40.68914,-73.991395,0.91,14:53:4,-1
2024-03-29T10:53:04,-0.1268195978,0.14416756165,10.034301573099999,0.0355829001250344,0.008704829644321718,-0.03787364476827696,0.30646,0.34818,-0.40866,4.5,0,12164,10610,16362,38284,15.68859375,251080,22.522673600821104,1005.6603117403131,0,40.689135,-73.991379,0.91,14:53:5,-1
2024-03-29T10:53:05,-0.1280160091,0.14955141249999998,10.08395264205,0.03451388595818787,-0.0013744467859455349,-0.038179077387375956,0.30450000000000005,0.34454,-0.40992,4.5,0,12190,10633,16383,38523,15.676875,256912,22.56348226375491,1005.6514346010897,0,40.689135,-73.991379,0.91,14:53:5,-1
2024-03-29T10:53:05,-0.12382856954999999,0.11964112999999998,10.052247742599999,0.03695734691097993,0.0035124751196385882,-0.03741549583962844,0.31094000000000005,0.34174,-0.41048,4.5,0,12190,10633,16383,38523,15.676875,256912,22.56348226375491,1005.6514346010897,0,40.689135,-73.991379,0.91,14:53:5,-1
2024-03-29T10:53:05,-0.15732808594999997,0.1447657673,10.085149053349998,0.038637226316024474,0.00595593607243065,-0.03772092845872745,0.30814,0.34034000000000003,-0.40726000000000007,4.5,0,12190,10633,16383,38523,15.676875,256912,22.56348226375491,1005.6514346010897,0,40.689135,-73.991379,0.61,14:53:5,-1
2024-03-29T10:53:05,-0.09990034354999999,0.11306086784999998,10.048658508699999,0.03741549583962844,0.004886921905584123,-0.03588833274413341,0.31066000000000005,0.34174,-0.40418000000000004,4.5,0,12190,10633,16383,38523,15.4216015625,248821,22.454469971608127,1005.6654553407042,0,40.689135,-73.991379,0.61,14:53:5,-1
2024-03-29T10:53:05,-0.11724830739999999,0.1471585899,10.055238770849998,0.03329215548179184,0.002138028333693054,-0.03451388595818787,0.31262,0.33866,-0.40992,4.5,0,12190,10633,16383,38523,15.4216015625,248821,22.454469971608127,1005.6654553407042,0,40.689128,-73.991385,0.61,14:53:6,-1
2024-03-29T10:53:06,-0.14177473905,0.11425727914999999,10.0773723799,0.038331793696925465,0.0038179077387375964,-0.03405573702953936,0.31262,0.33866,-0.41538,4.5,0,12242,10701,16358,38669,15.43703125,256714,22.512458275847873,1005.6629511374884,0,40.689128,-73.991385,0.61,14:53:6,-1
2024-03-29T10:53:06,-0.12023933564999999,0.12263215824999998,10.077970585549998,0.036193765363232405,0.0013744467859455349,-0.03527746750593539,0.30982000000000004,0.34202000000000005,-0.41832,4.5,0,12242,10701,16358,38669,15.43703125,256714,22.512458275847873,1005.6629511374884,0,40.689128,-73.991385,0.61,14:53:6,-1
2024-03-29T10:53:06,-0.1280160091,0.1268195978,10.0366943957,0.038789942625573975,-0.0022907446432425577,-0.03543018381548489,0.31374,0.3389400000000001,-0.4088,4.5,0,12242,10701,16358,38669,15.43703125,256714,22.512458275847873,1005.6629511374884,0,40.689128,-73.991385,2.04,14:53:6,-1
2024-03-29T10:53:06,-0.12442677519999999,0.1363908882,10.079765202499999,0.040622538340168025,0.0025961772623415654,-0.041386119887915546,0.3129,0.35098,-0.40572,4.5,0,12242,10701,16358,38669,15.23234375,248448,22.406666468527323,1005.6728410211972,0,40.689128,-73.991385,2.04,14:53:6,-1
2024-03-29T10:53:06,-0.10348957745,0.11066804524999999,10.111470101950001,0.03665191429188092,0.006414085001079162,-0.041844268816564056,0.31458,0.34426000000000007,-0.41888000000000003,4.5,0,12242,10701,16358,38669,15.23234375,248448,22.406666468527323,1005.6728410211972,0,40.689116,-73.991395,2.04,14:53:7,-1
2024-03-29T10:53:07,-0.1579262916,0.12382856954999999,10.071390323399998,0.0357356164345839,-0.001069014166846527,-0.03787364476827696,0.30562,0.34146000000000004,-0.42084000000000005,4.5,0,12426,10987,17316,39901,15.287421875,255724,22.46702508685146,1005.6641454871684,0,40.689116,-73.991395,2.04,14:53:7,-1
2024-03-29T10:53:07,-0.1268195978,0.11844471869999999,10.1024970172,0.038331793696925465,0.0036651914291880926,-0.039553524173321496,0.30422000000000005,0.34258000000000005,-0.40026000000000006,4.5,0,12426,10987,17316,39901,15.287421875,255724,22.46702508685146,1005.6641454871684,0,40.689116,-73.991395,2.04,14:53:7,-1
2024-03-29T10:53:07,-0.14297115034999996,0.12861421474999998,10.106086251099997,0.03924809155422249,0.0013744467859455349,-0.038789942625573975,0.30562,0.33334,-0.41146000000000005,4.5,0,12426,10987,17316,39901,15.287421875,255724,22.46702508685146,1005.6641454871684,0,40.689116,-73.991395,2.04,14:53:7,-1
2024-03-29T10:53:07,-0.14416756165,0.1387837108,10.086943670299998,0.040622538340168025,0.002901609881440573,-0.03604104905368291,0.30590000000000006,0.34062,-0.40712000000000004,4.5,0,12426,10987,17316,39901,15.110859375,246969,22.383750873471747,1005.671418488007,0,40.689116,-73.991395,2.04,14:53:7,-1
2024-03-29T10:53:07,-0.10169496049999999,0.13220344865,10.0905329042,0.03451388595818787,0.0007635815477475193,-0.038942658935123484,0.31038000000000004,0.33642,-0.3990000000000001,4.5,0,12426,10987,17316,39901,15.110859375,246969,22.383750873471747,1005.671418488007,0,40.689116,-73.991395,2.04,14:53:7,-1
2024-03-29T10:53:07,-0.14356935599999998,0.12981062605,10.0666046782,0.040622538340168025,0.0038179077387375964,-0.040622538340168025,0.31318,0.33754,-0.40446000000000004,4.5,0,12426,10987,17316,39901,15.110859375,246969,22.383750873471747,1005.671418488007,0,40.689116,-73.991395,2.04,14:53:7,-1
2024-03-29T10:53:07,-0.11904292434999998,0.12502498085,10.076175968599998,0.03405573702953936,-0.0007635815477475193,-0.039553524173321496,0.31374,0.34118,-0.40614000000000006,4.5,0,12426,10987,17316,39901,15.18625,256714,22.445314828532602,1005.6543327984996,0,40.689116,-73.991395,2.04,14:53:7,-1
2024-03-29T10:53:07,-0.11724830739999999,0.12502498085,10.0905329042,0.037110063220529434,0.001069014166846527,-0.03741549583962844,0.31234,0.33670000000000005,-0.4018,4.5,0,12519,11163,18043,39966,15.18625,256714,22.445314828532602,1005.6543327984996,0,40.689116,-73.991395,2.04,14:53:7,-1
2024-03-29T10:53:07,-0.13998012209999997,0.12741780345,10.0438728635,0.038484510006474966,0.0018325957145940463,-0.03772092845872745,0.30814,0.33614000000000005,-0.42028000000000004,4.5,0,12519,11163,18043,39966,15.18625,256714,22.445314828532602,1005.6543327984996,0,40.689116,-73.991395,1.19,14:53:7,-1
2024-03-29T10:53:07,-0.13339985995,0.10169496049999999,10.04985492,0.037110063220529434,0.0022907446432425577,-0.03726277953007894,0.31458,0.3389400000000001,-0.40782000000000007,4.5,0,12519,11163,18043,39966,15.44015625,260135,22.50746212951152,1005.6435741942936,0,40.689116,-73.991395,1.19,14:53:7,-1
2024-03-29T10:53:07,-0.27936203854999997,0.14237294469999998,10.097711372000001,0.039858956792420505,-0.039095375244672985,-0.03481931857728687,0.31654000000000004,0.33698,-0.4148200000000001,4.5,0,12519,11163,18043,39966,15.44015625,260135,22.50746212951152,1005.6435741942936,0,40.689113,-73.991388,1.19,14:53:8,-1
2024-03-29T10:53:08,-0.14416756165,0.12741780345,10.067801089499998,0.03344487179134134,0.0035124751196385882,-0.03405573702953936,0.30982000000000004,0.34286,-0.41804,4.5,0,12519,11163,18043,39966,15.7532421875,265124,22.547404831302458,1005.6322512451076,0,40.689113,-73.991388,1.19,14:53:8,-1
2024-03-29T10:53:08,-0.11904292434999998,0.10827522265,10.0666046782,0.038179077387375956,0.00045814892864851157,-0.038331793696925465,0.31150000000000005,0.34846000000000005,-0.41174000000000005,4.5,0,12519,11163,18043,39966,15.7532421875,265124,22.547404831302458,1005.6322512451076,0,40.689113,-73.991388,1.19,14:53:8,-1
2024-03-29T10:53:08,-0.12622139215,0.14057832774999998,10.0725867347,0.03695734691097993,0.003207042500539581,-0.041844268816564056,0.31626000000000004,0.34398,-0.40824000000000005,4.5,0,12565,11385,18774,39711,15.7532421875,265124,22.547404831302458,1005.6322512451076,0,40.689113,-73.991388,2.12,14:53:8,-1
2024-03-29T10:53:08,-0.14177473905,0.15852449724999998,10.0474620974,0.038179077387375956,0.0036651914291880926,-0.03420845333908886,0.31654000000000004,0.33978,-0.4089400000000001,4.5,0,12565,11385,18774,39711,15.7383984375,255527,22.484209508846902,1005.6585584781639,0,40.689113,-73.991388,2.12,14:53:8,-1
2024-03-29T10:53:08,-0.13998012209999997,0.12861421474999998,10.0941221381,0.0357356164345839,0.003054326190990077,-0.03787364476827696,0.31822,0.3400600000000001,-0.4089400000000001,4.5,0,12565,11385,18774,39711,15.7383984375,255527,22.484209508846902,1005.6585584781639,0,40.689116,-73.991383,2.12,14:53:9,-1
2024-03-29T10:53:09,-0.12143574694999999,0.16211373114999997,10.125228831899998,0.03481931857728687,-0.002138028333693054,-0.04245513405476207,0.31122000000000005,0.3395000000000001,-0.41034000000000004,4.5,0,12566,11202,18013,40538,15.83859375,261365,22.500731705198298,1005.6472141421156,0,40.689116,-73.991383,2.12,14:53:9,-1
2024-03-29T10:53:09,-0.11485548479999999,0.12083754129999999,10.088140081599997,0.03405573702953936,0.0033597588100890844,-0.03665191429188092,0.30842,0.34482000000000007,-0.41874000000000006,4.5,0,12566,11202,18013,40538,15.83859375,261365,22.500731705198298,1005.6472141421156,0,40.689116,-73.991383,2.12,14:53:9,-1
2024-03-29T10:53:09,-0.11485548479999999,0.13818550515,10.128219860149999,0.038484510006474966,0.0044287729769356115,-0.03543018381548489,0.31066000000000005,0.33754,-0.40208000000000005,4.5,0,12566,11202,18013,40538,15.83859375,261365,22.500731705198298,1005.6472141421156,0,40.689116,-73.991383,3.23,14:53:9,-1
