Timestamp,Accel_X,Accel_Y,Accel_Z,Gyro_X,Gyro_Y,Gyro_Z,Mag_X,Mag_Y,Mag_Z,LSM9DS1_Temp,Proximity,Color_R,Color_G,Color_B,Color_C,BME680_Temp,Gas,Humidity,Pressure,Switch_Pressed,GPS_Latitude,GPS_Longitude,GPS_Speed,GPS_Timestamp
2024-03-17T16:22:37,-0.30209385325,0.24047867129999997,9.8680004024,0.02351831167062359,0.016798794050445424,0.08964447370555875,-0.009380000000000001,0.32746000000000003,-0.52108,17.5,0,0,0,0,0,33.574921875,144231,100,695.662002676745,0,,,,N/A
2024-03-17T16:22:37,-0.25423740125,0.27457639335,9.878768104099999,0.026267205242514663,0.020922134408282028,0.08735372906231621,-0.017220000000000003,0.3241,-0.53508,17.5,0,0,0,0,0,33.574921875,144231,100,695.662002676745,0,,,,N/A
2024-03-17T16:22:37,-0.27996024419999993,0.26500510294999996,9.91525864875,0.019242255003237483,0.01786780821729195,0.08796459430051423,-0.01414,0.32018,-0.5371800000000001,17.5,0,0,0,0,0,33.574921875,144231,100,695.662002676745,0,,,,N/A
2024-03-17T16:22:37,-0.31046873235,0.2309073809,9.8991070962,0.020158552860534508,0.019089538693687978,0.08659014751456869,-0.007980000000000001,0.32074,-0.5300400000000001,17.5,0,0,0,0,0,33.574921875,144231,100,695.662002676745,0,,,,N/A
2024-03-17T16:22:37,-0.2787638329,0.21355941705,9.925428144799998,0.018020524526841455,0.02428189321837111,0.08750644537186571,-0.007980000000000001,0.32074,-0.5300400000000001,17.5,0,0,0,0,0,33.574921875,144231,100,695.662002676745,0,,,,N/A
2024-03-17T16:22:37,-0.28713871199999996,0.25782663515,9.906285564,0.019394971312786988,0.018173240836390957,0.08689558013366769,-0.00462,0.32718,-0.52248,17.5,0,0,0,0,0,33.574921875,144231,100,695.662002676745,0,,,,N/A
2024-03-17T16:22:37,-0.25124637299999997,0.28594230069999993,9.911669414849998,0.02290744643242558,0.02168571595602955,0.08689558013366769,-0.00574,0.32578,-0.5206600000000001,17.5,0,0,0,0,0,33.574921875,144231,100,695.662002676745,0,,,,N/A
2024-03-17T16:22:37,-0.2835494781,0.27517459899999996,9.906285564,0.02061670178918302,0.019089538693687978,0.08827002691961322,-0.00574,0.32578,-0.5206600000000001,17.5,0,0,0,0,0,23.9551953125,28806,19.113417916264005,999.279786393986,0,,,,N/A
2024-03-17T16:22:37,-0.2560320182,0.215354034,9.963115100749999,0.020922134408282028,0.02306016274197508,0.08613199858592017,-0.009940000000000001,0.32270000000000004,-0.5222,17.5,0,0,0,0,0,23.9551953125,28806,19.113417916264005,999.279786393986,0,,,,N/A
2024-03-17T16:22:37,-0.29491538544999996,0.24047867129999997,9.879366309749999,0.02138028333693054,0.022143864884678056,0.08597928227637067,-0.009940000000000001,0.32270000000000004,-0.5222,18.5,0,0,0,0,0,23.9551953125,28806,19.113417916264005,999.279786393986,0,,,,N/A
2024-03-17T16:22:37,-0.26739792554999997,0.24945175605,9.918249676999999,0.020311269170084013,0.022449297503777065,0.0832303887044796,-0.006860000000000001,0.33474,-0.5294800000000001,18.5,0,0,0,0,0,23.9551953125,28806,19.113417916264005,999.279786393986,0,,,,N/A
2024-03-17T16:22:37,-0.26919254249999996,0.26021945775,9.8799645154,0.024740042147019626,0.020922134408282028,0.08536841703817265,-0.009100000000000002,0.33166,-0.53032,17.5,0,0,0,0,0,23.9551953125,28806,19.113417916264005,999.279786393986,0,,,,N/A
2024-03-17T16:22:37,-0.27337998204999997,0.25423740125,9.909276592249999,0.01710422666954443,0.020005836550985007,0.08735372906231621,-0.009100000000000002,0.33194000000000007,-0.5287800000000001,17.5,0,0,0,0,0,23.9551953125,28806,19.113417916264005,999.279786393986,0,,,,N/A
2024-03-17T16:22:37,-0.18544375149999998,0.25782663515,9.94397251995,0.023212879051524585,0.02138028333693054,0.08827002691961322,-0.009940000000000001,0.33194000000000007,-0.5287800000000001,18.5,0,0,0,0,0,24.20265625,40802,19.153211557781876,999.2832859181387,0,,,,N/A
2024-03-17T16:22:37,-0.30747770409999997,0.2069791549,9.942177903,0.022143864884678056,0.021227567027381034,0.09025533894375677,-0.00966,0.32970000000000005,-0.5247200000000001,18.5,0,0,0,0,0,24.20265625,40802,19.153211557781876,999.2832859181387,0,,,,N/A
2024-03-17T16:22:37,-0.23150558654999998,0.25064816735,9.9577312499,0.021838432265579053,0.02351831167062359,0.08750644537186571,-0.0119,0.32746000000000003,-0.5205200000000001,18.5,0,0,0,0,0,24.20265625,40802,19.153211557781876,999.2832859181387,0,,,,N/A
2024-03-17T16:22:37,-0.20159530404999998,0.25184457865,10.0223374601,0.020463985479633514,0.01756237559819294,0.08506298441907365,-0.0119,0.32746000000000003,-0.5205200000000001,18.5,0,0,0,0,0,24.20265625,40802,19.153211557781876,999.2832859181387,0,,,,N/A
2024-03-17T16:22:37,-0.29252256285,0.2584248408,9.92243711655,0.020005836550985007,0.020158552860534508,0.08735372906231621,-0.006860000000000001,0.3269,-0.5289200000000001,18.5,0,0,0,0,0,24.20265625,40802,19.153211557781876,999.2832859181387,0,,,,N/A
2024-03-17T16:22:38,-0.4342973019,0.27816562724999994,9.939186874749998,0.020922134408282028,0.019853120241435502,0.08811731061006371,-0.010500000000000002,0.32746000000000003,-0.5268200000000001,18.5,0,0,0,0,0,24.20265625,40802,19.153211557781876,999.2832859181387,0,,,,N/A
2024-03-17T16:22:38,-0.29252256285,0.22133609049999997,9.917651471349998,0.018478673455489966,0.022754730122876075,0.08659014751456869,-0.007700000000000001,0.32382000000000005,-0.5177200000000001,18.5,0,0,0,0,0,24.5657421875,51223,19.18944875737217,999.2952782932288,0,,,,N/A
2024-03-17T16:22:38,-0.27816562724999994,0.27996024419999993,9.88415195495,0.022143864884678056,0.02168571595602955,0.08811731061006371,-0.0161,0.32634,-0.5209400000000001,18.5,0,84,32,28,128,24.5657421875,51223,19.18944875737217,999.2952782932288,0,,,,N/A
2024-03-17T16:22:38,-0.2703889538,0.24406790519999996,9.9290173787,0.023212879051524585,0.01863138976503947,0.08659014751456869,-0.009940000000000001,0.3269,-0.51898,18.5,0,84,32,28,128,24.5657421875,51223,19.18944875737217,999.2952782932288,0,,,,N/A
2024-03-17T16:22:38,-0.2596212521,0.22791635265,9.96431151205,0.02489275845656913,0.020769418098732523,0.08659014751456869,-0.01582,0.32662,-0.5285,18.5,0,84,32,28,128,24.5657421875,51223,19.18944875737217,999.2952782932288,0,,,,N/A
2024-03-17T16:22:38,-0.21834506225,0.24346969954999997,9.940981491699999,0.0238237442897226,0.019242255003237483,0.08811731061006371,-0.0119,0.32158000000000003,-0.52038,18.5,0,84,32,28,128,24.5657421875,51223,19.18944875737217,999.2952782932288,0,,,,N/A
2024-03-17T16:22:38,-0.20518453794999997,0.24406790519999996,9.9744810081,0.02260201381332657,0.024129176908821607,0.08689558013366769,-0.0119,0.32158000000000003,-0.52038,18.5,0,84,32,28,128,24.5657421875,51223,19.18944875737217,999.2952782932288,0,,,,N/A
2024-03-17T16:22:38,-0.29312076849999996,0.25304098994999996,9.94636534255,0.020922134408282028,0.018478673455489966,0.08735372906231621,-0.012740000000000001,0.32382000000000005,-0.5286400000000001,18.5,0,84,32,28,128,24.9536328125,60868,19.216938555504775,999.299043714187,0,,,,N/A
2024-03-17T16:22:38,-0.23330020349999997,0.2524427843,9.9684989516,0.016493361431346415,0.021227567027381034,0.08994990632465777,-0.016380000000000002,0.32214000000000004,-0.5103000000000001,18.5,0,84,32,28,128,24.9536328125,60868,19.216938555504775,999.299043714187,0,,,,N/A
2024-03-17T16:22:38,-0.2775674216,0.24047867129999997,9.967900745949999,0.018020524526841455,0.020769418098732523,0.08659014751456869,-0.016380000000000002,0.32214000000000004,-0.5103000000000001,18.5,0,84,32,28,128,24.9536328125,60868,19.216938555504775,999.299043714187,0,,,,N/A
2024-03-17T16:22:38,-0.28175486115,0.25663022385,9.93799046345,0.02336559536107409,0.017715091907742446,0.08750644537186571,-0.013300000000000001,0.33026000000000005,-0.5152,18.5,0,84,32,28,128,24.9536328125,60868,19.216938555504775,999.299043714187,0,,,,N/A
2024-03-17T16:22:38,-0.3176472001499999,0.25902304644999996,10.013364375349997,0.012980886311707827,0.023976460599272102,0.0867428638241182,-0.016380000000000002,0.32186000000000003,-0.52192,18.5,0,84,32,28,128,24.9536328125,60868,19.216938555504775,999.299043714187,0,,,,N/A
2024-03-17T16:22:38,-0.27696921594999996,0.25184457865,9.988239738049998,0.02107485071783153,0.016035212502697904,0.08765916168141522,-0.0119,0.33166,-0.5125400000000001,18.5,0,84,32,28,128,24.9536328125,60868,19.216938555504775,999.299043714187,0,,,,N/A
2024-03-17T16:22:38,-0.2656033086,0.24346969954999997,9.984052298499998,0.022143864884678056,0.022754730122876075,0.08399397025222713,-0.0119,0.33166,-0.5125400000000001,18.5,0,84,32,28,128,24.9536328125,60868,19.216938555504775,999.299043714187,0,,,,N/A
2024-03-17T16:22:38,-0.27696921594999996,0.20159530404999998,10.030712339199999,0.022754730122876075,0.02229658119422756,0.08796459430051423,-0.009380000000000001,0.32942,-0.52192,18.5,0,84,32,28,128,25.324921875,68698,19.243565554620847,999.3125154772872,0,,,,N/A
2024-03-17T16:22:38,-0.19561324754999998,0.27218357075,9.97388280245,0.018784106074588976,0.023212879051524585,0.08735372906231621,-0.011340000000000001,0.32550000000000007,-0.518,18.5,0,84,32,28,128,25.324921875,68698,19.243565554620847,999.3125154772872,0,,,,N/A
2024-03-17T16:22:38,-0.29012974025,0.25543381255,9.9625168951,0.023212879051524585,0.017715091907742446,0.08888089215781124,-0.014420000000000002,0.32718,-0.5313000000000001,18.5,0,84,32,28,128,25.324921875,68698,19.243565554620847,999.3125154772872,0,,,,N/A
2024-03-17T16:22:38,-0.2620140747,0.26261228035,9.965507923349998,0.01756237559819294,0.021532999646480044,0.08842274322916273,-0.014420000000000002,0.32718,-0.5313000000000001,18.5,0,84,32,28,128,25.324921875,68698,19.243565554620847,999.3125154772872,0,,,,N/A
2024-03-17T16:22:38,-0.2596212521,0.25663022385,9.966106128999998,0.02260201381332657,0.02061670178918302,0.08994990632465777,-0.012180000000000002,0.32858000000000004,-0.51674,18.5,0,84,32,28,128,25.324921875,68698,19.243565554620847,999.3125154772872,0,,,,N/A
2024-03-17T16:22:38,-0.3038884702,0.23270199784999998,9.98225768155,0.019547687622336492,0.020769418098732523,0.08842274322916273,-0.00266,0.32494000000000006,-0.52024,18.5,0,84,32,28,128,25.324921875,68698,19.243565554620847,999.3125154772872,0,,,,N/A
2024-03-17T16:22:38,-0.27517459899999996,0.24586252214999998,9.97627562505,0.02458732583747012,0.019089538693687978,0.08949175739600926,-0.00266,0.32494000000000006,-0.52024,18.5,0,84,32,28,128,25.324921875,68698,19.243565554620847,999.3125154772872,0,,,,N/A
2024-03-17T16:22:38,-0.29910282499999996,0.22013967919999997,9.999605645399999,0.020922134408282028,0.022143864884678056,0.0872010127527667,-0.01862,0.33082000000000006,-0.5205200000000001,18.5,0,84,32,28,128,25.6618359375,76137,19.257974861060298,999.3229092815684,0,,,,N/A
2024-03-17T16:22:38,-0.27936203854999997,0.21475582835,10.1168539528,0.024740042147019626,0.023976460599272102,0.08979719001510826,-0.012180000000000002,0.32466,-0.5286400000000001,18.5,0,84,32,28,128,25.6618359375,76137,19.257974861060298,999.3229092815684,0,,,,N/A
2024-03-17T16:22:38,-0.26979074815,0.24705893344999996,9.99661461715,0.02351831167062359,0.023976460599272102,0.08811731061006371,-0.01666,0.32298000000000004,-0.5230400000000001,18.5,0,84,32,28,128,25.6618359375,76137,19.257974861060298,999.3229092815684,0,,,,N/A
2024-03-17T16:22:38,-0.24287149389999999,0.2596212521,9.9876415324,0.019700403931885997,0.023671027980173096,0.08888089215781124,-0.007420000000000001,0.32186000000000003,-0.5086200000000001,18.5,0,84,32,28,128,25.6618359375,76137,19.257974861060298,999.3229092815684,0,,,,N/A
2024-03-17T16:22:38,-0.28175486115,0.24586252214999998,9.991230766299998,0.017256942979093935,0.024740042147019626,0.08949175739600926,-0.013020000000000002,0.32550000000000007,-0.5195400000000001,18.5,0,84,32,28,128,25.6618359375,76137,19.257974861060298,999.3229092815684,0,,,,N/A
2024-03-17T16:22:38,-0.29312076849999996,0.26979074815,10.03729260135,0.02260201381332657,0.016035212502697904,0.08964447370555875,-0.013020000000000002,0.32550000000000007,-0.5195400000000001,18.5,0,84,32,28,128,25.6618359375,76137,19.257974861060298,999.3229092815684,0,,,,N/A
2024-03-17T16:22:38,-0.15433705769999997,0.23748764304999997,9.96909715725,0.022143864884678056,0.026419921552064168,0.08994990632465777,-0.009380000000000001,0.32242000000000004,-0.5230400000000001,18.5,0,84,32,28,128,25.960078125,82623,19.249555262626792,999.3376422772577,0,,,,N/A
2024-03-17T16:22:38,-0.24047867129999997,0.25184457865,9.972088185499999,0.020463985479633514,0.018478673455489966,0.08429940287132612,-0.018060000000000003,0.33026000000000005,-0.5268200000000001,18.5,0,84,32,28,128,25.960078125,82623,19.249555262626792,999.3376422772577,0,,,,N/A
2024-03-17T16:22:38,-0.2883351233,0.21714865095,10.03848901265,0.021991148575128558,0.02351831167062359,0.08750644537186571,-0.00854,0.32074,-0.5173000000000001,18.5,0,84,32,28,128,25.960078125,82623,19.249555262626792,999.3376422772577,0,,,,N/A
2024-03-17T16:22:38,-0.28773691765000003,0.24705893344999996,10.001998467999998,0.02138028333693054,0.020922134408282028,0.08857545953871222,-0.00854,0.32074,-0.5173000000000001,18.5,0,84,32,28,128,25.960078125,82623,19.249555262626792,999.3376422772577,0,,,,N/A
2024-03-17T16:22:38,-0.27696921594999996,0.24705893344999996,9.980463064599999,0.019853120241435502,0.020005836550985007,0.08827002691961322,-0.0175,0.32018,-0.5227600000000001,18.5,0,84,32,28,128,25.960078125,82623,19.249555262626792,999.3376422772577,0,,,,N/A
2024-03-17T16:22:38,-0.3026920589,0.26380869165,10.001998467999998,0.026725354171163174,0.01893682238413848,0.08781187799096472,-0.011340000000000001,0.32494000000000006,-0.52738,18.5,0,84,32,28,128,25.960078125,82623,19.249555262626792,999.3376422772577,0,,,,N/A
2024-03-17T16:22:38,-0.28713871199999996,0.25184457865,10.009176935799998,0.02336559536107409,0.018478673455489966,0.08918632477691024,-0.011340000000000001,0.32494000000000006,-0.52738,18.5,0,84,32,28,128,26.221015625,88240,19.228656063321907,999.3466147846385,0,,,,N/A
2024-03-17T16:22:39,-0.26380869165,0.28534409504999997,9.954142015999999,0.019853120241435502,0.020158552860534508,0.08781187799096472,-0.01862,0.33222,-0.52486,18.5,0,84,32,28,128,26.221015625,88240,19.228656063321907,999.3466147846385,0,,,,N/A
2024-03-17T16:22:39,-0.28594230069999993,0.25782663515,10.052845948249999,0.022754730122876075,0.021227567027381034,0.08765916168141522,-0.014980000000000002,0.32662,-0.5392800000000001,18.5,0,84,32,28,128,26.221015625,88240,19.228656063321907,999.3466147846385,0,,,,N/A
2024-03-17T16:22:39,-0.2656033086,0.2667997199,10.02532848835,0.019547687622336492,0.025656340004316647,0.0870482964432172,-0.01694,0.32522,-0.53746,18.5,0,84,32,28,128,26.221015625,88240,19.228656063321907,999.3466147846385,0,,,,N/A
2024-03-17T16:22:39,-0.28773691765000003,0.24346969954999997,10.039087218299999,0.021227567027381034,0.024740042147019626,0.08689558013366769,-0.01694,0.32522,-0.53746,18.5,0,84,32,28,128,26.221015625,88240,19.228656063321907,999.3466147846385,0,,,,N/A
2024-03-17T16:22:39,-0.2596212521,0.23868405434999998,10.025926693999999,0.02351831167062359,0.022143864884678056,0.0872010127527667,-0.01946,0.3311,-0.5385800000000001,18.5,0,84,32,28,128,26.221015625,88240,19.228656063321907,999.3466147846385,0,,,,N/A
2024-03-17T16:22:39,-0.31345976059999997,0.2536391956,10.016953609249999,0.019853120241435502,0.018020524526841455,0.08597928227637067,-0.02058,0.32550000000000007,-0.5300400000000001,18.5,0,84,32,28,128,26.4485546875,93315,19.21613018078814,999.3598640621233,0,,,,N/A
2024-03-17T16:22:39,-0.45284167705,0.24885355039999998,10.052845948249999,0.017715091907742446,0.02168571595602955,0.08735372906231621,-0.01778,0.32018,-0.52808,18.5,0,84,32,28,128,26.4485546875,93315,19.21613018078814,999.3598640621233,0,,,,N/A
2024-03-17T16:22:39,-0.26919254249999996,0.24287149389999999,10.04207824655,0.020158552860534508,0.019242255003237483,0.08918632477691024,-0.018340000000000002,0.32830000000000004,-0.51912,18.5,0,84,32,28,128,26.4485546875,93315,19.21613018078814,999.3598640621233,0,,,,N/A
2024-03-17T16:22:39,-0.27098715944999996,0.2524427843,10.02652489965,0.018173240836390957,0.021227567027381034,0.08872817584826173,-0.014980000000000002,0.32550000000000007,-0.5321400000000001,18.5,0,84,32,28,128,26.4485546875,93315,19.21613018078814,999.3598640621233,0,,,,N/A
2024-03-17T16:22:39,-0.42053857194999994,0.2536391956,10.06122082735,0.02061670178918302,0.02306016274197508,0.08750644537186571,-0.014980000000000002,0.32550000000000007,-0.5321400000000001,18.5,0,84,32,28,128,26.4485546875,93315,19.21613018078814,999.3598640621233,0,,,,N/A
2024-03-17T16:22:39,-0.2967100024,0.23449661479999998,10.04207824655,0.019089538693687978,0.018784106074588976,0.08827002691961322,-0.01778,0.33698,-0.5173000000000001,18.5,0,84,32,28,128,26.4485546875,93315,19.21613018078814,999.3598640621233,0,,,,N/A
2024-03-17T16:22:39,-0.2656033086,0.2560320182,10.033105161799998,0.02229658119422756,0.017409659288643436,0.08827002691961322,-0.01414,0.33026000000000005,-0.52836,18.5,0,84,32,28,128,26.64640625,96154,19.186385397375908,999.363900517445,0,,,,N/A
2024-03-17T16:22:39,-0.2667997199,0.22432711874999997,9.9756774194,0.021532999646480044,0.016493361431346415,0.08491026810952414,-0.0161,0.3325000000000001,-0.5230400000000001,18.5,0,84,32,28,128,26.64640625,96154,19.186385397375908,999.363900517445,0,,,,N/A
2024-03-17T16:22:39,-0.27098715944999996,0.24885355039999998,9.999605645399999,0.018784106074588976,0.019394971312786988,0.08811731061006371,-0.013300000000000001,0.32242000000000004,-0.53396,18.5,0,84,32,28,128,26.64640625,96154,19.186385397375908,999.363900517445,0,,,,N/A
2024-03-17T16:22:39,-0.31166514365,0.23030917524999997,9.98345409285,0.023671027980173096,0.020005836550985007,0.08888089215781124,-0.013300000000000001,0.32242000000000004,-0.53396,18.5,0,84,32,28,128,26.64640625,96154,19.186385397375908,999.363900517445,0,,,,N/A
2024-03-17T16:22:39,-0.24885355039999998,0.23688943739999999,10.03848901265,0.016951510359994926,0.023671027980173096,0.08628471489546968,-0.009100000000000002,0.33278,-0.53046,18.5,0,84,32,28,128,26.64640625,96154,19.186385397375908,999.363900517445,0,,,,N/A
2024-03-17T16:22:39,-0.2727817764,0.24586252214999998,10.0366943957,0.02458732583747012,0.023212879051524585,0.08659014751456869,-0.011620000000000002,0.32438000000000006,-0.52234,18.5,0,84,32,28,128,26.64640625,96154,19.186385397375908,999.363900517445,0,,,,N/A
2024-03-17T16:22:39,-0.2715853651,0.25663022385,10.0366943957,0.020005836550985007,0.023212879051524585,0.08918632477691024,-0.011620000000000002,0.32438000000000006,-0.52234,18.5,0,84,32,28,128,26.8159375,100089,19.160143301010063,999.362799257835,0,,,,N/A
2024-03-17T16:22:39,-0.29910282499999996,0.24705893344999996,10.019944637499998,0.062460970605747075,-0.10461067204141013,-0.06688974358268268,-0.01414,0.32830000000000004,-0.52738,18.5,0,84,32,28,128,26.8159375,100089,19.160143301010063,999.362799257835,0,,,,N/A
2024-03-17T16:22:39,-0.28474588939999995,0.23928225999999997,10.04088183525,0.061697389057999555,-0.08475755179997463,-0.06536258048718765,-0.01106,0.33054,-0.52598,18.5,0,84,32,28,128,26.8159375,100089,19.160143301010063,999.362799257835,0,,,,N/A
2024-03-17T16:22:39,-0.32901310749999996,0.21595223965000002,9.963713306399999,0.04917465167494024,-0.07345654489331135,-0.07070765132142029,-0.00966,0.32942,-0.53074,18.5,0,84,32,28,128,26.8159375,100089,19.160143301010063,999.362799257835,0,,,,N/A
2024-03-17T16:22:39,-0.27457639335,0.2500499617,10.024730282699998,0.04718933965079669,-0.06078109120070253,-0.05849034655745997,-0.00966,0.32942,-0.53074,18.5,0,84,32,28,128,26.8159375,100089,19.160143301010063,999.362799257835,0,,,,N/A
2024-03-17T16:22:39,-0.1639083481,0.23748764304999997,9.958927661199999,0.04917465167494024,-0.04596760917440065,-0.061544672748450054,-0.018900000000000004,0.32886000000000004,-0.5327000000000001,18.5,0,84,32,28,128,26.8159375,100089,19.160143301010063,999.362799257835,0,,,,N/A
2024-03-17T16:22:39,-0.2715853651,0.23210379219999996,10.039685423949999,0.04016438941151951,-0.031459559767197796,-0.05879577917655898,-0.010780000000000001,0.33474,-0.5215,18.5,0,84,32,28,128,26.8159375,100089,19.160143301010063,999.362799257835,0,,,,N/A
2024-03-17T16:22:39,-0.2656033086,0.24167508259999998,10.0546405652,0.039706240482871004,-0.017256942979093935,-0.05711589977151444,-0.010780000000000001,0.33474,-0.5215,18.5,0,84,32,28,128,26.9637890625,103974,19.122302864005555,999.3799009685569,0,,,,N/A
2024-03-17T16:22:39,-0.26141586904999997,0.24346969954999997,10.209575828550001,0.03665191429188092,0.004123340357836604,-0.05711589977151444,-0.01246,0.32886000000000004,-0.5327000000000001,18.5,0,84,32,28,128,26.9637890625,103974,19.122302864005555,999.3799009685569,0,,,,N/A
2024-03-17T16:22:39,-0.28175486115,0.23509482044999996,10.0701939121,0.03298672286269283,0.005192354524683131,-0.05726861608106395,-0.01246,0.32886000000000004,-0.5327000000000001,18.5,0,84,32,28,128,26.9637890625,103974,19.122302864005555,999.3799009685569,0,,,,N/A
2024-03-17T16:22:39,-0.21834506225,0.21355941705,9.98345409285,0.04077525464971753,0.011301006906663285,-0.05650503453331642,-0.018340000000000002,0.32354,-0.53046,18.5,0,84,32,28,128,26.9637890625,103974,19.122302864005555,999.3799009685569,0,,,,N/A
2024-03-17T16:22:39,-0.25663022385,0.22971096959999998,10.07916699685,0.03252857393404432,0.009315694882519735,-0.0552833040569204,-0.0119,0.32914000000000004,-0.5297600000000001,18.5,0,84,32,28,128,26.9637890625,103974,19.122302864005555,999.3799009685569,0,,,,N/A
2024-03-17T16:22:39,-0.27457639335,0.23868405434999998,10.054042359550001,0.03741549583962844,0.014508049407202865,-0.05238169417547982,-0.0119,0.32914000000000004,-0.5297600000000001,18.5,0,84,32,28,128,26.9637890625,103974,19.122302864005555,999.3799009685569,0,,,,N/A
2024-03-17T16:22:39,-0.3038884702,0.26261228035,10.092327521149999,0.03512475119638588,0.009621127501618741,-0.0514653963181828,-0.015260000000000001,0.32130000000000003,-0.53312,18.5,0,84,32,28,128,27.090546875,106804,19.072900236189337,999.3912182052258,0,,,,N/A
2024-03-17T16:22:39,-0.35473595045,0.23988046564999999,10.082756230749998,0.04001167310197001,0.011759155835311796,-0.04810563750809371,-0.010780000000000001,0.32186000000000003,-0.54754,18.5,0,84,32,28,128,27.090546875,106804,19.072900236189337,999.3912182052258,0,,,,N/A
2024-03-17T16:22:39,-0.24825534474999997,0.25543381255,10.0163554036,0.03772092845872745,0.010995574287564279,-0.048411070127192715,-0.010780000000000001,0.32186000000000003,-0.54754,18.5,0,84,32,28,128,27.090546875,106804,19.072900236189337,999.3912182052258,0,,,,N/A
2024-03-17T16:22:39,-0.28713871199999996,0.24346969954999997,10.094720343749998,0.038789942625573975,0.009773843811168246,-0.050396382151336266,-0.009100000000000002,0.32326000000000005,-0.52486,18.5,0,84,32,28,128,27.090546875,106804,19.072900236189337,999.3912182052258,0,,,,N/A
2024-03-17T16:22:39,-0.2596212521,0.25184457865,10.110871896299999,0.03237585762449482,0.0070249502392771765,-0.048258353817643214,-0.014980000000000002,0.32466,-0.54068,18.5,0,84,32,28,128,27.090546875,106804,19.072900236189337,999.3912182052258,0,,,,N/A
2024-03-17T16:22:39,-0.28414768374999994,0.22731814699999997,10.030114133549999,0.039706240482871004,0.01145372321621279,-0.049021935365390734,-0.017220000000000003,0.32550000000000007,-0.51268,18.5,0,84,32,28,128,27.090546875,106804,19.072900236189337,999.3912182052258,0,,,,N/A
2024-03-17T16:22:39,-0.27577280465,0.24346969954999997,10.0462656861,0.041386119887915546,0.008399397025222712,-0.04856378643674222,-0.017220000000000003,0.32550000000000007,-0.51268,18.5,0,84,32,28,128,27.090546875,106804,19.072900236189337,999.3912182052258,0,,,,N/A
2024-03-17T16:22:40,-0.32542387359999997,0.24586252214999998,10.08036340815,0.038331793696925465,0.009773843811168246,-0.0476474885794452,-0.010780000000000001,0.32774000000000003,-0.5229000000000001,18.5,0,84,32,28,128,27.201484375,110150,19.02257413553923,999.3910619313866,0,,,,N/A
2024-03-17T16:22:40,-0.2739781877,0.22731814699999997,10.0223374601,0.041386119887915546,0.00473420559603462,-0.050243665841786765,-0.016380000000000002,0.32550000000000007,-0.52458,18.5,0,84,32,28,128,27.201484375,110150,19.02257413553923,999.3910619313866,0,,,,N/A
2024-03-17T16:22:40,-0.30448667585,0.23868405434999998,10.1264252432,0.0433714319120591,0.0033597588100890844,-0.0435241482216086,-0.013300000000000001,0.32634,-0.5275200000000001,18.5,0,84,32,28,128,27.201484375,110150,19.02257413553923,999.3910619313866,0,,,,N/A
2024-03-17T16:22:40,-0.26500510294999996,0.23629123174999997,10.051649536949999,0.040622538340168025,0.0036651914291880926,-0.0433714319120591,-0.01414,0.32662,-0.53508,18.5,0,84,32,28,128,27.201484375,110150,19.02257413553923,999.3910619313866,0,,,,N/A
2024-03-17T16:22:40,-0.2656033086,0.2105683888,10.06839929515,0.04077525464971753,0.0027488935718910697,-0.04276056667386108,-0.01246,0.32858000000000004,-0.5217800000000001,18.5,0,84,32,28,128,27.201484375,110150,19.02257413553923,999.3910619313866,0,,,,N/A
2024-03-17T16:22:40,-0.3038884702,0.24167508259999998,10.1156575415,0.041691552507014555,0.0027488935718910697,-0.04627304179349966,-0.01246,0.32858000000000004,-0.5217800000000001,18.5,0,84,32,28,128,27.201484375,110150,19.02257413553923,999.3910619313866,0,,,,N/A
2024-03-17T16:22:40,-0.2667997199,0.24646072779999997,10.088140081599997,0.04230241774521256,0.0,-0.04566217655530165,-0.020020000000000003,0.32606000000000007,-0.53046,18.5,0,84,32,28,128,27.2981640625,114097,18.992064254272634,999.3962728177225,0,,,,N/A
2024-03-17T16:22:40,-0.2560320182,0.25543381255,10.040283629599998,0.03924809155422249,-0.0022907446432425577,-0.049938233222687756,-0.007980000000000001,0.32634,-0.53284,18.5,0,84,32,28,128,27.2981640625,114097,18.992064254272634,999.3962728177225,0,,,,N/A
2024-03-17T16:22:40,-0.26979074815,0.25543381255,10.0546405652,0.04260785036431157,-0.0006108652381980154,-0.04123340357836604,-0.015540000000000002,0.32522,-0.53088,18.5,0,84,32,28,128,27.2981640625,114097,18.992064254272634,999.3962728177225,0,,,,N/A
2024-03-17T16:22:40,-0.2667997199,0.25124637299999997,10.062417238649997,0.04260785036431157,-0.0015271630954950385,-0.04413501345980661,-0.015540000000000002,0.32522,-0.53088,18.5,0,84,32,28,128,27.2981640625,114097,18.992064254272634,999.3962728177225,0,,,,N/A
2024-03-17T16:22:40,-0.27577280465,0.2644068973,10.0701939121,0.041844268816564056,-0.0015271630954950385,-0.04581489286485116,-0.009100000000000002,0.32634,-0.52822,18.5,0,84,32,28,128,27.2981640625,114097,18.992064254272634,999.3962728177225,0,,,,N/A
2024-03-17T16:22:40,-0.31166514365,0.2584248408,10.051649536949999,0.04260785036431157,0.00015271630954950385,-0.04474587869800463,-0.009100000000000002,0.32438000000000006,-0.5257000000000001,18.5,0,84,32,28,128,27.2981640625,114097,18.992064254272634,999.3962728177225,0,,,,N/A
2024-03-17T16:22:40,-0.2620140747,0.25124637299999997,10.1120683076,0.04260785036431157,0.001069014166846527,-0.04505131131710364,-0.0071400000000000005,0.32746000000000003,-0.51814,18.5,0,84,32,28,128,27.383515625,116139,18.94541070262376,999.4009119552553,0,,,,N/A
2024-03-17T16:22:40,-0.2727817764,0.25663022385,10.050453125649998,0.043982297150257116,-0.0025961772623415654,-0.04230241774521256,-0.007980000000000001,0.32550000000000007,-0.52612,18.5,0,84,32,28,128,27.383515625,116139,18.94541070262376,999.4009119552553,0,,,,N/A
2024-03-17T16:22:40,-0.24885355039999998,0.23030917524999997,10.03250695615,0.03497203488683638,-0.003054326190990077,-0.04077525464971753,-0.00882,0.32018,-0.53186,18.5,0,84,32,28,128,27.383515625,116139,18.94541070262376,999.4009119552553,0,,,,N/A
2024-03-17T16:22:40,-0.28893332894999996,0.24765713909999998,10.066006472549999,0.04092797095926703,-0.0024434609527920616,-0.04276056667386108,-0.00882,0.32466,-0.5370400000000001,18.5,0,84,32,28,128,27.383515625,116139,18.94541070262376,999.4009119552553,0,,,,N/A
2024-03-17T16:22:40,-0.23688943739999999,0.24287149389999999,10.0474620974,0.04092797095926703,-0.0033597588100890844,-0.04413501345980661,-0.018060000000000003,0.32466,-0.5370400000000001,18.5,0,84,32,28,128,27.383515625,116139,18.94541070262376,999.4009119552553,0,,,,N/A
2024-03-17T16:22:40,-0.30687949845,0.25064816735,10.148558852249998,0.039095375244672985,-0.003054326190990077,-0.04535674393620265,-0.01022,0.32802000000000003,-0.5229000000000001,18.5,0,84,32,28,128,27.383515625,116139,18.94541070262376,999.4009119552553,0,,,,N/A
2024-03-17T16:22:40,-0.2644068973,0.24227328824999997,10.0749795573,0.047952921198544204,-0.002138028333693054,-0.04612032548395016,-0.010780000000000001,0.31906,-0.5278,18.5,0,84,32,28,128,27.4614453125,118838,18.893169914545556,999.4059746580183,0,,,,N/A
2024-03-17T16:22:40,-0.25423740125,0.24346969954999997,10.098907783299998,0.040622538340168025,-0.0038179077387375964,-0.0433714319120591,-0.013580000000000002,0.32886000000000004,-0.51912,18.5,0,84,32,28,128,27.4614453125,118838,18.893169914545556,999.4059746580183,0,,,,N/A
2024-03-17T16:22:40,-0.25423740125,0.25902304644999996,10.0594262104,0.04306599929296009,0.0013744467859455349,-0.04214970143566306,-0.013300000000000001,0.32746000000000003,-0.53802,18.5,0,84,32,28,128,27.4614453125,118838,18.893169914545556,999.4059746580183,0,,,,N/A
2024-03-17T16:22:40,-0.27996024419999993,0.23509482044999996,10.0582297991,0.04321871560250959,-0.002138028333693054,-0.04566217655530165,-0.01582,0.32550000000000007,-0.5138,18.5,0,84,32,28,128,27.4614453125,118838,18.893169914545556,999.4059746580183,0,,,,N/A
2024-03-17T16:22:40,-0.30508488149999996,0.22552353004999998,10.0510513313,0.036804630601430424,-0.0054977871437821395,-0.04306599929296009,-0.014420000000000002,0.3241,-0.53368,18.5,0,84,32,28,128,27.4614453125,118838,18.893169914545556,999.4059746580183,0,,,,N/A
2024-03-17T16:22:40,-0.21595223965000002,0.26500510294999996,10.097113166349997,0.03802636107782646,0.0006108652381980154,-0.04306599929296009,-0.014420000000000002,0.3241,-0.53368,18.5,0,84,32,28,128,27.4614453125,118838,18.893169914545556,999.4059746580183,0,,,,N/A
2024-03-17T16:22:40,-0.25423740125,0.25902304644999996,10.140782178799999,0.041691552507014555,0.0013744467859455349,-0.041691552507014555,-0.00462,0.32858000000000004,-0.5268200000000001,18.5,0,84,32,28,128,27.5286328125,120622,18.840314075128894,999.402506099422,0,,,,N/A
2024-03-17T16:22:40,-0.27098715944999996,0.2656033086,10.043274657849999,0.039858956792420505,-0.0024434609527920616,-0.04474587869800463,-0.007700000000000001,0.32158000000000003,-0.51968,18.5,0,84,32,28,128,27.5286328125,120622,18.840314075128894,999.402506099422,0,,,,N/A
2024-03-17T16:22:40,-0.2644068973,0.24825534474999997,10.03131054485,0.041691552507014555,-0.0007635815477475193,-0.041691552507014555,-0.007700000000000001,0.32158000000000003,-0.51968,18.5,0,84,32,28,128,27.5286328125,120622,18.840314075128894,999.402506099422,0,,,,N/A
2024-03-17T16:22:40,-0.28773691765000003,0.26021945775,10.0235338714,0.041691552507014555,-0.0016798794050445422,-0.04306599929296009,-0.010780000000000001,0.32774000000000003,-0.52444,18.5,0,84,32,28,128,27.5286328125,120622,18.840314075128894,999.402506099422,0,,,,N/A
2024-03-17T16:22:40,-0.27457639335,0.23988046564999999,10.052247742599999,0.039400807863771994,-0.0009162978572970231,-0.04673119072214818,-0.017220000000000003,0.32214000000000004,-0.5300400000000001,18.5,0,84,32,28,128,27.5286328125,120622,18.840314075128894,999.402506099422,0,,,,N/A
2024-03-17T16:22:40,-0.28235306679999994,0.21714865095,10.0594262104,0.04153883619746505,0.0,-0.04459316238845512,-0.009100000000000002,0.32830000000000004,-0.53438,18.5,0,84,32,28,128,27.5286328125,120622,18.840314075128894,999.402506099422,0,,,,N/A
2024-03-17T16:22:40,-0.28115665549999996,0.2596212521,10.04566748045,0.04276056667386108,-0.0019853120241435504,-0.04474587869800463,-0.009100000000000002,0.32830000000000004,-0.53438,18.5,0,84,32,28,128,27.589375,123175,18.78709480106642,999.4010609922557,0,,,,N/A
2024-03-17T16:22:40,-0.29611179675,0.25304098994999996,10.088140081599997,0.040317105721069016,-0.0009162978572970231,-0.04230241774521256,-0.015540000000000002,0.32270000000000004,-0.51926,18.5,0,84,32,28,128,27.589375,123175,18.78709480106642,999.4010609922557,0,,,,N/A
2024-03-17T16:22:41,-0.26141586904999997,0.23509482044999996,10.0175518149,0.04077525464971753,-0.0013744467859455349,-0.04489859500755413,-0.01666,0.32746000000000003,-0.5222,18.5,0,84,32,28,128,27.589375,123175,18.78709480106642,999.4010609922557,0,,,,N/A
2024-03-17T16:22:41,-0.27098715944999996,0.25064816735,10.076175968599998,0.0433714319120591,-0.002138028333693054,-0.04444044607890562,-0.013020000000000002,0.33278,-0.53522,18.5,0,84,32,28,128,27.589375,123175,18.78709480106642,999.4010609922557,0,,,,N/A
2024-03-17T16:22:41,-0.3278166962,0.24646072779999997,10.05763159345,0.040622538340168025,-0.0038179077387375964,-0.04550946024575215,-0.010780000000000001,0.31962,-0.52598,18.5,0,84,32,28,128,27.6442578125,125839,18.72323936372371,999.4025961786448,0,,,,N/A
2024-03-17T16:22:41,-0.2835494781,0.23928225999999997,10.0366943957,0.039095375244672985,-0.0027488935718910697,-0.04703662334124718,-0.009100000000000002,0.33614000000000005,-0.52402,18.5,0,84,32,28,128,27.6442578125,125839,18.72323936372371,999.4025961786448,0,,,,N/A
2024-03-17T16:22:41,-0.28713871199999996,0.24765713909999998,10.040283629599998,0.04260785036431157,-0.0015271630954950385,-0.04596760917440065,-0.018060000000000003,0.33614000000000005,-0.5271,18.5,0,84,32,28,128,27.6442578125,125839,18.72323936372371,999.4025961786448,0,,,,N/A
2024-03-17T16:22:41,-0.24765713909999998,0.25782663515,10.09113110985,0.039400807863771994,-0.0018325957145940463,-0.0433714319120591,-0.013300000000000001,0.32242000000000004,-0.5348,18.5,0,84,32,28,128,27.6442578125,125839,18.72323936372371,999.4025961786448,0,,,,N/A
2024-03-17T16:22:41,-0.27696921594999996,0.22911276394999996,10.199406332499999,0.04092797095926703,0.0012217304763960308,-0.0433714319120591,-0.010500000000000002,0.33222,-0.5286400000000001,18.5,0,84,32,28,128,27.6442578125,125839,18.72323936372371,999.4025961786448,0,,,,N/A
2024-03-17T16:22:42,-0.20997018315,0.23270199784999998,10.04925671435,0.041996985126113565,-0.001069014166846527,-0.04505131131710364,-0.0161,0.33082000000000006,-0.51744,18.5,0,84,32,28,128,27.02609375,111533,18.317873046614892,999.4043508273401,0,,,,N/A
2024-03-17T16:22:42,-0.30508488149999996,0.2644068973,10.101898811549999,0.04260785036431157,-0.003054326190990077,-0.04718933965079669,-0.01414,0.32186000000000003,-0.5258400000000001,18.5,0,84,32,28,128,27.02609375,111533,18.317873046614892,999.4043508273401,0,,,,N/A
2024-03-17T16:22:42,-0.2763710103,0.24885355039999998,10.039087218299999,0.04276056667386108,-0.0024434609527920616,-0.04260785036431157,-0.01946,0.32634,-0.51114,18.5,0,84,32,28,128,27.02609375,111533,18.317873046614892,999.4043508273401,0,,,,N/A
2024-03-17T16:22:42,-0.22313070744999997,0.24227328824999997,10.163513993499999,0.04214970143566306,-0.002138028333693054,-0.0433714319120591,-0.010500000000000002,0.32606000000000007,-0.5220600000000001,18.5,0,84,32,28,128,27.02609375,111533,18.317873046614892,999.4043508273401,0,,,,N/A
2024-03-17T16:22:42,-0.24765713909999998,0.27337998204999997,10.0366943957,0.04214970143566306,-0.0024434609527920616,-0.04581489286485116,-0.014700000000000001,0.32326000000000005,-0.5080600000000001,18.5,0,84,32,28,128,27.02609375,111533,18.317873046614892,999.4043508273401,0,,,,N/A
2024-03-17T16:22:43,-0.26919254249999996,0.2608176634,10.0462656861,0.039553524173321496,-0.003207042500539581,-0.04688390703169768,-0.013020000000000002,0.3311,-0.53046,18.5,0,83,31,27,127,26.408515625,106669,18.088842502977567,999.4053539770457,0,,,,N/A
2024-03-17T16:22:43,-0.24526431649999997,0.26500510294999996,10.063015444300001,0.04489859500755413,-0.0013744467859455349,-0.04627304179349966,-0.00602,0.32382000000000005,-0.5205200000000001,18.5,0,83,31,27,127,26.408515625,106669,18.088842502977567,999.4053539770457,0,,,,N/A
2024-03-17T16:22:43,-0.2715853651,0.23988046564999999,10.08155981945,0.0435241482216086,-0.001069014166846527,-0.04856378643674222,-0.018060000000000003,0.32550000000000007,-0.52234,18.5,0,83,31,27,127,26.408515625,106669,18.088842502977567,999.4053539770457,0,,,,N/A
2024-03-17T16:22:43,-0.29850461935,0.2548356069,10.076774174250001,0.038331793696925465,-0.0019853120241435504,-0.039706240482871004,-0.013580000000000002,0.32494000000000006,-0.5230400000000001,18.5,0,83,31,27,127,26.408515625,106669,18.088842502977567,999.4053539770457,0,,,,N/A
2024-03-17T16:22:43,-0.2739781877,0.22731814699999997,10.055238770849998,0.041386119887915546,0.0016798794050445422,-0.04276056667386108,-0.013580000000000002,0.32494000000000006,-0.5230400000000001,18.5,0,83,31,27,127,26.408515625,106669,18.088842502977567,999.4053539770457,0,,,,N/A
2024-03-17T16:22:43,-0.27996024419999993,0.24705893344999996,10.09591675505,0.04276056667386108,-0.002901609881440573,-0.04505131131710364,-0.018340000000000002,0.32746000000000003,-0.5348,18.5,0,83,31,27,127,26.408515625,106669,18.088842502977567,999.4053539770457,0,,,,N/A
2024-03-17T16:22:43,-0.22671994134999998,0.23988046564999999,10.0558369765,0.04688390703169768,-0.0033597588100890844,-0.04413501345980661,-0.0175,0.32438000000000006,-0.5241600000000001,18.5,0,83,31,27,127,25.8966015625,104944,17.94323268141776,999.3965698359157,0,,,,N/A
2024-03-17T16:22:44,-0.2895315346,0.23449661479999998,10.004391290600001,0.04382958084070761,-0.003054326190990077,-0.04382958084070761,-0.01414,0.32102,-0.52234,18.5,0,83,31,27,127,25.7356640625,114718,17.954830056541432,999.3824444204541,0,,,,N/A
2024-03-17T16:22:44,-0.2596212521,0.2177468566,10.0725867347,0.041386119887915546,-0.0012217304763960308,-0.04123340357836604,-0.011340000000000001,0.32382000000000005,-0.5231800000000001,18.5,0,83,31,27,127,25.7356640625,114718,17.954830056541432,999.3824444204541,0,,,,N/A
2024-03-17T16:22:44,-0.26380869165,0.24646072779999997,10.0749795573,0.039400807863771994,-0.0027488935718910697,-0.04489859500755413,-0.017220000000000003,0.32186000000000003,-0.5146400000000001,18.5,0,83,31,27,127,25.7356640625,114718,17.954830056541432,999.3824444204541,0,,,,N/A
2024-03-17T16:22:44,-0.22013967919999997,0.26500510294999996,10.112666513249998,0.04306599929296009,-0.0003054326190990077,-0.04321871560250959,-0.016380000000000002,0.32102,-0.5297600000000001,18.5,0,83,31,27,127,25.7356640625,114718,17.954830056541432,999.3824444204541,0,,,,N/A
2024-03-17T16:22:44,-0.26141586904999997,0.22552353004999998,10.05763159345,0.04428772976935611,0.0006108652381980154,-0.04474587869800463,-0.012740000000000001,0.3325000000000001,-0.51058,18.5,0,83,31,27,127,25.7356640625,114718,17.954830056541432,999.3824444204541,0,,,,N/A
2024-03-17T16:22:45,-0.23389840915,0.24705893344999996,10.111470101950001,0.04153883619746505,0.0009162978572970231,-0.043676864531158106,-0.012180000000000002,0.3269,-0.51926,18.5,0,83,31,27,126,25.4493359375,110801,17.85261260023051,999.3850058498771,0,,,,N/A
2024-03-17T16:22:45,-0.24167508259999998,0.24885355039999998,10.0534441539,0.04535674393620265,-0.0024434609527920616,-0.04673119072214818,-0.012180000000000002,0.32074,-0.52262,18.5,0,83,31,27,126,25.4493359375,110801,17.85261260023051,999.3850058498771,0,,,,N/A
2024-03-17T16:22:45,-0.29252256285,0.2237289131,10.077970585549998,0.040622538340168025,-0.0003054326190990077,-0.04520402762665314,-0.018900000000000004,0.32970000000000005,-0.5124000000000001,18.5,0,83,31,27,126,25.4493359375,110801,17.85261260023051,999.3850058498771,0,,,,N/A
2024-03-17T16:22:45,-0.25124637299999997,0.23509482044999996,10.1132647189,0.04092797095926703,-0.0018325957145940463,-0.0435241482216086,-0.020860000000000004,0.32578,-0.5294800000000001,18.5,0,83,31,27,126,25.4493359375,110801,17.85261260023051,999.3850058498771,0,,,,N/A
2024-03-17T16:22:45,-0.32303105099999996,0.22612173569999997,10.071988529050001,0.04581489286485116,-0.0018325957145940463,-0.04214970143566306,-0.020860000000000004,0.32578,-0.5294800000000001,18.5,0,83,31,27,126,25.4493359375,110801,17.85261260023051,999.3850058498771,0,,,,N/A
2024-03-17T16:22:46,-0.29850461935,0.23150558654999998,9.966106128999998,0.043982297150257116,-0.0009162978572970231,-0.04612032548395016,-0.016380000000000002,0.32606000000000007,-0.5289200000000001,18.5,0,82,31,27,126,25.168671875,108871,17.77128057357534,999.3839617285574,0,,,,N/A
2024-03-17T16:22:46,-0.2883351233,0.23629123174999997,10.0594262104,0.041996985126113565,-0.005803219762881146,-0.04612032548395016,-0.01946,0.32746000000000003,-0.5217800000000001,18.5,0,82,31,27,126,25.168671875,108871,17.77128057357534,999.3839617285574,0,,,,N/A
2024-03-17T16:22:46,-0.31405796625,0.23330020349999997,10.0175518149,0.039858956792420505,0.0003054326190990077,-0.041691552507014555,-0.0035000000000000005,0.32830000000000004,-0.525,18.5,0,82,31,27,126,25.168671875,108871,17.77128057357534,999.3839617285574,0,,,,N/A
2024-03-17T16:22:46,-0.29312076849999996,0.25184457865,10.106086251099997,0.04245513405476207,-0.0022907446432425577,-0.04673119072214818,-0.01778,0.32326000000000005,-0.5243000000000001,18.5,0,82,31,27,126,25.168671875,108871,17.77128057357534,999.3839617285574,0,,,,N/A
2024-03-17T16:22:46,-0.25722842949999997,0.22671994134999998,10.09950598895,0.04642575810304917,-0.0007635815477475193,-0.04596760917440065,-0.01778,0.32326000000000005,-0.5243000000000001,18.5,0,82,31,27,126,25.168671875,108871,17.77128057357534,999.3839617285574,0,,,,N/A
2024-03-17T16:22:47,-0.27218357075,0.25663022385,10.109675485,0.04245513405476207,0.001069014166846527,-0.04428772976935611,-0.008260000000000002,0.33054,-0.5201,18.5,0,82,31,27,126,24.9380078125,107279,17.713127238200002,999.3892588402372,0,,,,N/A
2024-03-17T16:22:47,-0.3176472001499999,0.2500499617,10.1001041946,0.04245513405476207,-0.0018325957145940463,-0.04459316238845512,-0.013300000000000001,0.33054,-0.5205200000000001,18.5,0,82,31,27,126,24.9380078125,107279,17.713127238200002,999.3892588402372,0,,,,N/A
2024-03-17T16:22:47,-0.28175486115,0.25304098994999996,10.080961613799998,0.04245513405476207,-0.0013744467859455349,-0.04276056667386108,-0.006860000000000001,0.32830000000000004,-0.5209400000000001,18.5,0,82,31,27,126,24.9380078125,107279,17.713127238200002,999.3892588402372,0,,,,N/A
2024-03-17T16:22:47,-0.32662028489999995,0.22851455829999998,10.06720288385,0.04276056667386108,-0.0019853120241435504,-0.04123340357836604,-0.014980000000000002,0.32914000000000004,-0.51674,18.5,0,82,31,27,126,24.9380078125,107279,17.713127238200002,999.3892588402372,0,,,,N/A
2024-03-17T16:22:47,-0.23868405434999998,0.21834506225,9.993025383249998,0.039706240482871004,-0.00045814892864851157,-0.04627304179349966,-0.014980000000000002,0.32914000000000004,-0.51674,18.5,0,82,31,27,126,24.9380078125,107279,17.713127238200002,999.3892588402372,0,,,,N/A
2024-03-17T16:22:48,-0.26919254249999996,0.23808584869999996,10.060622621699999,0.04627304179349966,-0.0007635815477475193,-0.04505131131710364,-0.01414,0.32158000000000003,-0.52136,18.5,0,83,31,27,126,24.756953125,107553,17.69326073968574,999.3915149865428,0,,,,N/A
2024-03-17T16:22:48,-0.25124637299999997,0.23928225999999997,10.105488045449999,0.04535674393620265,-0.0056505034533316425,-0.043982297150257116,-0.02338,0.33502000000000004,-0.52108,18.5,0,83,31,27,126,24.756953125,107553,17.69326073968574,999.3915149865428,0,,,,N/A
2024-03-17T16:22:48,-0.28534409504999997,0.23449661479999998,10.088738287249999,0.04306599929296009,0.0027488935718910697,-0.04642575810304917,-0.015260000000000001,0.31794000000000006,-0.5313000000000001,18.5,0,83,31,27,126,24.756953125,107553,17.69326073968574,999.3915149865428,0,,,,N/A
2024-03-17T16:22:48,-0.2656033086,0.24167508259999998,10.071988529050001,0.043676864531158106,0.0006108652381980154,-0.04673119072214818,-0.015260000000000001,0.31794000000000006,-0.5313000000000001,18.5,0,83,31,27,126,24.756953125,107553,17.69326073968574,999.3915149865428,0,,,,N/A
2024-03-17T16:22:48,-0.27517459899999996,0.2548356069,10.04447106915,0.04474587869800463,-0.00015271630954950385,-0.04948008429403925,-0.01946,0.33278,-0.5209400000000001,18.5,0,83,31,27,126,24.756953125,107553,17.69326073968574,999.3915149865428,0,,,,N/A
2024-03-17T16:22:48,-0.29132615154999997,0.24526431649999997,10.11864856975,0.038942658935123484,-0.0003054326190990077,-0.04459316238845512,-0.013580000000000002,0.33166,-0.52836,18.5,0,83,31,27,126,24.756953125,107553,17.69326073968574,999.3915149865428,0,,,,N/A
2024-03-17T16:22:48,-0.29910282499999996,0.23569302609999998,10.03131054485,0.04123340357836604,0.003054326190990077,-0.041691552507014555,-0.01694,0.32634,-0.5188400000000001,18.5,0,83,31,27,126,24.615546875,106939,17.67046832038294,999.3852977458242,0,,,,N/A
2024-03-17T16:22:49,-0.2787638329,0.26500510294999996,10.1264252432,0.039400807863771994,0.0009162978572970231,-0.0435241482216086,-0.013580000000000002,0.32382000000000005,-0.51688,18.5,0,83,31,27,127,24.73625,117350,17.70230482714685,999.3702477580621,0,,,,N/A
2024-03-17T16:22:49,-0.27816562724999994,0.24885355039999998,10.039685423949999,0.04444044607890562,-0.0003054326190990077,-0.041691552507014555,-0.011340000000000001,0.33194000000000007,-0.5107200000000001,18.5,0,83,31,27,127,24.73625,117350,17.70230482714685,999.3702477580621,0,,,,N/A
2024-03-17T16:22:49,-0.26380869165,0.26380869165,10.0821580251,0.04291328298341058,-0.0038179077387375964,-0.04489859500755413,-0.014420000000000002,0.33362,-0.5112800000000001,18.5,0,83,31,27,127,24.73625,117350,17.70230482714685,999.3702477580621,0,,,,N/A
2024-03-17T16:22:49,-0.34097722049999996,0.23449661479999998,10.1084790737,0.04276056667386108,0.00015271630954950385,-0.043982297150257116,-0.014420000000000002,0.33362,-0.5112800000000001,18.5,0,83,31,27,127,24.73625,117350,17.70230482714685,999.3702477580621,0,,,,N/A
2024-03-17T16:22:49,-0.29730820804999997,0.27996024419999993,10.1084790737,0.04566217655530165,0.00045814892864851157,-0.0433714319120591,-0.02198,0.33586,-0.5021800000000001,18.5,0,83,31,27,127,24.73625,117350,17.70230482714685,999.3702477580621,0,,,,N/A
2024-03-17T16:22:50,-0.24825534474999997,0.24765713909999998,10.082756230749998,0.039400807863771994,0.0006108652381980154,-0.039706240482871004,-0.01666,0.33138000000000006,-0.53634,18.5,0,84,32,28,128,24.67609375,113713,17.658482164163832,999.378988954589,0,,,,N/A
2024-03-17T16:22:50,-0.23988046564999999,0.23569302609999998,9.9744810081,0.04046982203061852,-0.0012217304763960308,-0.04245513405476207,-0.009940000000000001,0.3269,-0.5145,18.5,0,84,32,28,128,24.67609375,113713,17.658482164163832,999.378988954589,0,,,,N/A
2024-03-17T16:22:50,-0.29491538544999996,0.25184457865,10.230513026299999,0.040317105721069016,-0.0013744467859455349,-0.04550946024575215,-0.009940000000000001,0.3269,-0.5145,18.5,0,84,32,28,128,24.67609375,113713,17.658482164163832,999.378988954589,0,,,,N/A
2024-03-17T16:22:50,-0.2548356069,0.25184457865,10.100702400249999,0.04474587869800463,0.0013744467859455349,-0.04596760917440065,-0.011620000000000002,0.33390000000000003,-0.51744,18.5,0,84,32,28,128,24.67609375,113713,17.658482164163832,999.378988954589,0,,,,N/A
2024-03-17T16:22:50,-0.37686955949999995,0.25124637299999997,10.0905329042,0.04245513405476207,-0.0024434609527920616,-0.04092797095926703,-0.018340000000000002,0.33026000000000005,-0.5184200000000001,18.5,0,84,32,28,128,24.67609375,113713,17.658482164163832,999.378988954589,0,,,,N/A
2024-03-17T16:22:51,-0.2775674216,0.25304098994999996,10.066006472549999,0.04001167310197001,-0.0016798794050445422,-0.04459316238845512,-0.018340000000000002,0.33222,-0.52248,18.5,0,84,32,28,128,24.57140625,111386,17.612315837716583,999.3720800478336,0,,,,N/A
2024-03-17T16:22:51,-0.32243284534999994,0.25124637299999997,10.179067340399998,0.04153883619746505,0.0018325957145940463,-0.04428772976935611,-0.019180000000000003,0.3330600000000001,-0.5215,18.5,0,84,32,28,128,24.57140625,111386,17.612315837716583,999.3720800478336,0,,,,N/A
2024-03-17T16:22:51,-0.30508488149999996,0.23868405434999998,10.08036340815,0.0435241482216086,-0.004581489286485115,-0.04505131131710364,-0.019180000000000003,0.3330600000000001,-0.5215,18.5,0,84,32,28,128,24.57140625,111386,17.612315837716583,999.3720800478336,0,,,,N/A
2024-03-17T16:22:51,-0.35832518435,0.22851455829999998,10.01456078665,0.039553524173321496,-0.0024434609527920616,-0.041386119887915546,-0.01386,0.32522,-0.5206600000000001,18.5,0,84,32,28,128,24.57140625,111386,17.612315837716583,999.3720800478336,0,,,,N/A
2024-03-17T16:22:51,-0.2715853651,0.26500510294999996,10.12941627145,0.038484510006474966,0.0016798794050445422,-0.04306599929296009,-0.011340000000000001,0.3325000000000001,-0.52458,18.5,0,84,32,28,128,24.57140625,111386,17.612315837716583,999.3720800478336,0,,,,N/A
2024-03-17T16:22:52,-0.23748764304999997,0.21834506225,9.978070242,0.04520402762665314,-0.0003054326190990077,-0.04474587869800463,-0.02142,0.31962,-0.5206600000000001,18.5,0,85,32,28,130,24.4815625,110294,17.5821857935791,999.367971434559,0,,,,N/A
2024-03-17T16:22:52,-0.25423740125,0.24646072779999997,10.1048898398,0.041996985126113565,-0.002138028333693054,-0.04489859500755413,-0.012740000000000001,0.32942,-0.5194000000000001,18.5,0,85,32,28,130,24.4815625,110294,17.5821857935791,999.367971434559,0,,,,N/A
2024-03-17T16:22:52,-0.2620140747,0.23449661479999998,10.09830957765,0.041691552507014555,0.00045814892864851157,-0.04153883619746505,-0.012740000000000001,0.32942,-0.5194000000000001,18.5,0,85,32,28,130,24.4815625,110294,17.5821857935791,999.367971434559,0,,,,N/A
2024-03-17T16:22:52,-0.32422746229999994,0.23629123174999997,10.13300550535,0.04382958084070761,-0.002138028333693054,-0.04627304179349966,-0.014420000000000002,0.32494000000000006,-0.52556,18.5,0,85,32,28,130,24.4815625,110294,17.5821857935791,999.367971434559,0,,,,N/A
2024-03-17T16:22:52,-0.16869399329999998,0.2608176634,10.07916699685,0.041691552507014555,-0.003054326190990077,-0.04291328298341058,-0.019180000000000003,0.33586,-0.52458,18.5,0,85,32,28,130,24.4815625,110294,17.5821857935791,999.367971434559,0,,,,N/A
2024-03-17T16:22:53,-0.27337998204999997,0.2309073809,10.112666513249998,0.04550946024575215,-0.002138028333693054,-0.0476474885794452,-0.009940000000000001,0.32830000000000004,-0.5215,18.5,0,85,33,28,130,24.4087109375,110222,17.568179839223447,999.3630684573287,0,,,,N/A
2024-03-17T16:22:53,-0.25423740125,0.24526431649999997,10.05643518215,0.0433714319120591,-0.0006108652381980154,-0.04688390703169768,-0.01414,0.33446000000000004,-0.52724,18.5,0,85,33,28,130,24.4087109375,110222,17.568179839223447,999.3630684573287,0,,,,N/A
2024-03-17T16:22:53,-0.28055844984999995,0.23150558654999998,10.0929257268,0.04444044607890562,-0.0068722339297276735,-0.04245513405476207,-0.01414,0.33446000000000004,-0.52724,18.5,0,85,33,28,130,24.4087109375,110222,17.568179839223447,999.3630684573287,0,,,,N/A
2024-03-17T16:22:53,-0.30508488149999996,0.23449661479999998,10.083354436399997,0.041691552507014555,-0.0035124751196385882,-0.04291328298341058,-0.009940000000000001,0.33222,-0.5136600000000001,18.5,0,85,33,28,130,24.4087109375,110222,17.568179839223447,999.3630684573287,0,,,,N/A
2024-03-17T16:22:53,-0.2536391956,0.21954147355,10.0414800409,0.04214970143566306,0.00045814892864851157,-0.0476474885794452,-0.01666,0.32158000000000003,-0.5257000000000001,18.5,0,85,33,28,130,24.4087109375,110222,17.568179839223447,999.3630684573287,0,,,,N/A
2024-03-17T16:22:53,-0.28654050634999995,0.24945175605,10.08395264205,0.038331793696925465,0.0007635815477475193,-0.041691552507014555,-0.01666,0.32158000000000003,-0.5257000000000001,18.5,0,85,33,28,130,24.4087109375,110222,17.568179839223447,999.3630684573287,0,,,,N/A
2024-03-17T16:22:53,-0.23988046564999999,0.25304098994999996,9.976873830699999,0.04413501345980661,-0.0006108652381980154,-0.040317105721069016,-0.018340000000000002,0.32830000000000004,-0.5279400000000001,18.5,0,85,33,28,130,24.3516796875,109935,17.555020571366306,999.3608111367477,0,,,,N/A
2024-03-17T16:22:54,-0.28654050634999995,0.25184457865,10.048658508699999,0.040317105721069016,-0.0024434609527920616,-0.04321871560250959,-0.013020000000000002,0.32270000000000004,-0.52192,18.5,0,86,33,28,131,24.535078125,120107,17.6002403594633,999.3502441315916,0,,,,N/A
2024-03-17T16:22:54,-0.26321048599999997,0.2560320182,10.1084790737,0.04444044607890562,0.0007635815477475193,-0.04535674393620265,-0.011620000000000002,0.33418000000000003,-0.5205200000000001,18.5,0,86,33,28,131,24.535078125,120107,17.6002403594633,999.3502441315916,0,,,,N/A
2024-03-17T16:22:54,-0.33020951879999993,0.21894326790000002,10.012766169699999,0.041691552507014555,-0.004276056667386108,-0.04657847441259867,-0.005180000000000001,0.33558000000000004,-0.53088,18.5,0,86,33,28,131,24.535078125,120107,17.6002403594633,999.3502441315916,0,,,,N/A
2024-03-17T16:22:54,-0.20458633229999998,0.2524427843,10.062417238649997,0.04382958084070761,0.0009162978572970231,-0.04627304179349966,-0.012740000000000001,0.32998,-0.5161800000000001,18.5,0,86,33,28,131,24.535078125,120107,17.6002403594633,999.3502441315916,0,,,,N/A
2024-03-17T16:22:54,-0.20518453794999997,0.30687949845,10.17248707825,0.0435241482216086,-0.0013744467859455349,-0.04123340357836604,-0.009940000000000001,0.32046,-0.52962,18.5,0,86,33,28,131,24.535078125,120107,17.6002403594633,999.3502441315916,0,,,,N/A
2024-03-17T16:22:55,-0.34815568830000004,0.24466611084999998,10.06361364995,0.041996985126113565,0.0019853120241435504,-0.04260785036431157,-0.013300000000000001,0.33166,-0.52514,18.5,0,86,33,29,132,24.52375,116621,17.554017748286615,999.3549064858797,0,,,,N/A
2024-03-17T16:22:55,-0.29252256285,0.25423740125,10.118050364099998,0.04428772976935611,-0.0007635815477475193,-0.0433714319120591,-0.006580000000000001,0.3353,-0.5138,18.5,0,86,33,29,132,24.52375,116621,17.554017748286615,999.3549064858797,0,,,,N/A
2024-03-17T16:22:55,-0.29491538544999996,0.21954147355,10.087541875949999,0.0435241482216086,0.038331793696925465,-0.04092797095926703,-0.01246,0.32858000000000004,-0.51968,18.5,0,86,33,29,132,24.52375,116621,17.554017748286615,999.3549064858797,0,,,,N/A
2024-03-17T16:22:55,-0.2596212521,0.26141586904999997,10.083354436399997,0.04520402762665314,-0.0006108652381980154,-0.04718933965079669,-0.01666,0.33166,-0.5114200000000001,18.5,0,86,33,29,132,24.52375,116621,17.554017748286615,999.3549064858797,0,,,,N/A
2024-03-17T16:22:55,-0.28534409504999997,0.2608176634,10.153344497449998,0.04413501345980661,0.037110063220529434,-0.041996985126113565,-0.018060000000000003,0.33642,-0.5069400000000001,18.5,0,86,33,29,132,24.52375,116621,17.554017748286615,999.3549064858797,0,,,,N/A
2024-03-17T16:22:56,-0.28175486115,0.24825534474999997,10.085149053349998,0.04046982203061852,-0.0025961772623415654,-0.04612032548395016,-0.016380000000000002,0.33334,-0.52444,18.5,0,86,33,29,132,24.4579296875,114097,17.52012617661648,999.3525836534686,0,,,,N/A
2024-03-17T16:22:56,-0.28474588939999995,0.2644068973,10.0749795573,0.04489859500755413,0.003207042500539581,-0.0474947722698957,-0.019180000000000003,0.31906,-0.51898,18.5,0,86,33,29,132,24.4579296875,114097,17.52012617661648,999.3525836534686,0,,,,N/A
2024-03-17T16:22:56,-0.26979074815,0.26500510294999996,10.1132647189,0.040622538340168025,-0.0009162978572970231,-0.04474587869800463,-0.01862,0.33166,-0.5152,18.5,0,86,33,29,132,24.4579296875,114097,17.52012617661648,999.3525836534686,0,,,,N/A
2024-03-17T16:22:56,-0.27696921594999996,0.22612173569999997,10.0510513313,0.039095375244672985,0.002901609881440573,-0.04276056667386108,-0.013580000000000002,0.33278,-0.5217800000000001,18.5,0,86,33,29,132,24.4579296875,114097,17.52012617661648,999.3525836534686,0,,,,N/A
2024-03-17T16:22:56,-0.27337998204999997,0.26739792554999997,10.10668445675,0.04566217655530165,-0.0003054326190990077,-0.040622538340168025,-0.013580000000000002,0.33278,-0.5217800000000001,18.5,0,86,33,29,132,24.4579296875,114097,17.52012617661648,999.3525836534686,0,,,,N/A
2024-03-17T16:22:57,-0.28594230069999993,0.23808584869999996,10.0462656861,0.039553524173321496,-0.0019853120241435504,-0.04413501345980661,-0.020020000000000003,0.32886000000000004,-0.5265400000000001,18.5,0,85,33,28,131,24.3958203125,113331,17.496579256793332,999.3580661935051,0,,,,N/A
2024-03-17T16:22:57,-0.29850461935,0.23928225999999997,10.04985492,0.03802636107782646,-0.001069014166846527,-0.04260785036431157,-0.01022,0.33138000000000006,-0.51856,18.5,0,85,33,28,131,24.3958203125,113331,17.496579256793332,999.3580661935051,0,,,,N/A
2024-03-17T16:22:57,-0.31645078885,0.21834506225,10.06720288385,0.04260785036431157,0.00045814892864851157,-0.04306599929296009,-0.01694,0.3325000000000001,-0.52332,18.5,0,85,33,28,131,24.3958203125,113331,17.496579256793332,999.3580661935051,0,,,,N/A
2024-03-17T16:22:57,-0.26141586904999997,0.27218357075,10.079765202499999,0.040317105721069016,0.0003054326190990077,-0.04428772976935611,-0.011620000000000002,0.33222,-0.5209400000000001,18.5,0,85,33,28,131,24.3958203125,113331,17.496579256793332,999.3580661935051,0,,,,N/A
2024-03-17T16:22:57,-0.23449661479999998,0.29491538544999996,10.103693428499998,0.038331793696925465,0.00045814892864851157,-0.04245513405476207,-0.011620000000000002,0.32718,-0.5206600000000001,18.5,0,85,33,28,131,24.3958203125,113331,17.496579256793332,999.3580661935051,0,,,,N/A
2024-03-17T16:22:58,-0.34755748264999997,0.21714865095,10.078568791199999,0.038942658935123484,-0.002138028333693054,-0.04657847441259867,-0.01974,0.32018,-0.52486,18.5,0,84,32,28,130,24.3438671875,112275,17.48370613922787,999.3516367486591,0,,,,N/A
2024-03-17T16:22:58,-0.26739792554999997,0.25064816735,10.097113166349997,0.039400807863771994,0.00045814892864851157,-0.04428772976935611,-0.014700000000000001,0.32438000000000006,-0.5335400000000001,18.5,0,84,32,28,130,24.3438671875,112275,17.48370613922787,999.3516367486591,0,,,,N/A
2024-03-17T16:22:58,-0.28474588939999995,0.25902304644999996,10.091729315499999,0.04046982203061852,0.0,-0.04474587869800463,-0.014980000000000002,0.32606000000000007,-0.52374,18.5,0,84,32,28,130,24.3438671875,112275,17.48370613922787,999.3516367486591,0,,,,N/A
2024-03-17T16:22:58,-0.29312076849999996,0.22552353004999998,10.182656574299997,0.04092797095926703,-0.0016798794050445422,-0.04214970143566306,-0.018340000000000002,0.33334,-0.5278,18.5,0,84,32,28,130,24.3438671875,112275,17.48370613922787,999.3516367486591,0,,,,N/A
2024-03-17T16:22:58,-0.30807590975,0.2237289131,10.0558369765,0.04260785036431157,-0.0007635815477475193,-0.04291328298341058,-0.018340000000000002,0.33334,-0.5278,18.5,0,84,32,28,130,24.3438671875,112275,17.48370613922787,999.3516367486591,0,,,,N/A
2024-03-17T16:22:58,-0.20458633229999998,0.21954147355,10.007382318849999,0.04016438941151951,-0.0012217304763960308,-0.04382958084070761,-0.01246,0.3330600000000001,-0.52598,18.5,0,84,32,28,130,24.3438671875,112275,17.48370613922787,999.3516367486591,0,,,,N/A
2024-03-17T16:22:58,-0.24765713909999998,0.2524427843,10.061819032999999,0.04321871560250959,-0.0015271630954950385,-0.04886921905584123,-0.01106,0.33054,-0.5349400000000001,18.5,0,84,32,28,130,24.3034375,112201,17.48157042270112,999.3568635697917,0,,,,N/A
2024-03-17T16:22:59,-0.29970103065,0.21714865095,10.073783145999998,0.043676864531158106,-0.0035124751196385882,-0.04474587869800463,-0.01246,0.33222,-0.5278,18.5,0,84,32,28,129,24.49953125,122106,17.53246357814953,999.3456805034507,0,,,,N/A
2024-03-17T16:22:59,-0.29491538544999996,0.24765713909999998,10.021141048799999,0.039553524173321496,-0.0003054326190990077,-0.04612032548395016,-0.009100000000000002,0.32774000000000003,-0.5262600000000001,18.5,0,83,32,28,128,24.49953125,122106,17.53246357814953,999.3456805034507,0,,,,N/A
2024-03-17T16:22:59,-0.2105683888,0.28474588939999995,10.164710404799997,0.04001167310197001,-0.002901609881440573,-0.04413501345980661,-0.01582,0.32942,-0.5182800000000001,18.5,0,83,32,28,128,24.49953125,122106,17.53246357814953,999.3456805034507,0,,,,N/A
2024-03-17T16:22:59,-0.29132615154999997,0.2715853651,10.0187482262,0.04153883619746505,-0.0016798794050445422,-0.04230241774521256,-0.004900000000000001,0.32578,-0.52234,18.5,0,83,32,28,128,24.49953125,122106,17.53246357814953,999.3456805034507,0,,,,N/A
2024-03-17T16:22:59,-0.31226334929999994,0.22073788485,10.0582297991,0.04596760917440065,-0.003054326190990077,-0.04321871560250959,-0.004900000000000001,0.32578,-0.52234,18.5,0,83,32,28,128,24.49953125,122106,17.53246357814953,999.3456805034507,0,,,,N/A
2024-03-17T16:23:00,-0.23569302609999998,0.24945175605,10.0414800409,0.04459316238845512,0.0,-0.041386119887915546,-0.006300000000000001,0.33222,-0.5125400000000001,18.5,0,83,32,27,128,24.4985546875,119427,17.491885805329847,999.3583144396799,0,,,,N/A
2024-03-17T16:23:00,-0.31944181709999997,0.24346969954999997,10.0654082669,0.039400807863771994,-0.0015271630954950385,-0.04413501345980661,-0.013020000000000002,0.32606000000000007,-0.5171600000000001,18.5,0,83,32,27,128,24.4985546875,119427,17.491885805329847,999.3583144396799,0,,,,N/A
2024-03-17T16:23:00,-0.26021945775,0.23389840915,10.0474620974,0.041691552507014555,0.0009162978572970231,-0.04535674393620265,-0.02114,0.33026000000000005,-0.5208,18.5,0,83,32,27,128,24.4985546875,119427,17.491885805329847,999.3583144396799,0,,,,N/A
2024-03-17T16:23:00,-0.20458633229999998,0.25722842949999997,10.063015444300001,0.03695734691097993,-0.0006108652381980154,-0.04550946024575215,-0.02114,0.3199,-0.5301800000000001,18.5,0,83,32,27,128,24.4985546875,119427,17.491885805329847,999.3583144396799,0,,,,N/A
2024-03-17T16:23:00,-0.15852449724999998,0.24287149389999999,10.119844981049999,0.040317105721069016,-0.0044287729769356115,-0.04123340357836604,-0.020020000000000003,0.3199,-0.5301800000000001,19.5,0,83,32,27,128,24.4985546875,119427,17.491885805329847,999.3583144396799,0,,,,N/A
2024-03-17T16:23:01,-0.2883351233,0.2967100024,10.034301573099999,0.039095375244672985,-0.003054326190990077,-0.041844268816564056,-0.01946,0.3330600000000001,-0.53088,18.5,0,83,32,27,128,24.438984375,116701,17.473543106061392,999.359055021233,0,,,,N/A
2024-03-17T16:23:01,-0.3415754261499999,0.19262221929999998,10.0366943957,0.04092797095926703,-0.003207042500539581,-0.043982297150257116,-0.013300000000000001,0.32270000000000004,-0.525,18.5,0,83,32,27,128,24.438984375,116701,17.473543106061392,999.359055021233,0,,,,N/A
2024-03-17T16:23:01,-0.28235306679999994,0.22671994134999998,10.030114133549999,0.041080687268816536,-0.002138028333693054,-0.04428772976935611,-0.01694,0.3381,-0.52332,18.5,0,83,32,27,128,24.438984375,116701,17.473543106061392,999.359055021233,0,,,,N/A
2024-03-17T16:23:01,-0.22971096959999998,0.28175486115,10.068997500799998,0.04306599929296009,-0.0019853120241435504,-0.04566217655530165,-0.01694,0.3381,-0.52332,18.5,0,83,32,27,128,24.438984375,116701,17.473543106061392,999.359055021233,0,,,,N/A
2024-03-17T16:23:01,-0.20578274359999998,0.26261228035,10.159924759599997,0.04428772976935611,0.0003054326190990077,-0.04566217655530165,-0.01946,0.32494000000000006,-0.5279400000000001,18.5,0,83,32,27,128,24.438984375,116701,17.473543106061392,999.359055021233,0,,,,N/A
2024-03-17T16:23:02,-0.24227328824999997,0.24705893344999996,10.225727381099997,0.0433714319120591,-0.00045814892864851157,-0.04489859500755413,-0.013020000000000002,0.32522,-0.53046,18.5,0,84,32,28,129,24.3825390625,114640,17.445250670248655,999.3684270477949,0,,,,N/A
2024-03-17T16:23:02,-0.2727817764,0.24765713909999998,10.0666046782,0.04245513405476207,-0.0035124751196385882,-0.04535674393620265,-0.01666,0.32494000000000006,-0.5117,18.5,0,84,32,28,129,24.3825390625,114640,17.445250670248655,999.3684270477949,0,,,,N/A
2024-03-17T16:23:02,-0.24885355039999998,0.2608176634,10.077970585549998,0.07712173632249944,-0.0018325957145940463,-0.04688390703169768,-0.01666,0.32494000000000006,-0.5117,18.5,0,84,32,28,129,24.3825390625,114640,17.445250670248655,999.3684270477949,0,,,,N/A
2024-03-17T16:23:02,-0.2165504453,0.2584248408,10.1001041946,0.038179077387375956,0.0006108652381980154,-0.04092797095926703,-0.015540000000000002,0.32186000000000003,-0.5292,18.5,0,84,32,28,129,24.3825390625,114640,17.445250670248655,999.3684270477949,0,,,,N/A
2024-03-17T16:23:02,-0.27996024419999993,0.24047867129999997,10.06839929515,0.04505131131710364,-0.002138028333693054,-0.04306599929296009,-0.0119,0.32746000000000003,-0.5254200000000001,18.5,0,84,32,28,129,24.3825390625,114640,17.445250670248655,999.3684270477949,0,,,,N/A
2024-03-17T16:23:03,-0.19860427579999998,0.23210379219999996,10.060622621699999,0.04489859500755413,-0.0033597588100890844,-0.04703662334124718,-0.0071400000000000005,0.32214000000000004,-0.53284,18.5,0,84,32,28,130,24.3368359375,114640,17.45296269719742,999.3704002794068,0,,,,N/A
2024-03-17T16:23:03,-0.29371897415,0.23928225999999997,10.09591675505,0.04520402762665314,-0.0009162978572970231,-0.041691552507014555,-0.014420000000000002,0.33390000000000003,-0.50316,18.5,0,84,32,28,130,24.3368359375,114640,17.45296269719742,999.3704002794068,0,,,,N/A
2024-03-17T16:23:03,-0.28713871199999996,0.23270199784999998,10.106086251099997,0.04077525464971753,0.00015271630954950385,-0.043982297150257116,-0.014420000000000002,0.33390000000000003,-0.50316,18.5,0,84,32,28,130,24.3368359375,114640,17.45296269719742,999.3704002794068,0,,,,N/A
2024-03-17T16:23:03,-0.27936203854999997,0.23629123174999997,10.07916699685,0.039553524173321496,0.0,-0.04612032548395016,-0.008260000000000002,0.32662,-0.5161800000000001,18.5,0,84,32,28,130,24.3368359375,114640,17.45296269719742,999.3704002794068,0,,,,N/A
2024-03-17T16:23:03,-0.26321048599999997,0.25423740125,10.0893364929,0.043982297150257116,-0.00473420559603462,-0.04306599929296009,-0.0119,0.33418000000000003,-0.5049800000000001,18.5,0,84,32,28,130,24.3368359375,114640,17.45296269719742,999.3704002794068,0,,,,N/A
2024-03-17T16:23:03,-0.20877377184999998,0.26979074815,10.062417238649997,0.041996985126113565,-0.0007635815477475193,-0.04214970143566306,-0.0119,0.33418000000000003,-0.5049800000000001,18.5,0,84,32,28,130,24.3368359375,114640,17.45296269719742,999.3704002794068,0,,,,N/A
2024-03-17T16:23:03,-0.2835494781,0.23748764304999997,10.078568791199999,0.04230241774521256,0.0007635815477475193,-0.04428772976935611,-0.01386,0.32858000000000004,-0.52024,18.5,0,84,32,28,130,24.30109375,114562,17.46626113703224,999.3779303973894,0,,,,N/A
2024-03-17T16:23:04,-0.2105683888,0.2763710103,10.100702400249999,0.04046982203061852,-0.0033597588100890844,-0.04444044607890562,-0.011340000000000001,0.32046,-0.5355,18.5,0,85,33,28,131,24.49953125,124631,17.51726463795543,999.3527929412755,0,,,,N/A
2024-03-17T16:23:04,-0.26141586904999997,0.21595223965000002,10.097711372000001,0.04718933965079669,-0.00015271630954950385,-0.043676864531158106,-0.011340000000000001,0.32046,-0.5355,18.5,0,85,33,28,131,24.49953125,124631,17.51726463795543,999.3527929412755,0,,,,N/A
2024-03-17T16:23:04,-0.2955135911,0.26021945775,10.0725867347,0.04276056667386108,-0.0012217304763960308,-0.04245513405476207,-0.014980000000000002,0.33082000000000006,-0.51898,18.5,0,85,33,28,131,24.49953125,124631,17.51726463795543,999.3527929412755,0,,,,N/A
2024-03-17T16:23:04,-0.2656033086,0.24047867129999997,10.0510513313,0.04153883619746505,-0.0006108652381980154,-0.041386119887915546,-0.00266,0.32746000000000003,-0.518,18.5,0,85,33,28,131,24.49953125,124631,17.51726463795543,999.3527929412755,0,,,,N/A
2024-03-17T16:23:04,-0.24586252214999998,0.2560320182,10.080961613799998,0.041386119887915546,-0.002901609881440573,-0.0435241482216086,-0.018900000000000004,0.33166,-0.52234,18.5,0,85,33,28,131,24.49953125,124631,17.51726463795543,999.3527929412755,0,,,,N/A
2024-03-17T16:23:05,-0.29730820804999997,0.22911276394999996,10.030114133549999,0.04245513405476207,0.0012217304763960308,-0.04382958084070761,0.0007000000000000001,0.32914000000000004,-0.5345200000000001,18.5,0,85,33,28,131,24.49953125,121403,17.4919374860707,999.365239711088,0,,,,N/A
2024-03-17T16:23:05,-0.33738798659999997,0.23509482044999996,10.100702400249999,0.04092797095926703,-0.0025961772623415654,-0.04505131131710364,-0.012180000000000002,0.32354,-0.52402,18.5,0,85,33,28,131,24.49953125,121403,17.4919374860707,999.365239711088,0,,,,N/A
2024-03-17T16:23:05,-0.2787638329,0.24227328824999997,10.09591675505,0.041080687268816536,-0.004276056667386108,-0.04382958084070761,-0.009100000000000002,0.33054,-0.51912,18.5,0,85,33,28,131,24.49953125,121403,17.4919374860707,999.365239711088,0,,,,N/A
2024-03-17T16:23:05,-0.27218357075,0.2883351233,10.09113110985,0.04214970143566306,-0.003054326190990077,-0.04321871560250959,-0.012740000000000001,0.32466,-0.5275200000000001,18.5,0,85,33,28,131,24.49953125,121403,17.4919374860707,999.365239711088,0,,,,N/A
2024-03-17T16:23:05,-0.27577280465,0.24107687694999996,10.071390323399998,0.04123340357836604,0.00015271630954950385,-0.04291328298341058,-0.00462,0.33054,-0.5208,18.5,0,85,33,28,131,24.49953125,121403,17.4919374860707,999.365239711088,0,,,,N/A
2024-03-17T16:23:06,-0.26261228035,0.24526431649999997,10.10668445675,0.04077525464971753,-0.0038179077387375964,-0.041691552507014555,-0.004340000000000001,0.32606000000000007,-0.52444,18.5,0,85,33,28,131,24.442890625,118587,17.46868621411978,999.3707531114296,0,,,,N/A
2024-03-17T16:23:06,-0.26261228035,0.24167508259999998,10.0510513313,0.04382958084070761,-0.00015271630954950385,-0.04306599929296009,-0.010780000000000001,0.33222,-0.51926,18.5,0,85,33,28,131,24.442890625,118587,17.46868621411978,999.3707531114296,0,,,,N/A
2024-03-17T16:23:06,-0.29371897415,0.2500499617,10.121639597999998,0.04505131131710364,-0.0027488935718910697,-0.043982297150257116,-0.01666,0.33054,-0.51968,18.5,0,85,33,28,131,24.442890625,118587,17.46868621411978,999.3707531114296,0,,,,N/A
2024-03-17T16:23:06,-0.22911276394999996,0.27816562724999994,10.08036340815,0.041691552507014555,-0.0003054326190990077,-0.04474587869800463,-0.016380000000000002,0.3241,-0.5124000000000001,18.5,0,85,33,28,131,24.442890625,118587,17.46868621411978,999.3707531114296,0,,,,N/A
2024-03-17T16:23:06,-0.2608176634,0.21595223965000002,10.07557776295,0.04428772976935611,-0.0044287729769356115,-0.04245513405476207,-0.016380000000000002,0.3269,-0.52934,18.5,0,85,33,28,131,24.442890625,118587,17.46868621411978,999.3707531114296,0,,,,N/A
2024-03-17T16:23:07,-0.23509482044999996,0.25423740125,10.119246775399999,0.04612032548395016,0.0033597588100890844,-0.04505131131710364,-0.00574,0.33026000000000005,-0.5275200000000001,19.5,0,86,33,29,132,24.3895703125,116059,17.470932370820936,999.3745500955199,0,,,,N/A
2024-03-17T16:23:07,-0.24047867129999997,0.24466611084999998,10.034899778749999,0.041844268816564056,-0.0006108652381980154,-0.043676864531158106,-0.006860000000000001,0.3311,-0.5334000000000001,18.5,0,86,33,29,132,24.3895703125,116059,17.470932370820936,999.3745500955199,0,,,,N/A
2024-03-17T16:23:07,-0.28654050634999995,0.2309073809,10.04088183525,0.04657847441259867,-0.0038179077387375964,-0.04566217655530165,-0.01106,0.33082000000000006,-0.5334000000000001,18.5,0,86,33,29,132,24.3895703125,116059,17.470932370820936,999.3745500955199,0,,,,N/A
2024-03-17T16:23:07,-0.31704899449999996,0.2679961312,10.11864856975,0.040622538340168025,-0.0015271630954950385,-0.04780020488899471,-0.01022,0.33502000000000004,-0.52738,18.5,0,86,33,29,132,24.3895703125,116059,17.470932370820936,999.3745500955199,0,,,,N/A
2024-03-17T16:23:07,-0.22013967919999997,0.2667997199,10.0905329042,0.041691552507014555,-0.003970624048287101,-0.04718933965079669,-0.011620000000000002,0.32326000000000005,-0.5216400000000001,18.5,0,86,33,29,132,24.3895703125,116059,17.470932370820936,999.3745500955199,0,,,,N/A
2024-03-17T16:23:08,-0.27218357075,0.23030917524999997,10.1742816952,0.041386119887915546,-0.0027488935718910697,-0.04444044607890562,-0.017220000000000003,0.32242000000000004,-0.52458,18.5,0,86,33,29,132,24.344453125,116621,17.478674450647503,999.3757014139337,0,,,,N/A
2024-03-17T16:23:08,-0.2907279459,0.21894326790000002,10.009176935799998,0.04703662334124718,0.0,-0.048716502746291725,-0.011340000000000001,0.33026000000000005,-0.5257000000000001,18.5,0,86,33,29,132,24.344453125,116621,17.478674450647503,999.3757014139337,0,,,,N/A
2024-03-17T16:23:08,-0.28474588939999995,0.22791635265,10.111470101950001,0.039858956792420505,0.0013744467859455349,-0.04092797095926703,-0.00406,0.33054,-0.5432,18.5,0,86,33,29,132,24.344453125,116621,17.478674450647503,999.3757014139337,0,,,,N/A
2024-03-17T16:23:08,-0.27577280465,0.2225325018,10.1048898398,0.039400807863771994,-0.0016798794050445422,-0.041844268816564056,-0.01106,0.33586,-0.52374,18.5,0,86,33,29,132,24.344453125,116621,17.478674450647503,999.3757014139337,0,,,,N/A
2024-03-17T16:23:08,-0.28534409504999997,0.25423740125,10.09950598895,0.04092797095926703,-0.003207042500539581,-0.043982297150257116,-0.01106,0.33586,-0.52374,18.5,0,86,33,29,132,24.344453125,116621,17.478674450647503,999.3757014139337,0,,,,N/A
2024-03-17T16:23:08,-0.29970103065,0.25423740125,10.091729315499999,0.041996985126113565,0.0009162978572970231,-0.04413501345980661,-0.007980000000000001,0.33026000000000005,-0.52556,18.5,0,86,33,29,132,24.344453125,116621,17.478674450647503,999.3757014139337,0,,,,N/A
2024-03-17T16:23:08,-0.28654050634999995,0.21595223965000002,10.127023448849998,0.04153883619746505,-0.001069014166846527,-0.04489859500755413,-0.012740000000000001,0.33474,-0.5247200000000001,18.5,0,86,33,29,132,24.3094921875,115109,17.502141095291243,999.373840054016,0,,,,N/A
2024-03-17T16:23:09,-0.2763710103,0.23210379219999996,10.0701939121,0.04153883619746505,-0.0036651914291880926,-0.04505131131710364,-0.007700000000000001,0.32830000000000004,-0.5332600000000001,18.5,0,87,33,29,133,24.5106640625,125093,17.553322947659268,999.358482601164,0,,,,N/A
2024-03-17T16:23:09,-0.30209385325,0.22432711874999997,10.1383893562,0.043676864531158106,-0.00045814892864851157,-0.04780020488899471,-0.006580000000000001,0.33838000000000007,-0.52192,18.5,0,87,33,29,133,24.5106640625,125093,17.553322947659268,999.358482601164,0,,,,N/A
2024-03-17T16:23:09,-0.2835494781,0.24107687694999996,10.10309522285,0.04642575810304917,-0.001069014166846527,-0.04489859500755413,-0.013020000000000002,0.32802000000000003,-0.5290600000000001,18.5,0,87,33,29,133,24.5106640625,125093,17.553322947659268,999.358482601164,0,,,,N/A
2024-03-17T16:23:09,-0.29970103065,0.23150558654999998,10.12463062625,0.041386119887915546,-0.007941248096574201,-0.04153883619746505,-0.013020000000000002,0.32802000000000003,-0.5290600000000001,18.5,0,87,33,29,133,24.5106640625,125093,17.553322947659268,999.358482601164,0,,,,N/A
2024-03-17T16:23:09,-0.28534409504999997,0.23748764304999997,10.110273690649999,0.04321871560250959,-0.00045814892864851157,-0.04291328298341058,-0.014980000000000002,0.3353,-0.52934,18.5,0,87,33,29,133,24.5106640625,125093,17.553322947659268,999.358482601164,0,,,,N/A
2024-03-17T16:23:10,-0.27996024419999993,0.24885355039999998,10.008578730149999,0.039095375244672985,-0.0038179077387375964,-0.04474587869800463,-0.009100000000000002,0.33026000000000005,-0.53872,18.5,0,87,34,29,134,24.5130078125,122727,17.528111582299783,999.3676352472638,0,,,,N/A
2024-03-17T16:23:10,-0.30867411539999995,0.23449661479999998,10.2245309698,0.04092797095926703,0.0007635815477475193,-0.04291328298341058,-0.009940000000000001,0.33026000000000005,-0.52262,18.5,0,87,34,29,134,24.5130078125,122727,17.528111582299783,999.3676352472638,0,,,,N/A
2024-03-17T16:23:10,-0.24346969954999997,0.2560320182,10.073783145999998,0.041996985126113565,-0.0007635815477475193,-0.04230241774521256,-0.011620000000000002,0.32914000000000004,-0.52724,18.5,0,87,34,29,134,24.5130078125,122727,17.528111582299783,999.3676352472638,0,,,,N/A
2024-03-17T16:23:10,-0.27936203854999997,0.24406790519999996,10.09352393245,0.041844268816564056,0.0009162978572970231,-0.04596760917440065,-0.011620000000000002,0.32914000000000004,-0.5359200000000001,18.5,0,87,34,29,134,24.5130078125,122727,17.528111582299783,999.3676352472638,0,,,,N/A
2024-03-17T16:23:10,-0.28594230069999993,0.23330020349999997,10.06481006125,0.041844268816564056,-0.0016798794050445422,-0.04459316238845512,0.0007000000000000001,0.33474,-0.5359200000000001,19.5,0,87,34,29,134,24.5130078125,122727,17.528111582299783,999.3676352472638,0,,,,N/A
2024-03-17T16:23:11,-0.24765713909999998,0.24346969954999997,9.9984092341,0.04810563750809371,0.0007635815477475193,-0.04657847441259867,-0.00966,0.32578,-0.52262,18.5,0,87,33,29,133,24.4551953125,119681,17.514915823350123,999.3694646994456,0,,,,N/A
2024-03-17T16:23:11,-0.23868405434999998,0.24825534474999997,10.06361364995,0.04153883619746505,-0.0003054326190990077,-0.04612032548395016,-0.00966,0.32130000000000003,-0.5276600000000001,18.5,0,87,33,29,133,24.4551953125,119681,17.514915823350123,999.3694646994456,0,,,,N/A
2024-03-17T16:23:11,-0.27337998204999997,0.24945175605,10.076774174250001,0.041691552507014555,-0.0025961772623415654,-0.04657847441259867,-0.010500000000000002,0.33642,-0.52598,18.5,0,87,33,29,133,24.4551953125,119681,17.514915823350123,999.3694646994456,0,,,,N/A
2024-03-17T16:23:11,-0.30747770409999997,0.2500499617,10.1072826624,0.04046982203061852,-0.0012217304763960308,-0.04428772976935611,-0.010500000000000002,0.33642,-0.52598,18.5,0,87,33,29,133,24.4551953125,119681,17.514915823350123,999.3694646994456,0,,,,N/A
2024-03-17T16:23:11,-0.2608176634,0.23629123174999997,10.033703367449998,0.04001167310197001,-0.0015271630954950385,-0.04505131131710364,-0.0029400000000000003,0.33026000000000005,-0.52738,18.5,0,87,33,29,133,24.4551953125,119681,17.514915823350123,999.3694646994456,0,,,,N/A
2024-03-17T16:23:12,-0.29252256285,0.24466611084999998,10.1072826624,0.039706240482871004,-0.03726277953007894,-0.04581489286485116,-0.0119,0.32438000000000006,-0.5300400000000001,18.5,0,86,33,29,132,24.4008984375,117678,17.5171055067246,999.3716736251082,0,,,,N/A
2024-03-17T16:23:12,-0.27218357075,0.24346969954999997,10.001998467999998,0.0435241482216086,-0.0025961772623415654,-0.04245513405476207,0.00602,0.3241,-0.52836,18.5,0,86,33,29,132,24.4008984375,117678,17.5171055067246,999.3716736251082,0,,,,N/A
2024-03-17T16:23:12,-0.2703889538,0.25782663515,10.0594262104,0.041386119887915546,0.0012217304763960308,-0.07803803417979646,-0.007980000000000001,0.3330600000000001,-0.5217800000000001,18.5,0,86,33,29,132,24.4008984375,117678,17.5171055067246,999.3716736251082,0,,,,N/A
2024-03-17T16:23:12,-0.3391826035499999,0.23389840915,10.10309522285,0.041691552507014555,-0.0015271630954950385,-0.04627304179349966,-0.00574,0.32886000000000004,-0.5159000000000001,18.5,0,86,33,29,132,24.4008984375,117678,17.5171055067246,999.3716736251082,0,,,,N/A
2024-03-17T16:23:12,-0.27577280465,0.24346969954999997,10.1168539528,0.039553524173321496,-0.004886921905584123,-0.04291328298341058,-0.00574,0.32886000000000004,-0.5159000000000001,18.5,0,86,33,29,132,24.4008984375,117678,17.5171055067246,999.3716736251082,0,,,,N/A
2024-03-17T16:23:13,-0.24885355039999998,0.24885355039999998,10.06361364995,0.039706240482871004,0.001069014166846527,-0.04627304179349966,-0.0007000000000000001,0.33194000000000007,-0.52458,18.5,0,86,33,29,132,24.3555859375,117269,17.514706788623155,999.3742869013245,0,,,,N/A
2024-03-17T16:23:13,-0.32662028489999995,0.23748764304999997,10.04925671435,0.038942658935123484,0.003970624048287101,-0.0433714319120591,-0.011620000000000002,0.32830000000000004,-0.5201,18.5,0,86,33,29,132,24.3555859375,117269,17.514706788623155,999.3742869013245,0,,,,N/A
2024-03-17T16:23:13,-0.29730820804999997,0.24406790519999996,10.104291634149998,0.04092797095926703,0.0006108652381980154,-0.04474587869800463,-0.011620000000000002,0.32830000000000004,-0.5201,18.5,0,86,33,29,133,24.3555859375,117269,17.514706788623155,999.3742869013245,0,,,,N/A
2024-03-17T16:23:13,-0.28055844984999995,0.24466611084999998,10.064211855599998,0.04413501345980661,-0.002138028333693054,-0.04673119072214818,-0.009940000000000001,0.33782000000000006,-0.5276600000000001,18.5,0,86,33,29,133,24.3555859375,117269,17.514706788623155,999.3742869013245,0,,,,N/A
2024-03-17T16:23:13,-0.29850461935,0.22552353004999998,10.001998467999998,0.04260785036431157,-0.005345070834232635,-0.039858956792420505,-0.01694,0.32550000000000007,-0.52836,18.5,0,86,33,29,133,24.3555859375,117269,17.514706788623155,999.3742869013245,0,,,,N/A
2024-03-17T16:23:13,-0.31944181709999997,0.22731814699999997,10.0462656861,0.040622538340168025,-0.004276056667386108,-0.04505131131710364,-0.007980000000000001,0.32578,-0.5217800000000001,18.5,0,86,33,29,133,24.3555859375,117269,17.514706788623155,999.3742869013245,0,,,,N/A
2024-03-17T16:23:13,-0.15433705769999997,0.26919254249999996,10.088738287249999,0.036499197982331415,0.0018325957145940463,-0.04046982203061852,-0.007980000000000001,0.32578,-0.5217800000000001,18.5,0,86,33,29,133,24.31984375,116379,17.5229434220541,999.376487134512,0,,,,N/A
2024-03-17T16:23:14,-0.21236300575,0.2500499617,10.050453125649998,0.038942658935123484,-0.0015271630954950385,-0.039553524173321496,-0.010500000000000002,0.32718,-0.5313000000000001,18.5,0,87,33,29,134,24.5216015625,126499,17.564039770746216,999.3496283646858,0,,,,N/A
2024-03-17T16:23:14,-0.28235306679999994,0.22552353004999998,10.018150020550001,0.04489859500755413,-0.001069014166846527,-0.04260785036431157,-0.010500000000000002,0.33082000000000006,-0.5290600000000001,18.5,0,87,33,29,134,24.5216015625,126499,17.564039770746216,999.3496283646858,0,,,,N/A
2024-03-17T16:23:14,-0.2679961312,0.23988046564999999,10.0893364929,0.04092797095926703,-0.0033597588100890844,-0.038789942625573975,-0.010500000000000002,0.33082000000000006,-0.5290600000000001,18.5,0,87,33,29,134,24.5216015625,126499,17.564039770746216,999.3496283646858,0,,,,N/A
2024-03-17T16:23:14,-0.2536391956,0.2560320182,10.052247742599999,0.039400807863771994,-0.004276056667386108,-0.04428772976935611,-0.01778,0.33558000000000004,-0.52248,18.5,0,87,33,29,134,24.5216015625,126499,17.564039770746216,999.3496283646858,0,,,,N/A
2024-03-17T16:23:14,-0.2715853651,0.26979074815,10.0319087505,0.038637226316024474,-0.0009162978572970231,-0.038789942625573975,-0.00602,0.32522,-0.53732,18.5,0,87,33,29,134,24.5216015625,126499,17.564039770746216,999.3496283646858,0,,,,N/A
2024-03-17T16:23:15,-0.2739781877,0.2656033086,10.14975526355,0.04413501345980661,-0.003207042500539581,-0.0435241482216086,-0.016380000000000002,0.3269,-0.5264000000000001,18.5,0,87,33,29,134,24.522578125,122906,17.543820279164592,999.3601101120491,0,,,,N/A
2024-03-17T16:23:15,-0.19980068709999999,0.23270199784999998,10.06361364995,0.04230241774521256,-0.0015271630954950385,-0.04260785036431157,-0.018900000000000004,0.3353,-0.53788,18.5,0,87,33,29,134,24.522578125,122906,17.543820279164592,999.3601101120491,0,,,,N/A
2024-03-17T16:23:15,-0.28773691765000003,0.24526431649999997,10.096514960699999,0.04856378643674222,-0.0012217304763960308,-0.04382958084070761,-0.018900000000000004,0.3353,-0.53788,18.5,0,87,33,29,134,24.522578125,122906,17.543820279164592,999.3601101120491,0,,,,N/A
2024-03-17T16:23:15,-0.18664016279999998,0.23988046564999999,10.103693428499998,0.04260785036431157,0.00015271630954950385,-0.04718933965079669,-0.014420000000000002,0.32746000000000003,-0.51926,18.5,0,87,33,29,134,24.522578125,122906,17.543820279164592,999.3601101120491,0,,,,N/A
2024-03-17T16:23:15,-0.29312076849999996,0.24945175605,10.087541875949999,0.04550946024575215,-0.0006108652381980154,-0.04612032548395016,-0.018060000000000003,0.31850000000000006,-0.5334000000000001,18.5,0,87,33,29,134,24.522578125,122906,17.543820279164592,999.3601101120491,0,,,,N/A
2024-03-17T16:23:16,-0.32243284534999994,0.23449661479999998,10.0821580251,0.04001167310197001,-0.004276056667386108,-0.04612032548395016,-0.014980000000000002,0.33054,-0.51758,18.5,0,87,34,29,134,24.4661328125,120021,17.515495166915898,999.3659481472231,0,,,,N/A
2024-03-17T16:23:16,-0.3236292566499999,0.24526431649999997,10.12104139235,0.040317105721069016,0.00015271630954950385,-0.04245513405476207,-0.014700000000000001,0.32746000000000003,-0.52514,18.5,0,87,34,29,134,24.4661328125,120021,17.515495166915898,999.3659481472231,0,,,,N/A
2024-03-17T16:23:16,-0.2967100024,0.26021945775,10.067801089499998,0.041691552507014555,-0.0022907446432425577,-0.04505131131710364,-0.013580000000000002,0.3269,-0.5215,18.5,0,87,34,29,134,24.4661328125,120021,17.515495166915898,999.3659481472231,0,,,,N/A
2024-03-17T16:23:16,-0.29371897415,0.24646072779999997,10.001998467999998,0.04276056667386108,-0.0016798794050445422,-0.04413501345980661,-0.009100000000000002,0.33138000000000006,-0.51604,18.5,0,87,34,29,134,24.4661328125,120021,17.515495166915898,999.3659481472231,0,,,,N/A
2024-03-17T16:23:16,-0.27337998204999997,0.22971096959999998,10.107880868049998,0.04459316238845512,-0.00473420559603462,-0.04886921905584123,-0.0119,0.33334,-0.5252800000000001,18.5,0,87,34,29,134,24.4661328125,120021,17.515495166915898,999.3659481472231,0,,,,N/A
2024-03-17T16:23:17,-0.30568308715,0.22851455829999998,10.131809094049999,0.03741549583962844,-0.0018325957145940463,-0.04382958084070761,-0.015540000000000002,0.33222,-0.53298,18.5,0,87,34,29,134,24.413203125,118172,17.517757076345646,999.3668318561547,0,,,,N/A
2024-03-17T16:23:17,-0.215354034,0.25902304644999996,10.0438728635,0.04321871560250959,-0.0019853120241435504,-0.04230241774521256,-0.009940000000000001,0.32242000000000004,-0.53088,18.5,0,87,34,29,134,24.413203125,118172,17.517757076345646,999.3668318561547,0,,,,N/A
2024-03-17T16:23:17,-0.28893332894999996,0.23509482044999996,10.091729315499999,0.04276056667386108,-0.0025961772623415654,-0.04963280060358875,-0.01386,0.3269,-0.5276600000000001,18.5,0,87,34,29,134,24.413203125,118172,17.517757076345646,999.3668318561547,0,,,,N/A
2024-03-17T16:23:17,-0.2596212521,0.2775674216,10.10668445675,0.04413501345980661,-0.005192354524683131,-0.04688390703169768,-0.017220000000000003,0.32774000000000003,-0.52724,18.5,0,87,34,29,134,24.413203125,118172,17.517757076345646,999.3668318561547,0,,,,N/A
2024-03-17T16:23:17,-0.28115665549999996,0.2596212521,10.0666046782,0.040622538340168025,-0.0013744467859455349,-0.04520402762665314,-0.02114,0.32662,-0.51114,18.5,0,87,34,29,134,24.413203125,118172,17.517757076345646,999.3668318561547,0,,,,N/A
2024-03-17T16:23:18,-0.28175486115,0.24346969954999997,10.04207824655,0.0474947722698957,-0.0015271630954950385,-0.04627304179349966,-0.0035000000000000005,0.32242000000000004,-0.5140800000000001,18.5,0,83,32,29,129,24.3684765625,118338,17.53564847833269,999.3757359738613,0,,,,N/A
2024-03-17T16:23:18,-0.30329026454999997,0.2225325018,10.14257679575,0.04459316238845512,-0.0033597588100890844,-0.04978551691313826,-0.013300000000000001,0.3241,-0.5279400000000001,18.5,0,83,32,29,129,24.3684765625,118338,17.53564847833269,999.3757359738613,0,,,,N/A
2024-03-17T16:23:18,-0.25902304644999996,0.24945175605,9.96072227815,0.041996985126113565,-0.002138028333693054,-0.04306599929296009,-0.006860000000000001,0.3330600000000001,-0.5268200000000001,18.5,0,83,32,29,129,24.3684765625,118338,17.53564847833269,999.3757359738613,0,,,,N/A
2024-03-17T16:23:18,-0.26620151425,0.24346969954999997,10.067801089499998,0.043982297150257116,-0.001069014166846527,-0.04321871560250959,-0.011340000000000001,0.32802000000000003,-0.53984,18.5,0,83,32,29,129,24.3684765625,118338,17.53564847833269,999.3757359738613,0,,,,N/A
2024-03-17T16:23:18,-0.28414768374999994,0.24646072779999997,10.0654082669,0.03665191429188092,-0.0022907446432425577,-0.043982297150257116,-0.011340000000000001,0.32802000000000003,-0.53984,18.5,0,83,32,29,129,24.3684765625,118338,17.53564847833269,999.3757359738613,0,,,,N/A
2024-03-17T16:23:18,-0.30568308715,0.23569302609999998,10.1084790737,0.039858956792420505,-0.0018325957145940463,-0.041996985126113565,-0.01106,0.33194000000000007,-0.53634,18.5,0,83,32,29,129,24.3684765625,118338,17.53564847833269,999.3757359738613,0,,,,N/A
2024-03-17T16:23:18,-0.26620151425,0.23330020349999997,10.06361364995,0.041996985126113565,-0.0016798794050445422,-0.04535674393620265,-0.01106,0.32998,-0.5194000000000001,18.5,0,83,32,29,129,24.3325390625,117596,17.55400560567356,999.3793976134862,0,,,,N/A
2024-03-17T16:23:19,-0.2584248408,0.2009970984,10.0893364929,0.041386119887915546,0.0003054326190990077,-0.04444044607890562,-0.013580000000000002,0.32578,-0.5276600000000001,18.5,0,80,32,28,124,24.5333203125,127938,17.60014679518472,999.3669408092552,0,,,,N/A
2024-03-17T16:23:19,-0.28713871199999996,0.22133609049999997,10.061819032999999,0.04046982203061852,-0.00015271630954950385,-0.041386119887915546,-0.01414,0.33082000000000006,-0.52136,18.5,0,80,32,28,124,24.5333203125,127938,17.60014679518472,999.3669408092552,0,,,,N/A
2024-03-17T16:23:19,-0.26979074815,0.23988046564999999,10.109675485,0.04077525464971753,-0.0033597588100890844,-0.04214970143566306,-0.01246,0.32802000000000003,-0.5289200000000001,18.5,0,80,32,28,124,24.5333203125,127938,17.60014679518472,999.3669408092552,0,,,,N/A
2024-03-17T16:23:19,-0.2739781877,0.24346969954999997,10.04925671435,0.039706240482871004,0.0006108652381980154,-0.04214970143566306,-0.011340000000000001,0.32214000000000004,-0.52962,18.5,0,80,32,28,124,24.5333203125,127938,17.60014679518472,999.3669408092552,0,,,,N/A
2024-03-17T16:23:19,-0.3026920589,0.24287149389999999,9.967302540299999,0.04001167310197001,-0.0054977871437821395,-0.04413501345980661,-0.011340000000000001,0.32214000000000004,-0.52962,18.5,0,80,32,28,124,24.5333203125,127938,17.60014679518472,999.3669408092552,0,,,,N/A
2024-03-17T16:23:20,-0.3026920589,0.1950150419,10.08155981945,0.04214970143566306,-0.0007635815477475193,-0.04596760917440065,-0.00574,0.32634,-0.5408200000000001,19.5,0,78,31,28,121,24.533515625,123446,17.579879039683977,999.3725935967932,0,,,,N/A
2024-03-17T16:23:20,-0.23389840915,0.27517459899999996,10.076175968599998,0.04780020488899471,-0.0044287729769356115,-0.041691552507014555,-0.010500000000000002,0.32942,-0.5195400000000001,18.5,0,78,31,28,121,24.533515625,123446,17.579879039683977,999.3725935967932,0,,,,N/A
2024-03-17T16:23:20,-0.28534409504999997,0.23449661479999998,10.071988529050001,0.040317105721069016,0.0,-0.04276056667386108,-0.01414,0.32802000000000003,-0.52934,18.5,0,76,31,27,117,24.533515625,123446,17.579879039683977,999.3725935967932,0,,,,N/A
2024-03-17T16:23:20,-0.24167508259999998,0.24705893344999996,10.02413207705,0.0435241482216086,-0.0012217304763960308,-0.04230241774521256,-0.010500000000000002,0.3311,-0.53396,18.5,0,76,31,27,117,24.533515625,123446,17.579879039683977,999.3725935967932,0,,,,N/A
2024-03-17T16:23:20,-0.29491538544999996,0.24885355039999998,10.097113166349997,0.04474587869800463,-0.0015271630954950385,-0.0435241482216086,-0.010500000000000002,0.3311,-0.53396,18.5,0,76,31,27,117,24.533515625,123446,17.579879039683977,999.3725935967932,0,,,,N/A
2024-03-17T16:23:21,-0.2620140747,0.23748764304999997,10.088738287249999,0.039858956792420505,-0.0022907446432425577,-0.047952921198544204,-0.010500000000000002,0.32830000000000004,-0.52262,18.5,0,75,31,27,116,24.4774609375,121055,17.556627776796827,999.3772917442518,0,,,,N/A
2024-03-17T16:23:21,-0.24406790519999996,0.26500510294999996,10.073783145999998,0.041691552507014555,-0.004581489286485115,-0.04520402762665314,-0.020860000000000004,0.33474,-0.5199600000000001,18.5,0,75,31,27,116,24.4774609375,121055,17.556627776796827,999.3772917442518,0,,,,N/A
2024-03-17T16:23:21,-0.28594230069999993,0.23808584869999996,10.08155981945,0.039400807863771994,-0.002138028333693054,-0.04245513405476207,-0.009940000000000001,0.32858000000000004,-0.5408200000000001,18.5,0,75,31,27,116,24.4774609375,121055,17.556627776796827,999.3772917442518,0,,,,N/A
2024-03-17T16:23:21,-0.29910282499999996,0.21954147355,10.1491570579,0.041844268816564056,-0.0003054326190990077,-0.04245513405476207,-0.019180000000000003,0.32970000000000005,-0.5152,18.5,0,75,31,27,116,24.4774609375,121055,17.556627776796827,999.3772917442518,0,,,,N/A
2024-03-17T16:23:21,-0.30089744194999996,0.22313070744999997,10.080961613799998,0.039858956792420505,0.001069014166846527,-0.04474587869800463,-0.019180000000000003,0.32970000000000005,-0.5152,18.5,0,75,31,27,116,24.4774609375,121055,17.556627776796827,999.3772917442518,0,,,,N/A
2024-03-17T16:23:22,-0.2524427843,0.24466611084999998,10.013364375349997,0.04123340357836604,0.0027488935718910697,-0.04092797095926703,-0.017220000000000003,0.33166,-0.53102,18.5,0,76,31,27,118,24.424140625,119258,17.553797930196332,999.3846523846598,0,,,,N/A
2024-03-17T16:23:22,-0.3002992363,0.2309073809,10.143773207049998,0.043982297150257116,0.0018325957145940463,-0.04459316238845512,-0.01246,0.33754,-0.5209400000000001,18.5,0,76,31,27,118,24.424140625,119258,17.553797930196332,999.3846523846598,0,,,,N/A
2024-03-17T16:23:22,-0.2787638329,0.23629123174999997,10.0773723799,0.04657847441259867,-0.0007635815477475193,-0.0433714319120591,-0.013020000000000002,0.32634,-0.5301800000000001,18.5,0,76,31,27,118,24.424140625,119258,17.553797930196332,999.3846523846598,0,,,,N/A
2024-03-17T16:23:22,-0.27517459899999996,0.22731814699999997,10.161719376549998,0.04001167310197001,-0.006719517620178169,-0.04474587869800463,-0.013020000000000002,0.32634,-0.5301800000000001,18.5,0,76,31,27,118,24.424140625,119258,17.553797930196332,999.3846523846598,0,,,,N/A
2024-03-17T16:23:22,-0.2787638329,0.26919254249999996,10.12582703755,0.04046982203061852,-0.002901609881440573,-0.0435241482216086,-0.022260000000000002,0.33446000000000004,-0.5201,18.5,0,76,31,27,118,24.424140625,119258,17.553797930196332,999.3846523846598,0,,,,N/A
2024-03-17T16:23:23,-0.21236300575,0.24526431649999997,10.0893364929,0.04016438941151951,-0.0013744467859455349,-0.04245513405476207,-0.01946,0.32830000000000004,-0.52486,18.5,0,78,31,28,121,24.380390625,118671,17.56160984622464,999.3844821053129,0,,,,N/A
2024-03-17T16:23:23,-0.36550365214999997,0.21236300575,10.076774174250001,0.041996985126113565,0.00015271630954950385,-0.04382958084070761,-0.0119,0.32998,-0.5415200000000001,18.5,0,78,31,28,121,24.380390625,118671,17.56160984622464,999.3844821053129,0,,,,N/A
2024-03-17T16:23:23,-0.27816562724999994,0.23509482044999996,10.08634546465,0.04230241774521256,-0.0022907446432425577,-0.04428772976935611,-0.01946,0.32550000000000007,-0.5265400000000001,18.5,0,78,31,28,121,24.380390625,118671,17.56160984622464,999.3844821053129,0,,,,N/A
2024-03-17T16:23:23,-0.26739792554999997,0.23688943739999999,10.122836009299998,0.04734205596034619,-0.0016798794050445422,-0.041691552507014555,-0.01946,0.32550000000000007,-0.5265400000000001,18.5,0,78,31,28,121,24.380390625,118671,17.56160984622464,999.3844821053129,0,,,,N/A
2024-03-17T16:23:23,-0.23688943739999999,0.24885355039999998,10.0725867347,0.04703662334124718,0.0012217304763960308,-0.04291328298341058,-0.014700000000000001,0.33390000000000003,-0.52262,18.5,0,78,31,28,121,24.380390625,118671,17.56160984622464,999.3844821053129,0,,,,N/A
2024-03-17T16:23:23,-0.3038884702,0.21595223965000002,10.076774174250001,0.043676864531158106,-0.004886921905584123,-0.04612032548395016,-0.024220000000000002,0.33334,-0.53984,18.5,0,78,31,28,121,24.380390625,118671,17.56160984622464,999.3844821053129,0,,,,N/A
2024-03-17T16:23:23,-0.31226334929999994,0.2165504453,10.106086251099997,0.04306599929296009,0.03802636107782646,-0.04596760917440065,-0.024220000000000002,0.33334,-0.53984,18.5,0,78,31,28,121,24.3438671875,115979,17.564738398911977,999.3907458365743,0,,,,N/A
2024-03-17T16:23:24,-0.2727817764,0.25543381255,10.1443714127,0.038331793696925465,-0.0007635815477475193,-0.04535674393620265,-0.01582,0.32886000000000004,-0.51912,18.5,0,78,31,28,122,24.5466015625,126121,17.626207318820793,999.3779075070001,0,,,,N/A
2024-03-17T16:23:24,-0.26321048599999997,0.24945175605,10.191031453399999,0.04260785036431157,0.0006108652381980154,-0.04276056667386108,-0.009940000000000001,0.32942,-0.52738,18.5,0,78,31,28,122,24.5466015625,126121,17.626207318820793,999.3779075070001,0,,,,N/A
2024-03-17T16:23:24,-0.26739792554999997,0.2237289131,10.08634546465,0.040622538340168025,0.0012217304763960308,-0.04214970143566306,-0.009940000000000001,0.32942,-0.52738,19.5,0,78,31,28,122,24.5466015625,126121,17.626207318820793,999.3779075070001,0,,,,N/A
2024-03-17T16:23:24,-0.23389840915,0.22552353004999998,10.085747258999998,0.04016438941151951,0.00045814892864851157,-0.04230241774521256,-0.01974,0.33782000000000006,-0.5227600000000001,18.5,0,78,31,28,122,24.5466015625,126121,17.626207318820793,999.3779075070001,0,,,,N/A
2024-03-17T16:23:24,-0.31226334929999994,0.25184457865,10.097711372000001,0.041844268816564056,-0.0027488935718910697,-0.04413501345980661,-0.014700000000000001,0.32830000000000004,-0.5360600000000001,18.5,0,78,31,28,122,24.5466015625,126121,17.626207318820793,999.3779075070001,0,,,,N/A
2024-03-17T16:23:25,-0.26620151425,0.23150558654999998,10.0546405652,0.04413501345980661,-0.0038179077387375964,-0.04520402762665314,-0.012180000000000002,0.32662,-0.5173000000000001,18.5,0,78,31,28,121,24.548359375,122817,17.616158885187698,999.3843275809745,0,,,,N/A
2024-03-17T16:23:25,-0.22671994134999998,0.2644068973,10.082756230749998,0.04001167310197001,-0.0022907446432425577,-0.04153883619746505,-0.008260000000000002,0.32130000000000003,-0.53396,18.5,0,78,31,28,121,24.548359375,122817,17.616158885187698,999.3843275809745,0,,,,N/A
2024-03-17T16:23:25,-0.27218357075,0.23210379219999996,10.0929257268,0.04459316238845512,-0.0013744467859455349,-0.040317105721069016,-0.008260000000000002,0.32130000000000003,-0.53396,19.5,0,78,31,28,121,24.548359375,122817,17.616158885187698,999.3843275809745,0,,,,N/A
2024-03-17T16:23:25,-0.44865423749999994,0.27457639335,10.105488045449999,0.03772092845872745,-0.0018325957145940463,-0.04428772976935611,-0.02562,0.32550000000000007,-0.53102,18.5,0,78,31,28,121,24.548359375,122817,17.616158885187698,999.3843275809745,0,,,,N/A
2024-03-17T16:23:25,-0.26141586904999997,0.24406790519999996,10.054042359550001,0.04520402762665314,-0.0009162978572970231,-0.04612032548395016,-0.01246,0.32130000000000003,-0.5327000000000001,18.5,0,78,31,28,121,24.548359375,122817,17.616158885187698,999.3843275809745,0,,,,N/A
2024-03-17T16:23:26,-0.2225325018,0.27098715944999996,10.198209921199998,0.04505131131710364,-0.0003054326190990077,-0.04566217655530165,-0.01386,0.32830000000000004,-0.5187,18.5,0,78,31,28,121,24.4926953125,120192,17.628405391057758,999.3843306413165,0,,,,N/A
2024-03-17T16:23:26,-0.36311082955,0.22851455829999998,10.1383893562,0.0413861