Timestamp,Accel_X,Accel_Y,Accel_Z,Gyro_X,Gyro_Y,Gyro_Z,Mag_X,Mag_Y,Mag_Z,LSM9DS1_Temp,Proximity,Color_R,Color_G,Color_B,Color_C,BME680_Temp,Gas,Humidity,Pressure,Switch_Pressed,GPS_Latitude,GPS_Longitude,GPS_Speed,GPS_Timestamp,Pad_press
2024-04-02T10:33:08,1.33579321645,-0.11665010174999998,9.7782695549,0.018784106074588976,0.018173240836390957,0.08857545953871222,0.0483,0.29386,-0.21504,22.5,1,953,545,745,2519,33.574921875,116701,100,695.662002676745,0,,,,N/A,False
2024-04-02T10:33:08,1.3016954943999999,-0.12622139215,9.6981099978,0.019853120241435502,0.025198191075668133,0.08765916168141522,0.042140000000000004,0.28434000000000004,-0.20846,22.5,1,953,545,745,2519,33.574921875,116701,100,695.662002676745,0,,,,N/A,False
2024-04-02T10:33:08,1.3956137814499998,-0.20817556619999997,9.87218784195,0.017409659288643436,0.023671027980173096,0.08888089215781124,0.04662,0.2793,-0.20454000000000003,22.5,1,953,545,745,2519,30.5567578125,37471,25.160600471850387,1013.2928131046617,0,,,,N/A,False
2024-04-02T10:33:08,1.3316057768999998,-0.14775679555,9.783653405749998,0.020311269170084013,0.023671027980173096,0.08506298441907365,0.0427,0.29890000000000005,-0.20426000000000002,22.5,1,953,545,745,2519,30.8048046875,41080,25.206775946045948,1013.2898862694236,0,,,,N/A,False
2024-04-02T10:33:08,1.23409825595,-0.1471585899,9.67238715485,0.018784106074588976,0.01863138976503947,0.08536841703817265,0.03878,0.2933,-0.20118,22.5,1,953,545,745,2519,31.156171875,45604,25.23362676284288,1013.2780162258638,0,,,,N/A,False
2024-04-02T10:33:09,1.3531411802999997,-0.16749758199999998,9.905089152699999,0.021991148575128558,0.020463985479633514,0.08933904108645975,0.03962,0.29526,-0.2233,22.5,1,962,553,757,2547,31.5618359375,49950,25.264735469734937,1013.264553789714,0,,,,N/A,False
2024-04-02T10:33:09,1.3668999102499997,-0.17587246110000002,9.873384253249998,0.020922134408282028,0.024129176908821607,0.08857545953871222,0.04046,0.28490000000000004,-0.21112000000000003,22.5,1,962,553,757,2547,31.5618359375,49950,25.264735469734937,1013.264553789714,0,,,,N/A,False
2024-04-02T10:33:09,1.2741780345,-0.13220344865,9.651449957099999,0.01832595714594046,0.025809056313866152,0.08659014751456869,0.03234,0.28490000000000004,-0.20076000000000002,22.5,1,962,553,757,2547,31.963984375,53497,25.27926448330459,1013.2643662496332,0,,,,N/A,False
2024-04-02T10:33:09,1.3549357972499998,-0.15074782379999999,9.9158568544,0.022449297503777065,0.02107485071783153,0.08827002691961322,0.0357,0.28742,-0.20776000000000003,22.5,1,962,553,757,2547,32.3087109375,56205,25.24561245590875,1013.2883538246609,0,,,,N/A,False
2024-04-02T10:33:09,1.3286147486499997,-0.10289137179999999,9.812367276949999,0.04550946024575215,-0.010995574287564279,-0.05406157358052436,0.03878,0.29218,-0.20762000000000003,22.5,1,962,553,757,2547,32.5868359375,59705,25.223255577997595,1013.2947957010567,0,,,,N/A,False
2024-04-02T10:33:09,1.33698962775,-0.16689937635,9.86740219675,0.039858956792420505,-0.0038179077387375964,-0.04780020488899471,0.03402,0.2933,-0.19488000000000003,22.5,1,965,554,759,2554,32.5868359375,59705,25.223255577997595,1013.2947957010567,0,,,,N/A,False
2024-04-02T10:33:09,1.2891331757499997,-0.12382856954999999,9.6957171752,0.04306599929296009,0.002901609881440573,-0.04917465167494024,0.0413,0.28266,-0.20146,22.5,1,965,554,759,2554,32.5868359375,59705,25.223255577997595,1013.2947957010567,0,,,,N/A,False
2024-04-02T10:33:09,1.3657034989499999,-0.1531406464,9.9086783866,0.040317105721069016,0.008704829644321718,-0.049327367984489744,0.034300000000000004,0.28518,-0.20902,22.5,1,965,554,759,2554,32.8503125,62816,25.172365473540665,1013.3039755548534,0,,,,N/A,False
2024-04-02T10:33:09,1.3100703735,-0.13459627124999998,9.780064171849999,0.038637226316024474,0.00595593607243065,-0.0433714319120591,0.034300000000000004,0.2975,-0.21994000000000002,22.5,1,965,554,759,2554,32.8503125,62816,25.172365473540665,1013.3039755548534,0,,,,N/A,False
2024-04-02T10:33:10,1.4033904548999998,-0.12382856954999999,9.88893760015,0.04321871560250959,0.005192354524683131,-0.04016438941151951,0.03514,0.2888200000000001,-0.21308000000000002,22.5,1,965,554,759,2554,33.081953125,66270,25.12448428571797,1013.3022850888007,0,,,,N/A,False
2024-04-02T10:33:10,1.3543375915999998,-0.18185451760000002,9.93799046345,0.043676864531158106,0.002901609881440573,-0.04001167310197001,0.03878,0.29106,-0.20650000000000002,22.5,1,965,554,759,2554,33.081953125,66270,25.12448428571797,1013.3022850888007,0,,,,N/A,False
2024-04-02T10:33:10,1.2610175101999996,-0.1459621786,9.698708203449998,0.040622538340168025,-0.003054326190990077,-0.03772092845872745,0.038220000000000004,0.28966000000000003,-0.20622000000000001,22.5,1,965,554,759,2554,33.081953125,66270,25.12448428571797,1013.3022850888007,0,,,,N/A,False
2024-04-02T10:33:10,1.3585250311500001,-0.15074782379999999,9.91884788265,0.04153883619746505,-0.002138028333693054,-0.039400807863771994,0.0371,0.29442,-0.19712000000000002,22.5,1,965,554,759,2554,33.2688671875,67220,25.051215888859844,1013.3210397918173,0,,,,N/A,False
2024-04-02T10:33:10,1.2927224096499998,-0.17706887240000002,9.84706320465,0.043676864531158106,-0.007635815477475193,-0.03543018381548489,0.04494000000000001,0.2933,-0.22316000000000003,22.5,1,965,554,759,2554,33.2688671875,67220,25.051215888859844,1013.3210397918173,0,,,,N/A,False
2024-04-02T10:33:10,1.4153545678999997,-0.14237294469999998,9.88295554365,0.04505131131710364,0.00045814892864851157,-0.03756821214917795,0.042140000000000004,0.29162,-0.2044,22.5,1,966,555,761,2559,33.338203125,68531,24.936028116446487,1013.347758491295,0,,,,N/A,False
2024-04-02T10:33:10,1.3591232368,-0.19381863059999999,9.853643466800001,0.04505131131710364,-0.006261368691529657,-0.039095375244672985,0.030660000000000003,0.28854,-0.21154000000000003,22.5,1,966,555,761,2559,33.386640625,70536,24.846669883182244,1013.3529489963028,0,,,,N/A,False
2024-04-02T10:33:10,1.38484607975,-0.16510475939999997,9.91525864875,0.048716502746291725,-0.001069014166846527,-0.04077525464971753,0.042980000000000004,0.28826000000000007,-0.21826,22.5,1,966,555,761,2559,33.386640625,70536,24.846669883182244,1013.3529489963028,0,,,,N/A,False
2024-04-02T10:33:10,1.27357982885,-0.09690931529999999,9.7172525786,0.041844268816564056,-0.005192354524683131,-0.041386119887915546,0.04102,0.29218,-0.21518,22.5,1,966,555,761,2559,33.386640625,70536,24.846669883182244,1013.3529489963028,0,,,,N/A,False
2024-04-02T10:33:10,1.3507483577,-0.16031911419999997,9.877571692799998,0.04153883619746505,-0.008857545953871223,-0.03695734691097993,0.039900000000000005,0.29190000000000005,-0.20622000000000001,22.5,1,966,555,761,2559,33.4532421875,73677,24.786096938208065,1013.3373025079138,0,,,,N/A,False
2024-04-02T10:33:11,1.34895374075,-0.13998012209999997,9.92004429395,0.04489859500755413,0.0016798794050445422,-0.039095375244672985,0.04046,0.29974,-0.20762000000000003,22.5,1,967,556,764,2564,33.5692578125,76621,24.729309556925656,1013.3265735349343,0,,,,N/A,False
2024-04-02T10:33:11,1.3657034989499999,-0.1447657673,9.815956510849999,0.041691552507014555,-0.007330382858376185,-0.041386119887915546,0.0441,0.29246000000000005,-0.21070000000000003,22.5,1,967,556,764,2564,33.7024609375,78767,24.65195460540986,1013.3167805533944,0,,,,N/A,False
2024-04-02T10:33:11,1.3663017045999997,-0.1782652837,9.89491965665,0.04214970143566306,-0.012064588454410803,-0.038331793696925465,0.04802,0.29946000000000006,-0.21028000000000002,22.5,1,967,556,764,2564,33.82296875,80726,24.562704384618726,1013.3168536901658,0,,,,N/A,False
2024-04-02T10:33:11,1.32382910345,-0.18604195715,9.864411168499998,0.04291328298341058,-0.007788531787024696,-0.038637226316024474,0.044660000000000005,0.2947000000000001,-0.20944000000000002,22.5,1,967,556,764,2564,33.82296875,80726,24.562704384618726,1013.3168536901658,0,,,,N/A,False
2024-04-02T10:33:11,1.2741780345,-0.13339985995,9.772287498399999,0.039706240482871004,-0.010995574287564279,-0.041386119887915546,0.046060000000000004,0.30142,-0.21378000000000003,22.5,1,967,556,764,2564,33.82296875,80726,24.562704384618726,1013.3168536901658,0,,,,N/A,False
2024-04-02T10:33:11,1.3519447689999997,-0.10109675484999998,9.830313446449999,0.04230241774521256,0.0,-0.03665191429188092,0.0413,0.29190000000000005,-0.20552,22.5,1,967,556,764,2564,33.924140625,82786,24.49933034739527,1013.299738972501,0,,,,N/A,False
2024-04-02T10:33:11,1.2981062605,-0.14955141249999998,9.7998049583,0.04428772976935611,-0.008246680715673207,-0.04001167310197001,0.04102,0.2975,-0.21252000000000001,22.5,0,970,558,767,2574,33.955,82141,24.376008274864102,1013.3212306580047,0,,,,N/A,False
2024-04-02T10:33:11,1.29511523225,-0.09272187574999999,9.7172525786,0.04474587869800463,-0.008552113334772215,-0.03665191429188092,0.03542,0.30226000000000003,-0.20398000000000002,22.5,0,970,558,767,2574,33.955,82141,24.376008274864102,1013.3212306580047,0,,,,N/A,False
2024-04-02T10:33:12,1.36331067635,-0.16450655374999998,9.94756175385,0.04214970143566306,-0.007330382858376185,-0.03512475119638588,0.026740000000000003,0.2947000000000001,-0.20384000000000002,22.5,0,970,558,767,2574,33.9700390625,84612,24.300706904016174,1013.3096809967733,0,,,,N/A,False
2024-04-02T10:33:12,1.3818550515,-0.179461695,9.9696953629,0.04581489286485116,0.0022907446432425577,-0.03802636107782646,0.039060000000000004,0.29638000000000003,-0.20524,22.5,0,970,558,767,2574,33.9700390625,84612,24.300706904016174,1013.3096809967733,0,,,,N/A,False
2024-04-02T10:33:12,1.2454641632999999,-0.10348957745,9.664012275749998,0.0435241482216086,0.0003054326190990077,-0.039400807863771994,0.04046,0.29218,-0.20958000000000002,22.5,0,970,558,767,2574,34.0028515625,84782,24.19950349572816,1013.3181121216853,0,,,,N/A,False
2024-04-02T10:33:12,1.3561322085499998,-0.15912270289999997,9.959525866849997,0.04657847441259867,-0.0015271630954950385,-0.039400807863771994,0.037660000000000006,0.29778000000000004,-0.2044,22.5,1,970,559,769,2579,34.0133984375,86079,24.102144160617932,1013.3281052300058,0,,,,N/A,False
2024-04-02T10:33:12,1.3100703735,-0.16510475939999997,9.848857821599998,0.04673119072214818,-0.009315694882519735,-0.039553524173321496,0.03486000000000001,0.3003,-0.20748000000000003,22.5,1,970,559,769,2579,34.0133984375,86079,24.102144160617932,1013.3281052300058,0,,,,N/A,False
2024-04-02T10:33:12,1.32502551475,-0.10947163395000001,9.82792062385,0.04627304179349966,0.00473420559603462,-0.04260785036431157,0.03514,0.2933,-0.2079,22.5,1,970,559,769,2579,34.0133984375,86079,24.102144160617932,1013.3281052300058,0,,,,N/A,False
2024-04-02T10:33:12,1.29511523225,-0.13698909385,9.843473970749999,0.04153883619746505,-0.009621127501618741,-0.03802636107782646,0.04102,0.29078000000000004,-0.21252000000000001,22.5,1,970,559,769,2579,34.031953125,87781,24.021790932434804,1013.3132633925536,0,,,,N/A,False
2024-04-02T10:33:13,1.2610175101999996,-0.13698909385,9.774680320999998,0.04520402762665314,-0.008399397025222712,-0.039553524173321496,0.04102,0.28966000000000003,-0.22078000000000003,22.5,1,970,559,769,2579,34.010078125,87146,23.905805038595254,1013.3371254209001,0,,,,N/A,False
2024-04-02T10:33:13,1.36929273285,-0.14177473905,9.94397251995,0.04474587869800463,-0.0054977871437821395,-0.04046982203061852,0.0371,0.29218,-0.21518,22.5,1,970,559,769,2579,34.010078125,87146,23.905805038595254,1013.3371254209001,0,,,,N/A,False
2024-04-02T10:33:13,1.28554394185,-0.11545369045,9.72502925205,0.04230241774521256,-0.008552113334772215,-0.03695734691097993,0.03682,0.28126000000000007,-0.22232000000000002,22.5,1,970,559,769,2579,34.010078125,87146,23.905805038595254,1013.3371254209001,0,,,,N/A,False
2024-04-02T10:33:13,1.3328021881999996,-0.19262221929999998,10.021739254449999,0.047952921198544204,-0.0025961772623415654,-0.039858956792420505,0.03626000000000001,0.29862,-0.2177,22.5,1,970,559,769,2579,33.995625,89646,23.839431939804292,1013.3225617715937,0,,,,N/A,False
2024-04-02T10:33:13,1.3381860390499998,-0.12382856954999999,9.85902731765,0.04306599929296009,0.0018325957145940463,-0.038637226316024474,0.03542,0.2905,-0.21504,22.5,1,973,562,774,2593,34.048359375,91792,23.75631890289421,1013.3003280814971,0,,,,N/A,False
2024-04-02T10:33:13,1.3268201317,-0.30568308715,9.78245699445,0.04291328298341058,-0.010537425358915765,-0.03481931857728687,0.035980000000000005,0.29946000000000006,-0.21280000000000002,22.5,1,973,562,774,2593,34.1290234375,93315,23.702479009255054,1013.2965744661149,0,,,,N/A,False
2024-04-02T10:33:13,1.34416809555,-0.1339980656,9.843473970749999,0.04321871560250959,0.0015271630954950385,-0.038789942625573975,0.04046,0.28798,-0.19026,22.5,1,973,562,774,2593,34.2133984375,94570,23.627178993154295,1013.2952339305058,0,,,,N/A,False
2024-04-02T10:33:13,1.3423734785999997,-0.14656038424999998,9.9349994352,0.04642575810304917,0.006719517620178169,-0.038331793696925465,0.0371,0.29022000000000003,-0.20874,22.5,1,973,562,774,2593,34.2133984375,94570,23.627178993154295,1013.2952339305058,0,,,,N/A,False
2024-04-02T10:33:13,1.2693923892999999,-0.16450655374999998,9.79561751875,0.039706240482871004,-0.006414085001079162,-0.038942658935123484,0.039900000000000005,0.30002000000000006,-0.20734000000000002,22.5,1,973,562,774,2593,34.2133984375,94570,23.627178993154295,1013.2952339305058,0,,,,N/A,False
2024-04-02T10:33:14,1.4027922492499998,-0.13938191645,9.858429112,0.04688390703169768,0.0019853120241435504,-0.03543018381548489,0.0427,0.29694000000000004,-0.21924000000000002,22.5,0,974,561,774,2595,34.288203125,94274,23.562055978312138,1013.2872761407021,0,,,,N/A,False
2024-04-02T10:33:14,1.3722837611,-0.12981062605,9.9684989516,0.048411070127192715,0.00015271630954950385,-0.04382958084070761,0.0441,0.2947000000000001,-0.22554000000000002,22.5,0,974,561,774,2595,34.273359375,93109,23.425225874325655,1013.3118114730252,0,,,,N/A,False
2024-04-02T10:33:14,1.3310075712499998,-0.10408778309999998,9.73699336505,0.04474587869800463,-0.0033597588100890844,-0.03436116964863837,0.034300000000000004,0.29722000000000004,-0.20972000000000002,22.5,0,974,561,774,2595,34.273359375,93109,23.425225874325655,1013.3118114730252,0,,,,N/A,False
2024-04-02T10:33:14,1.2945170265999997,-0.15672988029999999,9.76451082495,0.0435241482216086,-0.008399397025222712,-0.040622538340168025,0.046900000000000004,0.3003,-0.22134000000000004,22.5,0,974,561,774,2595,34.24875,94995,23.38002000251777,1013.3005513495639,0,,,,N/A,False
2024-04-02T10:33:14,1.387837108,-0.16869399329999998,9.98943614935,0.04535674393620265,-0.0009162978572970231,-0.04276056667386108,0.032900000000000006,0.29582,-0.21378000000000003,22.5,1,976,562,777,2602,34.245234375,94676,23.260474429640034,1013.320092879614,0,,,,N/A,False
2024-04-02T10:33:14,1.3106685791500001,-0.11605189609999998,9.906285564,0.04566217655530165,0.005192354524683131,-0.038942658935123484,0.04018000000000001,0.29722000000000004,-0.21392000000000003,22.5,1,976,562,777,2602,34.245234375,94676,23.260474429640034,1013.320092879614,0,,,,N/A,False
2024-04-02T10:33:14,1.3256237203999999,-0.14297115034999996,9.851250644199999,0.040622538340168025,-0.006566801310628666,-0.03512475119638588,0.03626000000000001,0.29722000000000004,-0.21630000000000002,22.5,1,976,562,777,2602,34.24015625,94538,23.21133625515981,1013.3063914016035,0,,,,N/A,False
2024-04-02T10:33:14,1.30947216785,-0.18125631194999997,9.89731247925,0.04505131131710364,-0.0033597588100890844,-0.03924809155422249,0.039060000000000004,0.2888200000000001,-0.21280000000000002,22.5,1,976,562,777,2602,34.24015625,94538,23.21133625515981,1013.3063914016035,0,,,,N/A,False
2024-04-02T10:33:15,1.29511523225,-0.09571290399999999,9.76092159105,0.04428772976935611,-0.004123340357836604,-0.04489859500755413,0.03934,0.29274,-0.21518,22.5,1,976,562,777,2602,34.224140625,95103,23.123520864041662,1013.3163711050468,0,,,,N/A,False
2024-04-02T10:33:15,1.3770694062999997,-0.14536397295,9.959525866849997,0.04306599929296009,-0.0022907446432425577,-0.03772092845872745,0.02842,0.29638000000000003,-0.20720000000000002,22.5,1,976,562,777,2602,34.2008984375,93750,23.040658270272775,1013.3163637470481,0,,,,N/A,False
2024-04-02T10:33:15,1.32382910345,-0.17228322719999997,9.911669414849998,0.04016438941151951,-0.005039638215133627,-0.036804630601430424,0.0315,0.29862,-0.21182,22.5,1,978,563,780,2611,34.206171875,95447,23.00317062212718,1013.3069138093618,0,,,,N/A,False
2024-04-02T10:33:15,1.2825529135999998,-0.09391828705,9.700502820399999,0.041996985126113565,-0.004886921905584123,-0.038942658935123484,0.03262,0.29218,-0.21322000000000002,22.5,1,978,563,780,2611,34.25890625,97431,22.958291420022135,1013.2990654845727,0,,,,N/A,False
2024-04-02T10:33:15,1.33938245035,-0.10408778309999998,9.6634140701,0.04550946024575215,0.0012217304763960308,-0.03695734691097993,0.03514,0.30310000000000004,-0.21504,22.5,1,978,563,780,2611,34.3315625,97997,22.91484890564809,1013.2966160834862,0,,,,N/A,False
2024-04-02T10:33:15,1.3417752729499999,-0.11904292434999998,9.92602635045,0.038942658935123484,-0.0003054326190990077,-0.039706240482871004,0.03122,0.29918,-0.21420000000000003,22.5,1,978,563,780,2611,34.408515625,99323,22.882529009083736,1013.2921210366425,0,,,,N/A,False
2024-04-02T10:33:16,1.3190434582499997,-0.10468598874999999,9.77767134925,0.04260785036431157,-0.0007635815477475193,-0.038789942625573975,0.030940000000000002,0.29862,-0.20566000000000004,22.5,0,979,566,783,2622,34.485078125,100208,22.844773653778024,1013.2797361480356,0,,,,N/A,False
2024-04-02T10:33:16,1.32143628085,-0.12622139215,9.825527801249999,0.04505131131710364,0.0012217304763960308,-0.039095375244672985,0.030660000000000003,0.29358000000000006,-0.21700000000000003,22.5,0,979,566,783,2622,34.553828125,100446,22.795648263371323,1013.2798702721084,0,,,,N/A,False
2024-04-02T10:33:16,1.399801221,-0.13698909385,9.936794052149999,0.04688390703169768,0.0016798794050445422,-0.038789942625573975,0.034300000000000004,0.29666000000000003,-0.21140000000000003,22.5,0,979,566,783,2622,34.553828125,100446,22.795648263371323,1013.2798702721084,0,,,,N/A,False
2024-04-02T10:33:16,1.2957134379,-0.1782652837,9.847661410299999,0.04046982203061852,-0.009926560120717751,-0.041080687268816536,0.03234,0.30338000000000004,-0.21252000000000001,22.5,0,979,566,783,2622,34.553828125,100446,22.795648263371323,1013.2798702721084,0,,,,N/A,False
2024-04-02T10:33:16,1.4135599509499999,-0.11784651304999999,9.81117086565,0.04535674393620265,0.004123340357836604,-0.04016438941151951,0.039900000000000005,0.2947000000000001,-0.21672000000000002,22.5,0,979,566,783,2622,34.6034375,101964,22.745158633230012,1013.2722555528301,0,,,,N/A,False
2024-04-02T10:33:16,1.28793676445,-0.1292124204,9.7794659662,0.04321871560250959,-0.009010262263420728,-0.041386119887915546,0.040740000000000005,0.29834000000000005,-0.22540000000000004,23.5,0,980,566,786,2628,34.56984375,98511,22.656340935540058,1013.3059885818038,0,,,,N/A,False
2024-04-02T10:33:16,1.2969098491999997,-0.1579262916,9.809974454349998,0.04321871560250959,-0.010384709049366262,-0.039553524173321496,0.046900000000000004,0.30142,-0.21434000000000003,22.5,0,980,566,786,2628,34.56984375,98511,22.656340935540058,1013.3059885818038,0,,,,N/A,False
2024-04-02T10:33:16,1.3806586402,-0.1471585899,9.95593663295,0.04474587869800463,0.001069014166846527,-0.001069014166846527,0.03542,0.29806,-0.22260000000000002,22.5,0,980,566,786,2628,34.56984375,98511,22.656340935540058,1013.3059885818038,0,,,,N/A,False
2024-04-02T10:33:16,1.3292129543,-0.13818550515,9.819545744749998,0.03726277953007894,-0.0068722339297276735,-0.03695734691097993,0.03318,0.3003,-0.20356000000000002,22.5,0,980,566,786,2628,34.52765625,99206,22.610153848722817,1013.3004092864413,0,,,,N/A,False
2024-04-02T10:33:17,1.37288196675,-0.12622139215,9.757930562799999,0.041386119887915546,0.002138028333693054,-0.04077525464971753,0.028140000000000005,0.29834000000000005,-0.2023,22.5,0,980,566,786,2628,34.52765625,99206,22.610153848722817,1013.3004092864413,0,,,,N/A,False
2024-04-02T10:33:17,1.31186499045,-0.11724830739999999,9.8057870148,0.04214970143566306,-0.00015271630954950385,-0.03695734691097993,0.038220000000000004,0.29246000000000005,-0.20216000000000003,22.5,0,980,566,786,2628,34.5383984375,100686,22.578539346270738,1013.292640185739,0,,,,N/A,False
2024-04-02T10:33:17,1.28674035315,-0.12323036389999999,9.82433138995,0.04459316238845512,-0.002138028333693054,-0.041386119887915546,0.04662,0.28154,-0.21938000000000002,22.5,0,980,566,786,2628,34.552265625,98916,22.541758034983072,1013.3170618907402,0,,,,N/A,False
2024-04-02T10:33:17,1.3459627125,-0.14416756165,9.959525866849997,0.04505131131710364,-0.00473420559603462,-0.039400807863771994,0.02842,0.2905,-0.2212,22.5,1,982,568,787,2636,34.55265625,100387,22.525603494497158,1013.3068608229868,0,,,,N/A,False
2024-04-02T10:33:17,1.3549357972499998,-0.1746760498,10.03848901265,0.041844268816564056,-0.0013744467859455349,-0.03298672286269283,0.03178,0.29834000000000005,-0.21546,22.5,1,982,568,787,2636,34.55265625,100387,22.525603494497158,1013.3068608229868,0,,,,N/A,False
2024-04-02T10:33:17,1.3148560187,-0.13818550515,9.841679353799998,0.03634648167278191,-0.0024434609527920616,-0.03695734691097993,0.03626000000000001,0.2933,-0.21126000000000003,22.5,1,982,568,787,2636,34.5923046875,101534,22.496052064566427,1013.2956500873529,0,,,,N/A,False
2024-04-02T10:33:17,1.4500504955999998,-0.15672988029999999,9.943374314299998,0.04718933965079669,-0.0013744467859455349,-0.039553524173321496,0.047740000000000005,0.30338000000000004,-0.21336000000000002,22.5,1,982,568,787,2636,34.620625,100446,22.454917169455587,1013.3002829737641,0,,,,N/A,False
2024-04-02T10:33:18,1.2927224096499998,-0.16809578764999997,9.98943614935,0.040622538340168025,-0.007635815477475193,-0.03466660226773738,0.03458000000000001,0.29946000000000006,-0.21294000000000002,22.5,1,982,567,789,2641,34.6235546875,101351,22.44973270176203,1013.2960276520394,0,,,,N/A,False
2024-04-02T10:33:18,1.2933206152999999,-0.14356935599999998,9.6837530622,0.041844268816564056,-0.006719517620178169,-0.03787364476827696,0.0357,0.29554,-0.21952000000000002,22.5,1,982,567,789,2641,34.6532421875,102771,22.44104837522502,1013.2848198212948,0,,,,N/A,False
2024-04-02T10:33:18,1.28793676445,-0.02691925425,9.7794659662,0.039858956792420505,-0.01618792881224741,-0.039095375244672985,0.0357,0.29358000000000006,-0.20902,23.5,1,982,567,789,2641,34.6532421875,102771,22.44104837522502,1013.2848198212948,0,,,,N/A,False
2024-04-02T10:33:18,1.3381860390499998,-0.17048861024999998,9.895517862299998,0.04535674393620265,0.005345070834232635,-0.04092797095926703,0.038220000000000004,0.29414000000000007,-0.22036,22.5,1,982,567,789,2641,34.6532421875,102771,22.44104837522502,1013.2848198212948,0,,,,N/A,False
2024-04-02T10:33:18,1.3004990831,-0.16031911419999997,9.894321451,0.04245513405476207,-0.011606439525762293,-0.04046982203061852,0.038220000000000004,0.28406,-0.21728000000000003,22.5,1,982,567,789,2641,34.6985546875,102708,22.433468119982862,1013.2792095873308,0,,,,N/A,False
2024-04-02T10:33:18,1.3812568458499999,-0.16151552549999998,9.94277610865,0.04428772976935611,-0.00473420559603462,-0.03665191429188092,0.035980000000000005,0.28686,-0.22596,22.5,1,982,567,789,2641,34.6985546875,102708,22.433468119982862,1013.2792095873308,0,,,,N/A,False
2024-04-02T10:33:18,1.3914263418999997,-0.10348957745,9.95593663295,0.041691552507014555,0.0035124751196385882,-0.03726277953007894,0.0371,0.2863,-0.21406000000000003,22.5,1,982,568,792,2647,34.66671875,100030,22.377316034906503,1013.3067947159718,0,,,,N/A,False
2024-04-02T10:33:18,1.3794622288999998,-0.1519442351,9.9170532657,0.038942658935123484,-0.0013744467859455349,-0.039706240482871004,0.03794,0.29498,-0.22400000000000003,22.5,1,982,568,792,2647,34.66671875,100030,22.377316034906503,1013.3067947159718,0,,,,N/A,False
2024-04-02T10:33:18,1.3100703735,-0.13459627124999998,9.681958445249998,0.04382958084070761,-0.008399397025222712,-0.04077525464971753,0.04018000000000001,0.2835,-0.22358,22.5,1,982,568,792,2647,34.66671875,100030,22.377316034906503,1013.3067947159718,0,,,,N/A,False
2024-04-02T10:33:18,1.3519447689999997,-0.12502498085,9.90209812445,0.04306599929296009,-0.0019853120241435504,-0.038484510006474966,0.03878,0.29358000000000006,-0.21742,22.5,1,982,568,792,2647,34.607734375,99793,22.351606421969795,1013.3171989761364,0,,,,N/A,False
2024-04-02T10:33:19,1.3429716842499997,-0.13579268255,9.783653405749998,0.04046982203061852,-0.0070249502392771765,-0.03741549583962844,0.0315,0.2888200000000001,-0.21364000000000002,22.5,1,982,568,792,2647,34.5739453125,102335,22.343840507635438,1013.3036453771725,0,,,,N/A,False
2024-04-02T10:33:19,1.2604193045499996,-0.12861421474999998,9.81715292215,0.0435241482216086,-0.003054326190990077,-0.03527746750593539,0.0315,0.30114,-0.21294000000000002,22.5,1,982,568,792,2647,34.5739453125,102335,22.343840507635438,1013.3036453771725,0,,,,N/A,False
2024-04-02T10:33:19,1.4027922492499998,-0.14536397295,9.9098747979,0.03726277953007894,-0.007635815477475193,-0.0357356164345839,0.037380000000000004,0.29666000000000003,-0.21504,22.5,1,982,568,792,2647,34.5739453125,102335,22.343840507635438,1013.3036453771725,0,,,,N/A,False
2024-04-02T10:33:19,1.3956137814499998,-0.11365907349999999,9.88893760015,0.0433714319120591,-0.0009162978572970231,-0.04214970143566306,0.03402,0.29722000000000004,-0.20860000000000004,22.5,1,982,568,792,2647,34.5973828125,103085,22.33471683526684,1013.2985117795064,0,,,,N/A,False
2024-04-02T10:33:19,1.3477573294499998,-0.13100703735,9.932606612599997,0.043982297150257116,0.0013744467859455349,-0.04001167310197001,0.025060000000000002,0.29974,-0.21798,22.5,1,985,570,795,2657,34.552265625,99323,22.293846674182955,1013.3242873031834,0,,,,N/A,False
2024-04-02T10:33:19,1.2885349701,-0.14416756165,9.8093762487,0.04520402762665314,-0.013439035240356337,-0.038179077387375956,0.04018000000000001,0.29974,-0.21504,22.5,1,985,570,795,2657,34.552265625,99323,22.293846674182955,1013.3242873031834,0,,,,N/A,False
2024-04-02T10:33:19,1.3758729949999997,-0.17168502154999998,9.95593663295,0.041691552507014555,-0.0025961772623415654,-0.03802636107782646,0.03682,0.29302000000000006,-0.21882000000000001,22.5,1,985,570,795,2657,34.552265625,99323,22.293846674182955,1013.3242873031834,0,,,,N/A,False
2024-04-02T10:33:19,1.2311072276999997,-0.1339980656,9.936794052149999,0.04413501345980661,0.0035124751196385882,-0.038179077387375956,0.03878,0.28854,-0.21616000000000002,22.5,1,985,570,795,2657,34.5102734375,101779,22.28013066996431,1013.3099909534092,0,,,,N/A,False
2024-04-02T10:33:20,1.3549357972499998,-0.13160524299999998,9.9098747979,0.04291328298341058,-0.003054326190990077,-0.036499197982331415,0.037660000000000006,0.2975,-0.22442,22.5,1,985,570,795,2657,34.449140625,99499,22.232789178120257,1013.3312946377669,0,,,,N/A,False
2024-04-02T10:33:20,1.3477573294499998,-0.15074782379999999,9.91525864875,0.04245513405476207,-0.0006108652381980154,-0.03756821214917795,0.0413,0.29582,-0.21686000000000002,22.5,1,985,570,795,2657,34.449140625,99499,22.232789178120257,1013.3312946377669,0,,,,N/A,False
2024-04-02T10:33:20,1.32263269215,-0.11724830739999999,9.7830552001,0.03924809155422249,-0.008857545953871223,-0.03695734691097993,0.032900000000000006,0.29638000000000003,-0.21504,22.5,1,985,570,797,2662,34.4075390625,101351,22.229876450129296,1013.317617480518,0,,,,N/A,False
2024-04-02T10:33:20,1.39441737015,-0.13698909385,9.8751788702,0.04428772976935611,-0.00473420559603462,-0.040622538340168025,0.0413,0.29022000000000003,-0.20328000000000002,22.5,1,985,570,797,2662,34.4075390625,101351,22.229876450129296,1013.317617480518,0,,,,N/A,False
2024-04-02T10:33:20,1.2604193045499996,-0.15014961815,9.7519485063,0.03695734691097993,-0.007177666548826681,-0.039858956792420505,0.028980000000000002,0.28798,-0.21084000000000003,22.5,1,985,570,797,2662,34.4075390625,101351,22.229876450129296,1013.317617480518,0,,,,N/A,False
2024-04-02T10:33:20,1.4069796888000001,-0.15912270289999997,9.905089152699999,0.04046982203061852,-0.013133602621257331,-0.038942658935123484,0.03962,0.28770000000000007,-0.20468,22.5,1,985,570,797,2662,34.4258984375,100987,22.209642325484893,1013.329504615444,0,,,,N/A,False
2024-04-02T10:33:20,1.3411770672999999,-0.1447657673,9.76929647015,0.039858956792420505,-0.00946841119206924,-0.04550946024575215,0.04494000000000001,0.29386,-0.21238,22.5,1,985,570,797,2662,34.3622265625,99148,22.178299831383587,1013.3321915822464,0,,,,N/A,False
2024-04-02T10:33:20,1.3160524299999998,-0.1363908882,9.780064171849999,0.04459316238845512,-0.012522737383059314,-0.03924809155422249,0.038220000000000004,0.29414000000000007,-0.22134000000000004,22.5,1,985,570,797,2662,34.3622265625,99148,22.178299831383587,1013.3321915822464,0,,,,N/A,False
2024-04-02T10:33:21,1.3381860390499998,-0.16091731985,9.815956510849999,0.04550946024575215,-0.008704829644321718,-0.038942658935123484,0.039060000000000004,0.29414000000000007,-0.21882000000000001,22.5,1,988,571,798,2669,34.324140625,101779,22.164887138186657,1013.309789049068,0,,,,N/A,False
2024-04-02T10:33:21,1.256231865,-0.1483550012,9.7818587888,0.04214970143566306,-0.012064588454410803,-0.040317105721069016,0.027300000000000005,0.30086,-0.21336000000000002,22.5,1,988,571,798,2669,34.343671875,100327,22.15549738767417,1013.3127584451645,0,,,,N/A,False
2024-04-02T10:33:21,1.23050902205,-0.1531406464,9.731609514199999,0.04260785036431157,-0.006566801310628666,-0.03756821214917795,0.03262,0.2933,-0.20706000000000002,22.5,1,988,571,798,2669,34.343671875,100327,22.15549738767417,1013.3127584451645,0,,,,N/A,False
2024-04-02T10:33:21,1.3591232368,-0.16570296504999998,9.984052298499998,0.043982297150257116,-0.008857545953871223,-0.040622538340168025,0.045500000000000006,0.29078000000000004,-0.22064,22.5,1,988,571,798,2669,34.364375,102397,22.146189331694178,1013.2995795241619,0,,,,N/A,False
2024-04-02T10:33:21,1.3854442854,-0.1339980656,9.92363352785,0.04306599929296009,-0.0070249502392771765,-0.03634648167278191,0.037380000000000004,0.29722000000000004,-0.22484000000000004,22.5,1,988,571,798,2669,34.364375,102397,22.146189331694178,1013.2995795241619,0,,,,N/A,False
2024-04-02T10:33:21,1.3627124707,-0.15613167464999997,9.932008406949999,0.04077525464971753,-0.0036651914291880926,-0.04123340357836604,0.030660000000000003,0.29190000000000005,-0.21462000000000003,22.5,1,988,571,798,2669,34.364375,102397,22.146189331694178,1013.2995795241619,0,,,,N/A,False
2024-04-02T10:33:21,1.4069796888000001,-0.16450655374999998,9.926624556099998,0.04230241774521256,-0.038637226316024474,-0.03741549583962844,0.03458000000000001,0.29134000000000004,-0.21028000000000002,22.5,1,988,571,798,2669,34.4063671875,102025,22.138365946082505,1013.3066761971933,0,,,,N/A,False
2024-04-02T10:33:21,1.3543375915999998,-0.1004985492,9.925428144799998,0.04612032548395016,0.00473420559603462,-0.039553524173321496,0.04046,0.28378000000000003,-0.21910000000000002,22.5,0,987,571,800,2672,34.4346875,104749,22.134964918756495,1013.295078019665,0,,,,N/A,False
2024-04-02T10:33:21,1.2765708571,-0.13579268255,9.78245699445,0.04230241774521256,0.003970624048287101,-0.0355829001250344,0.04018000000000001,0.29274,-0.21434000000000003,22.5,0,987,571,800,2672,34.4346875,104749,22.134964918756495,1013.295078019665,0,,,,N/A,False
2024-04-02T10:33:21,1.29750805485,-0.15373885204999999,9.780064171849999,0.04092797095926703,-0.009926560120717751,-0.03604104905368291,0.032900000000000006,0.29890000000000005,-0.2121,22.5,0,987,571,800,2672,34.4346875,104749,22.134964918756495,1013.295078019665,0,,,,N/A,False
2024-04-02T10:33:22,1.3615160593999998,-0.18185451760000002,9.870991430649998,0.04321871560250959,-0.00595593607243065,-0.037110063220529434,0.044660000000000005,0.30198,-0.21266000000000002,22.5,0,987,571,800,2672,34.4971875,104167,22.128571231747717,1013.2796176607216,0,,,,N/A,False
2024-04-02T10:33:22,1.37288196675,-0.17048861024999998,9.9158568544,0.038789942625573975,-0.004276056667386108,-0.039400807863771994,0.03878,0.29414000000000007,-0.20972000000000002,22.5,0,987,571,800,2672,34.4971875,104167,22.128571231747717,1013.2796176607216,0,,,,N/A,False
2024-04-02T10:33:22,1.29511523225,-0.11425727914999999,9.7304131029,0.04428772976935611,-0.003054326190990077,-0.04245513405476207,0.03318,0.2947000000000001,-0.21448000000000003,22.5,0,987,571,800,2672,34.4971875,104167,22.128571231747717,1013.2796176607216,0,,,,N/A,False
2024-04-02T10:33:22,1.4135599509499999,-0.13818550515,9.978070242,0.039400807863771994,-0.0038179077387375964,-0.03756821214917795,0.0427,0.29106,-0.21504,22.5,0,987,571,800,2672,34.48234375,101657,22.106030500742524,1013.30598126185,0,,,,N/A,False
2024-04-02T10:33:22,1.3842478741,-0.1280160091,9.852447055499999,0.0433714319120591,-0.0006108652381980154,-0.04382958084070761,0.046340000000000006,0.29106,-0.21882000000000001,22.5,1,987,572,800,2676,34.4637890625,103337,22.0993619853922,1013.2973921658823,0,,,,N/A,False
2024-04-02T10:33:22,1.3698909385,-0.18245272324999998,9.958927661199999,0.0433714319120591,0.0006108652381980154,-0.001069014166846527,0.0371,0.29274,-0.2121,22.5,1,987,572,800,2676,34.504609375,105075,22.080704059466036,1013.2989470139378,0,,,,N/A,False
2024-04-02T10:33:22,1.3818550515,-0.16929219894999997,9.944570725599998,0.04444044607890562,-0.013286318930806834,-0.04016438941151951,0.04046,0.29022000000000003,-0.2093,22.5,1,987,572,800,2676,34.5657421875,105667,22.084962011869152,1013.2902677920481,0,,,,N/A,False
2024-04-02T10:33:22,1.3591232368,-0.17587246110000002,9.92961558435,0.04444044607890562,-0.007635815477475193,-0.04077525464971753,0.03962,0.29834000000000005,-0.22064,22.5,1,987,572,800,2676,34.5657421875,105667,22.084962011869152,1013.2902677920481,0,,,,N/A,False
2024-04-02T10:33:23,1.31425781305,-0.1363908882,9.777073143599997,0.041691552507014555,0.0019853120241435504,-0.039858956792420505,0.039060000000000004,0.29638000000000003,-0.21126000000000003,22.5,1,987,572,800,2676,34.6368359375,107211,22.079162915063684,1013.2815534547204,0,,,,N/A,False
2024-04-02T10:33:23,1.4081761001,-0.18125631194999997,10.0163554036,0.04001167310197001,-0.013439035240356337,-0.03695734691097993,0.030380000000000004,0.29974,-0.20650000000000002,22.5,1,987,572,801,2678,34.6809765625,105733,22.04997951303024,1013.2993296163324,0,,,,N/A,False
2024-04-02T10:33:23,1.3286147486499997,-0.15732808594999997,9.814760099549998,0.041691552507014555,-0.007330382858376185,-0.04092797095926703,0.04018000000000001,0.25634,-0.22358,22.5,1,987,572,801,2678,34.6919140625,106736,22.029238166918713,1013.2810292297952,0,,,,N/A,False
2024-04-02T10:33:23,1.2963116435499997,-0.14955141249999998,9.792626490499998,0.043676864531158106,-0.0038179077387375964,-0.04046982203061852,0.03878,0.2829400000000001,-0.21280000000000002,22.5,1,987,572,801,2678,34.7282421875,107621,22.015639405940746,1013.2679895620178,0,,,,N/A,False
2024-04-02T10:33:23,1.2687941836499999,-0.13758729949999998,9.67597638875,0.04123340357836604,-0.009010262263420728,-0.040317105721069016,0.035980000000000005,0.2823800000000001,-0.21252000000000001,22.5,1,987,572,801,2678,34.7282421875,107621,22.015639405940746,1013.2679895620178,0,,,,N/A,False
2024-04-02T10:33:23,1.3579268255,-0.12562318649999998,9.877571692799998,0.048258353817643214,-0.00015271630954950385,-0.04245513405476207,0.040740000000000005,0.29022000000000003,-0.21308000000000002,22.5,1,987,572,801,2678,34.7282421875,107621,22.015639405940746,1013.2679895620178,0,,,,N/A,False
2024-04-02T10:33:23,1.3010972887499999,-0.12382856954999999,9.92363352785,0.041844268816564056,0.003207042500539581,-0.03756821214917795,0.03682,0.29778000000000004,-0.21028000000000002,22.5,1,989,573,804,2686,34.7782421875,109720,21.997615622800584,1013.2609692555097,0,,,,N/A,False
2024-04-02T10:33:23,1.3770694062999997,-0.12562318649999998,9.8608219346,0.048411070127192715,-0.0012217304763960308,-0.03787364476827696,0.03682,0.28714000000000006,-0.20692000000000002,22.5,1,989,573,804,2686,34.7782421875,109720,21.997615622800584,1013.2609692555097,0,,,,N/A,False
2024-04-02T10:33:23,1.2574282763,-0.19381863059999999,9.78245699445,0.040317105721069016,-0.01145372321621279,-0.03420845333908886,0.03318,0.2975,-0.20664000000000002,22.5,1,989,573,804,2686,34.7782421875,109720,21.997615622800584,1013.2609692555097,0,,,,N/A,False
2024-04-02T10:33:23,1.3483555351,-0.14117653339999997,9.88295554365,0.04230241774521256,0.0006108652381980154,-0.039553524173321496,0.04018000000000001,0.28126000000000007,-0.21462000000000003,22.5,1,989,573,804,2686,34.7407421875,104684,21.930531135566287,1013.281142307503,0,,,,N/A,False
2024-04-02T10:33:24,1.44107741085,-0.1806581063,10.0438728635,0.04046982203061852,-0.038637226316024474,-0.040317105721069016,0.04438,0.28574,-0.20986000000000002,22.5,1,989,573,804,2686,34.7407421875,104684,21.930531135566287,1013.281142307503,0,,,,N/A,False
2024-04-02T10:33:24,1.3818550515,-0.1363908882,9.95115098775,0.04413501345980661,-0.002901609881440573,-0.04245513405476207,0.03794,0.29414000000000007,-0.20860000000000004,22.5,1,989,573,804,2686,34.694453125,106669,21.911210676862183,1013.285169200301,0,,,,N/A,False
2024-04-02T10:33:24,1.4105689226999998,-0.12741780345,9.99661461715,0.04153883619746505,-0.007177666548826681,-0.038942658935123484,0.03794,0.28686,-0.20258,22.5,1,989,573,804,2686,34.694453125,106669,21.911210676862183,1013.285169200301,0,,,,N/A,False
2024-04-02T10:33:24,1.34536450685,-0.10229316614999999,9.8189475391,0.04230241774521256,0.0044287729769356115,-0.03741549583962844,0.03962,0.29078000000000004,-0.21308000000000002,22.5,1,989,573,804,2686,34.694453125,106669,21.911210676862183,1013.285169200301,0,,,,N/A,False
2024-04-02T10:33:24,1.4099707170499998,-0.15553346899999998,9.97866844765,0.04474587869800463,-0.002901609881440573,-0.038331793696925465,0.038220000000000004,0.28574,-0.20566000000000004,22.5,1,989,573,804,2686,34.682734375,104944,21.867443562360638,1013.3040025496829,0,,,,N/A,False
2024-04-02T10:33:24,1.23050902205,-0.1280160091,9.80399239785,0.038637226316024474,-0.003054326190990077,-0.038331793696925465,0.03402,0.29862,-0.19698000000000002,22.5,0,988,574,804,2687,34.6676953125,107211,21.844932453236247,1013.2921270887027,0,,,,N/A,False
2024-04-02T10:33:24,1.3962119870999998,-0.1328016543,10.07438135165,0.039095375244672985,-0.0003054326190990077,-0.0009162978572970231,0.04494000000000001,0.29918,-0.21658000000000002,22.5,0,988,574,804,2687,34.6676953125,107211,21.844932453236247,1013.2921270887027,0,,,,N/A,False
2024-04-02T10:33:24,1.36331067635,-0.15074782379999999,9.940383286049999,0.04612032548395016,-0.006414085001079162,-0.03802636107782646,0.03262,0.28966000000000003,-0.21322000000000002,22.5,0,988,574,804,2687,34.6989453125,108312,21.841722679982176,1013.2798464991325,0,,,,N/A,False
2024-04-02T10:33:24,1.3668999102499997,-0.15553346899999998,9.87697348715,0.04016438941151951,-0.013133602621257331,-0.03772092845872745,0.04522,0.28602000000000005,-0.21938000000000002,22.5,0,988,574,804,2687,34.6989453125,108312,21.841722679982176,1013.2798464991325,0,,,,N/A,False
2024-04-02T10:33:25,1.3106685791500001,-0.0945164927,9.725627457699998,0.0435241482216086,-0.006414085001079162,-0.040317105721069016,0.03262,0.2975,-0.22064,22.5,0,988,574,804,2687,34.6997265625,105999,21.79347572872979,1013.2955743657451,0,,,,N/A,False
2024-04-02T10:33:25,1.3292129543,-0.1387837108,9.88415195495,0.04444044607890562,0.002901609881440573,-0.038789942625573975,0.034300000000000004,0.29554,-0.21350000000000002,22.5,0,988,574,804,2687,34.6997265625,105999,21.79347572872979,1013.2955743657451,0,,,,N/A,False
2024-04-02T10:33:25,1.27836547405,-0.15254244074999998,9.777073143599997,0.0435241482216086,-0.0013744467859455349,-0.03741549583962844,0.03962,0.29274,-0.21504,22.5,1,989,574,805,2689,34.6657421875,105337,21.78040376970995,1013.3015890033622,0,,,,N/A,False
2024-04-02T10:33:25,1.3381860390499998,-0.15732808594999997,9.8739824589,0.04382958084070761,-0.002138028333693054,-0.037110063220529434,0.03262,0.2947000000000001,-0.21336000000000002,22.5,1,989,574,805,2689,34.6270703125,104231,21.740196413297348,1013.316212964723,0,,,,N/A,False
2024-04-02T10:33:25,1.3615160593999998,-0.11724830739999999,9.898508890549998,0.04612032548395016,0.0025961772623415654,-0.041386119887915546,0.03934,0.2891,-0.20706000000000002,22.5,1,989,574,805,2689,34.6067578125,105733,21.738800224038705,1013.3047674421829,0,,,,N/A,False
2024-04-02T10:33:25,1.4027922492499998,-0.15972090854999998,9.916455060049998,0.038179077387375956,-0.004886921905584123,-0.038484510006474966,0.03178,0.28658000000000006,-0.2009,22.5,1,989,574,805,2689,34.6067578125,105733,21.738800224038705,1013.3047674421829,0,,,,N/A,False
2024-04-02T10:33:25,1.3585250311500001,-0.1292124204,9.85902731765,0.04566217655530165,-0.00473420559603462,-0.0018325957145940463,0.03962,0.29302000000000006,-0.22176,22.5,1,989,574,805,2689,34.6067578125,105733,21.738800224038705,1013.3047674421829,0,,,,N/A,False
2024-04-02T10:33:25,1.2789636797,-0.15972090854999998,9.89013401145,0.03924809155422249,-0.010384709049366262,-0.03588833274413341,0.032060000000000005,0.28546000000000005,-0.23072000000000004,22.5,1,989,574,805,2689,34.642109375,108035,21.735867441047382,1013.2829260811766,0,,,,N/A,False
2024-04-02T10:33:26,1.3304093655999998,-0.11306086784999998,9.7806623775,0.038484510006474966,0.00045814892864851157,-0.039706240482871004,0.03654,0.2905,-0.21868,22.5,0,991,575,807,2696,34.6997265625,108941,21.729102059441,1013.2738933039291,0,,,,N/A,False
2024-04-02T10:33:26,1.3112667848,-0.12203395259999998,9.735198748099998,0.0433714319120591,-0.004581489286485115,-0.04001167310197001,0.03934,0.28462,-0.20888,22.5,0,991,575,807,2696,34.6997265625,108941,21.729102059441,1013.2738933039291,0,,,,N/A,False
2024-04-02T10:33:26,1.3501501520499999,-0.15672988029999999,9.78245699445,0.039858956792420505,-0.00916297857297023,-0.03726277953007894,0.03626000000000001,0.29078000000000004,-0.20594000000000004,22.5,0,991,575,807,2696,34.760078125,110222,21.738615970195816,1013.276529454819,0,,,,N/A,False
2024-04-02T10:33:26,1.2843475305499996,-0.13998012209999997,9.7076812882,0.0433714319120591,-0.008857545953871223,-0.039858956792420505,0.028140000000000005,0.29190000000000005,-0.21518,22.5,0,991,575,807,2696,34.760078125,110222,21.738615970195816,1013.276529454819,0,,,,N/A,False
2024-04-02T10:33:26,1.4021940436,-0.15493526335,10.0749795573,0.04214970143566306,-0.0009162978572970231,-0.0007635815477475193,0.03458000000000001,0.29526,-0.19656000000000004,22.5,0,991,575,807,2696,34.760078125,110222,21.738615970195816,1013.276529454819,0,,,,N/A,False
2024-04-02T10:33:26,1.3716855554499998,-0.10348957745,9.7340023368,0.04016438941151951,-0.010231992739816757,-0.038942658935123484,0.037380000000000004,0.29722000000000004,-0.2121,22.5,0,991,575,807,2696,34.787421875,107143,21.71904025453464,1013.2958118573724,0,,,,N/A,False
2024-04-02T10:33:26,1.2945170265999997,-0.09990034354999999,9.786644434,0.041691552507014555,-0.0012217304763960308,-0.038942658935123484,0.04354000000000001,0.2835,-0.21126000000000003,22.5,0,990,574,807,2694,34.78859375,110150,21.71375710166901,1013.2814594151698,0,,,,N/A,False
2024-04-02T10:33:26,1.3172488412999999,-0.1387837108,9.726823868999999,0.04489859500755413,-0.006261368691529657,-0.038637226316024474,0.03654,0.27566,-0.20734000000000002,22.5,0,990,574,807,2694,34.78859375,110150,21.71375710166901,1013.2814594151698,0,,,,N/A,False
2024-04-02T10:33:26,1.3208380751999997,-0.29611179675,9.877571692799998,0.04016438941151951,-0.011606439525762293,-0.038331793696925465,0.040740000000000005,0.27986,-0.20972000000000002,22.5,0,990,574,807,2694,34.78859375,110150,21.71375710166901,1013.2814594151698,0,,,,N/A,False
2024-04-02T10:33:26,1.4213366244,-0.1471585899,9.926624556099998,0.04596760917440065,0.0019853120241435504,-0.03665191429188092,0.040740000000000005,0.28490000000000004,-0.21182,22.5,0,990,574,807,2694,34.81828125,110222,21.715797955402035,1013.2828753063369,0,,,,N/A,False
2024-04-02T10:33:27,1.3746765837,-0.16749758199999998,9.891330422749999,0.04016438941151951,-0.007941248096574201,-0.040317105721069016,0.044660000000000005,0.28854,-0.20902,22.5,0,990,574,807,2694,34.76828125,105932,21.669461565066307,1013.3025521312097,0,,,,N/A,False
2024-04-02T10:33:27,1.3525429746499997,-0.1782652837,9.855438083749998,0.04260785036431157,-0.010995574287564279,-0.0003054326190990077,0.04186000000000001,0.28742,-0.21280000000000002,22.5,0,990,574,807,2693,34.7145703125,107759,21.665777645730685,1013.2872550641109,0,,,,N/A,False
2024-04-02T10:33:27,1.2939188209499997,-0.08554340794999998,9.864411168499998,0.04276056667386108,0.004123340357836604,-0.03604104905368291,0.038500000000000006,0.2905,-0.20412000000000002,22.5,1,989,573,808,2693,34.7253125,108173,21.666514289857098,1013.2722470809517,0,,,,N/A,False
2024-04-02T10:33:27,1.3286147486499997,-0.16689937635,9.8919286284,0.04214970143566306,-0.013591751549905842,-0.03390302071998985,0.038500000000000006,0.27790000000000004,-0.21266000000000002,22.5,1,989,573,808,2693,34.7665234375,109153,21.658618342124292,1013.2707752103034,0,,,,N/A,False
2024-04-02T10:33:27,1.29032958705,-0.12143574694999999,9.7196454012,0.0,-0.0056505034533316425,-0.03741549583962844,0.0413,0.28994000000000003,-0.21924000000000002,22.5,1,989,573,808,2693,34.8114453125,111607,21.656337737317106,1013.2663098551535,0,,,,N/A,False
2024-04-02T10:33:27,1.2813565023,-0.12263215824999998,9.750752095,0.03405573702953936,-0.006719517620178169,-0.036804630601430424,0.0441,0.2863,-0.20860000000000004,22.5,1,989,573,808,2693,34.8114453125,111607,21.656337737317106,1013.2663098551535,0,,,,N/A,False
2024-04-02T10:33:27,1.3842478741,-0.09092725880000001,9.9493563708,0.04428772976935611,-0.0012217304763960308,-0.039095375244672985,0.0427,0.28686,-0.21504,22.5,1,989,573,808,2693,34.8114453125,111607,21.656337737317106,1013.2663098551535,0,,,,N/A,False
2024-04-02T10:33:27,1.3351950108,-0.15553346899999998,9.80877804305,0.04245513405476207,-0.00946841119206924,-0.038331793696925465,0.03878,0.2905,-0.21812000000000004,22.5,1,989,573,808,2693,34.854609375,110656,21.65393665222336,1013.266197914923,0,,,,N/A,False
2024-04-02T10:33:28,1.3387842447,-0.17647066675,9.90209812445,0.04688390703169768,-0.0070249502392771765,-0.041996985126113565,0.037660000000000006,0.28938,-0.21322000000000002,22.5,0,989,572,807,2694,34.854609375,110656,21.65393665222336,1013.266197914923,0,,,,N/A,False
2024-04-02T10:33:28,1.3722837611,-0.18544375149999998,9.9086783866,0.04092797095926703,-0.0009162978572970231,-0.038484510006474966,0.03374,0.28826000000000007,-0.21168,22.5,0,989,572,807,2694,34.9003125,112052,21.651709827678317,1013.264794353934,0,,,,N/A,False
2024-04-02T10:33:28,1.3674981158999997,-0.15014961815,9.993025383249998,0.04382958084070761,-0.0070249502392771765,-0.038179077387375956,0.02842,0.27902000000000005,-0.21588000000000002,22.5,0,989,572,807,2694,34.944453125,113407,21.649375899919406,1013.2644491079604,0,,,,N/A,False
2024-04-02T10:33:28,1.3800604345499998,-0.11485548479999999,9.8799645154,0.04245513405476207,0.0,-0.03481931857728687,0.03234,0.28014000000000006,-0.20356000000000002,22.5,0,989,572,807,2694,34.9844921875,111607,21.646760553587892,1013.2646400715407,0,,,,N/A,False
2024-04-02T10:33:28,1.33698962775,-0.12622139215,9.77767134925,0.04230241774521256,0.001069014166846527,-0.039400807863771994,0.03794,0.2905,-0.21490000000000004,22.5,1,844,511,771,2467,35.019453125,113179,21.633069970493956,1013.2673932507565,0,,,,N/A,False
2024-04-02T10:33:28,1.2957134379,-0.1088734283,9.9290173787,0.04535674393620265,0.004581489286485115,-0.03787364476827696,0.03374,0.28798,-0.19866000000000003,22.5,1,844,511,771,2467,35.019453125,113179,21.633069970493956,1013.2673932507565,0,,,,N/A,False
2024-04-02T10:33:28,1.2514462198,-0.13998012209999997,9.792626490499998,0.04046982203061852,-0.006108652381980154,-0.038637226316024474,0.02562,0.28966000000000003,-0.20272000000000004,22.5,1,844,511,771,2467,35.0493359375,113713,21.6136678936692,1013.267288286661,0,,,,N/A,False
2024-04-02T10:33:29,1.3585250311500001,-0.12442677519999999,9.722038223799998,0.04153883619746505,-0.006414085001079162,-0.038637226316024474,0.034300000000000004,0.28602000000000005,-0.20804000000000003,22.5,1,844,511,771,2467,35.0407421875,110150,21.58626859796185,1013.2930518799783,0,,,,N/A,False
2024-04-02T10:33:29,1.3501501520499999,-0.17228322719999997,9.961320483799998,0.04489859500755413,-0.0024434609527920616,-0.04001167310197001,0.039060000000000004,0.29414000000000007,-0.20902,22.5,1,844,511,771,2467,35.007734375,112500,21.573286852287687,1013.2826383906395,0,,,,N/A,False
2024-04-02T10:33:29,1.2741780345,-0.15433705769999997,9.78245699445,0.04092797095926703,-0.004276056667386108,-0.07712173632249944,0.038500000000000006,0.29078000000000004,-0.21420000000000003,22.5,1,495,363,684,1918,35.007734375,112500,21.573286852287687,1013.2826383906395,0,,,,N/A,False
2024-04-02T10:33:29,1.35134656335,-0.14117653339999997,9.8010013696,0.04550946024575215,-0.008246680715673207,-0.036499197982331415,0.041580000000000006,0.29218,-0.20314000000000002,22.5,1,495,363,684,1918,35.0102734375,111020,21.546660448882015,1013.2795462629434,0,,,,N/A,False
2024-04-02T10:33:29,1.2885349701,-0.17108681589999997,9.8668039911,0.041996985126113565,-0.008399397025222712,-0.03451388595818787,0.04578,0.28434000000000004,-0.21224,22.5,1,495,363,684,1918,35.0102734375,111020,21.546660448882015,1013.2795462629434,0,,,,N/A,False
2024-04-02T10:33:29,1.2993026717999998,-0.12263215824999998,9.789037256599999,0.041691552507014555,0.0019853120241435504,-0.04001167310197001,0.040740000000000005,0.28714000000000006,-0.20888,22.5,1,495,363,684,1918,35.0102734375,111020,21.546660448882015,1013.2795462629434,0,,,,N/A,False
2024-04-02T10:33:29,1.30468652265,-0.16510475939999997,9.89970530185,0.04520402762665314,-0.014202616788103858,-0.041386119887915546,0.03682,0.29246000000000005,-0.20608,22.5,1,495,363,684,1918,34.9909375,108941,21.513187443836692,1013.2914130923839,0,,,,N/A,False
2024-04-02T10:33:29,1.2873385588,-0.09571290399999999,9.7567341515,0.04321871560250959,-0.003207042500539581,-0.03756821214917795,0.03262,0.29582,-0.20272000000000004,22.5,1,495,363,684,1918,34.8876171875,106132,21.484714215480757,1013.3127766569964,0,,,,N/A,False
2024-04-02T10:33:30,1.2987044661499998,-0.11964112999999998,9.8261260069,0.04382958084070761,0.0,-0.039553524173321496,0.035980000000000005,0.2905,-0.20818,22.5,1,495,363,684,1918,34.8876171875,106132,21.484714215480757,1013.3127766569964,0,,,,N/A,False
2024-04-02T10:33:30,1.2963116435499997,-0.15852449724999998,9.78604622835,0.041386119887915546,-0.009926560120717751,-0.039095375244672985,0.03402,0.29610000000000003,-0.21490000000000004,22.5,1,495,363,684,1918,34.81046875,108591,21.48481356294422,1013.2972448772535,0,,,,N/A,False
2024-04-02T10:33:30,1.3800604345499998,-0.15134602945,9.879366309749999,0.04459316238845512,-0.007330382858376185,-0.03726277953007894,0.0371,0.3017,-0.2044,22.5,1,495,363,684,1918,34.81046875,108591,21.48481356294422,1013.2972448772535,0,,,,N/A,False
2024-04-02T10:33:30,1.3980066040499999,-0.13998012209999997,9.89013401145,0.04520402762665314,-0.001069014166846527,-0.038942658935123484,0.046900000000000004,0.28434000000000004,-0.21112000000000003,22.5,1,495,363,684,1918,34.78546875,107621,21.45634292702654,1013.2998555750236,0,,,,N/A,False
2024-04-02T10:33:30,1.3824532571500001,-0.17168502154999998,9.949954576449999,0.04688390703169768,-0.005039638215133627,-0.0435241482216086,0.04886000000000001,0.28826000000000007,-0.2079,22.5,1,495,363,684,1918,34.78546875,107621,21.45634292702654,1013.2998555750236,0,,,,N/A,False
2024-04-02T10:33:30,1.30229370005,-0.13938191645,9.739386187649998,0.040622538340168025,0.0025961772623415654,-0.03726277953007894,0.030940000000000002,0.2933,-0.21966000000000002,22.5,1,495,363,684,1918,34.78546875,107621,21.45634292702654,1013.2998555750236,0,,,,N/A,False
2024-04-02T10:33:30,1.3411770672999999,-0.18843477974999998,9.9158568544,0.04306599929296009,-0.01069014166846527,-0.039706240482871004,0.03962,0.29610000000000003,-0.20398000000000002,22.5,1,495,363,684,1918,34.7524609375,106804,21.454098103670837,1013.3110900968117,0,,,,N/A,False
2024-04-02T10:33:30,1.3920245475499997,-0.1878365741,9.94397251995,0.04520402762665314,-0.006414085001079162,-0.04016438941151951,0.034300000000000004,0.29666000000000003,-0.21364000000000002,22.5,0,495,363,686,1919,34.73546875,110150,21.463647841320046,1013.2869992774515,0,,,,N/A,False
2024-04-02T10:33:30,1.4039886605499998,-0.15613167464999997,9.896714273599999,0.04245513405476207,-0.007483099167925688,-0.04001167310197001,0.034300000000000004,0.30142,-0.21966000000000002,22.5,0,495,363,686,1919,34.73546875,110150,21.463647841320046,1013.2869992774515,0,,,,N/A,False
2024-04-02T10:33:30,1.3980066040499999,-0.11306086784999998,9.955338427300001,0.04459316238845512,-0.0035124751196385882,-0.04214970143566306,0.034300000000000004,0.29806,-0.20986000000000002,22.5,0,495,363,686,1919,34.73546875,110150,21.463647841320046,1013.2869992774515,0,,,,N/A,False
2024-04-02T10:33:31,1.2753744458,-0.14656038424999998,9.799206752649999,0.041996985126113565,-0.0038179077387375964,-0.036804630601430424,0.0357,0.29974,-0.21000000000000002,22.5,0,495,363,686,1919,34.76828125,112201,21.455173943287924,1013.2772549254576,0,,,,N/A,False
2024-04-02T10:33:31,1.3363914221,-0.12442677519999999,9.8560362894,0.04780020488899471,-0.0027488935718910697,-0.043676864531158106,0.03962,0.2947000000000001,-0.21252000000000001,22.5,0,495,363,686,1919,34.73390625,106939,21.431429019461877,1013.300713375754,0,,,,N/A,False
2024-04-02T10:33:31,1.3381860390499998,-0.1304088317,9.780064171849999,0.03726277953007894,0.006414085001079162,-0.03665191429188092,0.032900000000000006,0.29778000000000004,-0.19474,22.5,0,495,363,686,1919,34.73390625,106939,21.431429019461877,1013.300713375754,0,,,,N/A,False
2024-04-02T10:33:31,1.36929273285,-0.16630117069999997,9.847661410299999,0.04673119072214818,-0.009315694882519735,-0.038484510006474966,0.032900000000000006,0.30590000000000006,-0.21462000000000003,22.5,0,496,364,684,1920,34.696015625,109436,21.434206587654614,1013.2895236211283,0,,,,N/A,False
2024-04-02T10:33:31,1.37527478935,-0.14297115034999996,9.958329455549999,0.04474587869800463,0.0025961772623415654,-0.041844268816564056,0.03458000000000001,0.29918,-0.20622000000000001,22.5,1,496,364,684,1920,34.696015625,109436,21.434206587654614,1013.2895236211283,0,,,,N/A,False
2024-04-02T10:33:31,1.3770694062999997,-0.15014961815,10.012766169699999,0.04581489286485116,-0.0013744467859455349,-0.041844268816564056,0.03962,0.2888200000000001,-0.19922000000000004,22.5,1,496,364,684,1920,34.70265625,108661,21.42930655557331,1013.2877039280368,0,,,,N/A,False
2024-04-02T10:33:31,1.32741833735,-0.1782652837,9.944570725599998,0.041844268816564056,-0.003207042500539581,-0.041996985126113565,0.0315,0.30198,-0.21504,22.5,1,496,364,684,1920,34.70265625,108661,21.42930655557331,1013.2877039280368,0,,,,N/A,False
2024-04-02T10:33:31,1.27836547405,-0.13339985995,9.7399843933,0.041386119887915546,-0.0022907446432425577,-0.04016438941151951,0.03318,0.29554,-0.20902,22.5,1,496,364,684,1920,34.66515625,106804,21.416059986639915,1013.302440236357,0,,,,N/A,False
2024-04-02T10:33:31,1.32741833735,-0.12023933564999999,9.8668039911,0.048716502746291725,-0.0009162978572970231,-0.040317105721069016,0.03962,0.29722000000000004,-0.20692000000000002,22.5,1,496,364,684,1920,34.66515625,106804,21.416059986639915,1013.302440236357,0,,,,N/A,False
2024-04-02T10:33:32,1.3351950108,-0.14775679555,9.823134978649998,0.041996985126113565,-0.008246680715673207,-0.0357356164345839,0.03934,0.28854,-0.20706000000000002,22.5,1,496,364,684,1920,34.6247265625,107075,21.413317032332476,1013.3015517034979,0,,,,N/A,False
2024-04-02T10:33:32,1.3064811395999998,-0.1304088317,9.681360239599998,0.039553524173321496,-0.004886921905584123,-0.03772092845872745,0.047740000000000005,0.29526,-0.21266000000000002,22.5,1,495,364,686,1921,34.6247265625,107075,21.413317032332476,1013.3015517034979,0,,,,N/A,False
2024-04-02T10:33:32,1.4452648504,-0.16630117069999997,9.9625168951,0.04810563750809371,-0.004123340357836604,-0.039400807863771994,0.032060000000000005,0.28266,-0.19950000000000004,22.5,1,495,364,686,1921,34.5911328125,107827,21.40034130009618,1013.3081907296764,0,,,,N/A,False
2024-04-02T10:33:32,1.3477573294499998,-0.16570296504999998,9.949954576449999,0.04291328298341058,-0.009926560120717751,-0.04260785036431157,0.03234,0.28770000000000007,-0.20636000000000002,22.5,1,495,364,686,1921,34.56203125,107007,21.393021069303526,1013.3095053373758,0,,,,N/A,False
2024-04-02T10:33:32,1.3387842447,-0.12323036389999999,9.9242317335,0.041996985126113565,-0.001069014166846527,-0.036193765363232405,0.03626000000000001,0.3003,-0.20748000000000003,22.5,1,495,364,686,1921,34.55578125,109082,21.39794544012479,1013.2956999526463,0,,,,N/A,False
2024-04-02T10:33:32,1.4123635396499998,-0.15014961815,9.9876415324,0.043982297150257116,-0.00045814892864851157,-0.04123340357836604,0.0371,0.29386,-0.21000000000000002,22.5,1,495,364,686,1921,34.55578125,109082,21.39794544012479,1013.2956999526463,0,,,,N/A,False
2024-04-02T10:33:32,1.2652049497499998,-0.1280160091,9.6825566509,0.04092797095926703,-0.011759155835311796,-0.038637226316024474,0.037380000000000004,0.29022000000000003,-0.20482000000000003,22.5,1,495,364,686,1921,34.55578125,109082,21.39794544012479,1013.2956999526463,0,,,,N/A,False
2024-04-02T10:33:32,1.3573286198499999,-0.12861421474999998,9.958329455549999,0.04780020488899471,-0.0024434609527920616,-0.04046982203061852,0.042980000000000004,0.29862,-0.21686000000000002,22.5,1,497,365,687,1925,34.6005078125,108941,21.41167437981761,1013.2891559606041,0,,,,N/A,False
2024-04-02T10:33:32,1.3088739621999996,-0.15014961815,9.8608219346,0.04886921905584123,-0.0119118721448613,-0.041996985126113565,0.03178,0.29778000000000004,-0.21112000000000003,22.5,1,497,365,687,1925,34.6005078125,108941,21.41167437981761,1013.2891559606041,0,,,,N/A,False
2024-04-02T10:33:33,1.3956137814499998,-0.16271193679999998,9.8919286284,0.0433714319120591,-0.01145372321621279,-0.036804630601430424,0.037380000000000004,0.29638000000000003,-0.19824,22.5,1,497,365,687,1925,34.6565625,110874,21.399428304667726,1013.2793940966644,0,,,,N/A,False
2024-04-02T10:33:33,1.3244273091,-0.16031911419999997,9.927820967399999,0.04260785036431157,-0.00946841119206924,-0.03802636107782646,0.040740000000000005,0.28742,-0.20874,22.5,1,497,365,687,1925,34.6565625,110874,21.399428304667726,1013.2793940966644,0,,,,N/A,False
2024-04-02T10:33:33,1.3956137814499998,-0.1339980656,9.932008406949999,0.04688390703169768,0.003970624048287101,-0.040317105721069016,0.035980000000000005,0.29862,-0.20328000000000002,22.5,1,497,365,687,1925,34.691328125,108731,21.37504022055005,1013.283687316375,0,,,,N/A,False
2024-04-02T10:33:33,1.3196416639,-0.11545369045,9.823733184299998,0.04382958084070761,0.0027488935718910697,-0.039706240482871004,0.03542,0.29526,-0.21000000000000002,22.5,1,497,365,687,1925,34.691328125,108731,21.37504022055005,1013.283687316375,0,,,,N/A,False
2024-04-02T10:33:33,1.36091785375,-0.17886348935000002,9.803394192199999,0.04474587869800463,-0.007177666548826681,-0.038637226316024474,0.03458000000000001,0.29722000000000004,-0.20594000000000004,22.5,1,497,365,687,1925,34.691328125,108731,21.37504022055005,1013.283687316375,0,,,,N/A,False
2024-04-02T10:33:33,1.3525429746499997,-0.1579262916,9.8727860476,0.040317105721069016,-0.010384709049366262,-0.03634648167278191,0.03262,0.29274,-0.20384000000000002,22.5,1,495,365,687,1925,34.678046875,108591,21.36344401878746,1013.3017793658719,0,,,,N/A,False
2024-04-02T10:33:33,1.26281212715,-0.12562318649999998,9.75733235715,0.041844268816564056,-0.008704829644321718,-0.036804630601430424,0.039060000000000004,0.29666000000000003,-0.21378000000000003,22.5,1,495,365,687,1925,34.5985546875,105999,21.347369856366466,1013.3202940717574,0,,,,N/A,False
2024-04-02T10:33:33,1.32143628085,-0.1328016543,9.814760099549998,0.04291328298341058,0.0009162978572970231,-0.03787364476827696,0.03178,0.29918,-0.20748000000000003,22.5,1,495,365,687,1925,34.5481640625,107896,21.343962262551262,1013.299534775999,0,,,,N/A,False
2024-04-02T10:33:34,1.3064811395999998,-0.1363908882,9.887142983199999,0.04306599929296009,-0.0025961772623415654,-0.07712173632249944,0.03458000000000001,0.29666000000000003,-0.21798,22.5,1,495,365,687,1925,34.5481640625,107896,21.343962262551262,1013.299534775999,0,,,,N/A,False
2024-04-02T10:33:34,1.3884353136499998,-0.15852449724999998,9.93799046345,0.04382958084070761,-0.0068722339297276735,-0.03588833274413341,0.03514,0.29666000000000003,-0.22176,22.5,1,495,365,687,1925,34.5481640625,107896,21.343962262551262,1013.299534775999,0,,,,N/A,False
2024-04-02T10:33:34,1.3345968051500001,-0.10109675484999998,9.8632147572,0.04459316238845512,-0.002138028333693054,-0.041691552507014555,0.038220000000000004,0.28798,-0.21056000000000002,22.5,1,495,365,687,1925,34.576484375,110007,21.35122333794849,1013.2806897943988,0,,,,N/A,False
2024-04-02T10:33:34,1.2927224096499998,-0.14237294469999998,9.768100058849999,0.04077525464971753,-0.00595593607243065,-0.037110063220529434,0.0357,0.29414000000000007,-0.21028000000000002,22.5,1,495,365,686,1923,34.6411328125,113103,21.366292294183804,1013.2723007099968,0,,,,N/A,False
2024-04-02T10:33:34,1.25683007065,-0.12741780345,9.712466933399998,0.0355829001250344,-0.014049900478554353,-0.04001167310197001,0.037380000000000004,0.29078000000000004,-0.22204000000000002,22.5,1,495,365,686,1923,34.6411328125,113103,21.366292294183804,1013.2723007099968,0,,,,N/A,False
2024-04-02T10:33:34,1.3926227532000002,-0.1639083481,9.978070242,0.04016438941151951,-0.005039638215133627,-0.03604104905368291,0.035980000000000005,0.30310000000000004,-0.20524,22.5,1,495,365,686,1923,34.7161328125,111166,21.376721015796196,1013.2663142824576,0,,,,N/A,False
2024-04-02T10:35:07,1.37527478935,-0.16211373114999997,9.954142015999999,0.04077525464971753,-0.006108652381980154,-0.03741549583962844,0.034300000000000004,0.2947000000000001,-0.20454000000000003,22.5,1,495,365,686,1923,34.754609375,109792,21.368630282082382,1013.2820686644054,0,,,,N/A,False
2024-04-02T10:35:07,1.2939188209499997,-0.13998012209999997,9.78724263965,0.04321871560250959,-0.014202616788103858,-0.036193765363232405,0.03794,0.29358000000000006,-0.21686000000000002,22.5,1,497,365,685,1924,34.7673046875,110874,21.380189647358428,1013.2684350334187,0,,,,N/A,False
2024-04-02T10:35:07,1.3603196481,-0.11904292434999998,9.910473003549999,0.041996985126113565,0.0016798794050445422,-0.03756821214917795,0.03682,0.30114,-0.21182,22.5,1,497,365,685,1924,34.7673046875,110874,21.380189647358428,1013.2684350334187,0,,,,N/A,False
2024-04-02T10:35:07,1.2939188209499997,-0.13459627124999998,9.73340413115,0.041691552507014555,-0.0025961772623415654,-0.036804630601430424,0.0413,0.29778000000000004,-0.20734000000000002,22.5,1,497,365,685,1924,34.805,110801,21.37739558672447,1013.2738728998207,0,,,,N/A,False
2024-04-02T10:35:07,1.3316057768999998,-0.1483550012,9.891330422749999,0.04077525464971753,-0.012370021073509813,-0.03772092845872745,0.042140000000000004,0.30366000000000004,-0.22036,22.5,1,497,365,685,1924,34.805,110801,21.37739558672447,1013.2738728998207,0,,,,N/A,False
2024-04-02T10:35:07,1.3890335192999999,-0.16929219894999997,9.9373922578,0.04214970143566306,-0.003970624048287101,-0.038331793696925465,0.040740000000000005,0.29638000000000003,-0.21056000000000002,22.5,1,497,365,685,1924,34.805,110801,21.37739558672447,1013.2738728998207,0,,,,N/A,False
2024-04-02T10:35:07,1.3824532571500001,-0.11306086784999998,9.74776106675,0.04382958084070761,-0.001069014166846527,-0.037110063220529434,0.0357,0.29778000000000004,-0.21686000000000002,22.5,1,497,365,685,1924,34.8016796875,108941,21.366470803182242,1013.2847232268141,0,,,,N/A,False
2024-04-02T10:35:08,1.35972144245,-0.1483550012,10.0546405652,0.04123340357836604,-0.00595593607243065,-0.03665191429188092,0.0371,0.29526,-0.21084000000000003,22.5,1,497,365,685,1924,34.717109375,106804,21.34469712807533,1013.305849367238,0,,,,N/A,False
2024-04-02T10:35:08,1.4129617452999998,-0.14356935599999998,9.936794052149999,0.037110063220529434,-0.0009162978572970231,-0.03466660226773738,0.028140000000000005,0.29946000000000006,-0.20496,22.5,1,495,363,683,1918,34.6596875,110222,21.351505916530975,1013.2917162512376,0,,,,N/A,False
2024-04-02T10:35:08,1.3112667848,-0.14656038424999998,9.8057870148,0.04276056667386108,-0.006414085001079162,-0.03512475119638588,0.042980000000000004,0.29414000000000007,-0.21238,22.5,1,495,363,683,1918,34.6596875,110222,21.351505916530975,1013.2917162512376,0,,,,N/A,False
2024-04-02T10:35:08,1.34536450685,-0.12263215824999998,9.98345409285,0.04978551691313826,-0.0038179077387375964,-0.04444044607890562,0.035980000000000005,0.3017,-0.20776000000000003,22.5,1,495,363,683,1918,34.6596875,110222,21.351505916530975,1013.2917162512376,0,,,,N/A,False
2024-04-02T10:35:08,1.3764712006499997,-0.10289137179999999,9.917651471349998,0.043676864531158106,-0.003970624048287101,-0.03772092845872745,0.03262,0.30058,-0.20174,22.5,1,495,363,683,1918,34.6790234375,112350,21.3474671432406,1013.2798846374754,0,,,,N/A,False
2024-04-02T10:35:08,1.3381860390499998,-0.15134602945,9.826724212550001,0.04642575810304917,-0.00045814892864851157,-0.03695734691097993,0.033460000000000004,0.29918,-0.20104000000000002,22.5,1,495,363,683,1918,34.6790234375,112350,21.3474671432406,1013.2798846374754,0,,,,N/A,False
2024-04-02T10:35:08,1.3160524299999998,-0.13100703735,9.89013401145,0.03924809155422249,-0.012675453692608819,-0.036499197982331415,0.038220000000000004,0.29638000000000003,-0.20846,22.5,1,495,363,683,1918,34.645234375,107007,21.323795311712097,1013.3060878303238,0,,,,N/A,False
2024-04-02T10:35:08,1.3028919057,-0.14177473905,9.771689292749999,0.04046982203061852,-0.003054326190990077,-0.03924809155422249,0.044660000000000005,0.29498,-0.21154000000000003,22.5,0,496,365,684,1921,34.6034375,106871,21.32097069269814,1013.310191878368,0,,,,N/A,False
2024-04-02T10:35:09,1.32143628085,-0.10947163395000001,9.72981489725,0.041996985126113565,-0.0027488935718910697,-0.041080687268816536,0.03654,0.29190000000000005,-0.22078000000000003,22.5,0,496,365,684,1921,34.594453125,111239,21.309673689985896,1013.2937342342028,0,,,,N/A,False
2024-04-02T10:35:09,1.2957134379,-0.10229316614999999,9.786644434,0.041691552507014555,-0.0022907446432425577,-0.03741549583962844,0.042980000000000004,0.3003,-0.21714000000000003,22.5,0,496,365,684,1921,34.594453125,111239,21.309673689985896,1013.2937342342028,0,,,,N/A,False
2024-04-02T10:35:09,1.24008031245,-0.15493526335,9.852447055499999,0.03924809155422249,-0.009010262263420728,-0.03726277953007894,0.030100000000000002,0.29638000000000003,-0.21378000000000003,22.5,0,496,365,684,1921,34.6442578125,110947,21.323729304019395,1013.282816157013,0,,,,N/A,False
2024-04-02T10:35:09,1.2921242039999998,-0.1698904046,9.8069834261,0.04566217655530165,-0.00595593607243065,-0.036804630601430424,0.038500000000000006,0.2947000000000001,-0.21042000000000002,22.5,0,496,365,684,1921,34.6442578125,110947,21.323729304019395,1013.282816157013,0,,,,N/A,False
2024-04-02T10:35:09,1.33938245035,-0.10827522265,9.88774118885,0.04566217655530165,0.005039638215133627,-0.039858956792420505,0.04242,0.30198,-0.21574000000000002,22.5,0,496,365,684,1921,34.6442578125,110947,21.323729304019395,1013.282816157013,0,,,,N/A,False
2024-04-02T10:35:09,1.26161571585,-0.13938191645,9.8141618939,0.04260785036431157,-0.00946841119206924,-0.03924809155422249,0.03486000000000001,0.30366000000000004,-0.2121,22.5,0,496,363,682,1916,34.6739453125,107690,21.315043847894746,1013.2842513663801,0,,,,N/A,False
2024-04-02T10:35:09,1.3830514628000001,-0.11365907349999999,10.006784113199998,0.04276056667386108,0.001069014166846527,-0.036499197982331415,0.038500000000000006,0.29582,-0.21784000000000003,22.5,0,496,363,682,1916,34.6919140625,110874,21.32695114457862,1013.2701888303261,0,,,,N/A,False
2024-04-02T10:35:09,1.2813565023,-0.15613167464999997,9.93799046345,0.039095375244672985,-0.007177666548826681,-0.03634648167278191,0.0371,0.29526,-0.20720000000000002,22.5,0,496,363,682,1916,34.746796875,110511,21.330663225276766,1013.2729450920014,0,,,,N/A,False
2024-04-02T10:35:10,1.3052847283,-0.1782652837,9.847661410299999,0.04306599929296009,-0.0068722339297276735,-0.03527746750593539,0.03402,0.29302000000000006,-0.21574000000000002,22.5,0,496,363,682,1916,34.8110546875,113407,21.329663361336753,1013.2656730436848,0,,,,N/A,False
2024-04-02T10:35:10,1.3806586402,-0.1280160091,9.927820967399999,0.040622538340168025,0.0009162978572970231,-0.04214970143566306,0.03486000000000001,0.29022000000000003,-0.21686000000000002,22.5,0,497,363,682,1916,34.87765625,112952,21.33417203893931,1013.2640084882689,0,,,,N/A,False
2024-04-02T10:35:10,1.3124631961,-0.17527425545,9.88774118885,0.038484510006474966,-0.009773843811168246,-0.039858956792420505,0.037380000000000004,0.28658000000000006,-0.21322000000000002,22.5,0,497,363,682,1916,34.87765625,112952,21.33417203893931,1013.2640084882689,0,,,,N/A,False
2024-04-02T10:35:10,1.3082757565499998,-0.12382856954999999,9.73340413115,0.041996985126113565,-0.0068722339297276735,-0.039553524173321496,0.032060000000000005,0.29722000000000004,-0.21812000000000004,22.5,0,497,363,682,1916,34.87765625,112952,21.33417203893931,1013.2640084882689,0,,,,N/A,False
2024-04-02T10:35:10,1.35134656335,-0.1531406464,9.993025383249998,0.04321871560250959,-0.004886921905584123,-0.03741549583962844,0.03458000000000001,0.29666000000000003,-0.20314000000000002,22.5,0,497,363,682,1916,34.941328125,114329,21.338484864164656,1013.261162914374,0,,,,N/A,False
2024-04-02T10:35:10,1.3286147486499997,-0.15074782379999999,9.8979106849,0.04566217655530165,-0.0036651914291880926,-0.038789942625573975,0.03178,0.29526,-0.21882000000000001,22.5,0,497,363,682,1916,34.9942578125,114329,21.326020044112024,1013.2588660761664,0,,,,N/A,False
2024-04-02T10:35:10,1.3663017045999997,-0.17766707805,9.90688376965,0.04016438941151951,-0.005192354524683131,-0.03634648167278191,0.026180000000000002,0.29414000000000007,-0.20720000000000002,22.5,0,497,363,682,1916,34.9942578125,114329,21.326020044112024,1013.2588660761664,0,,,,N/A,False
2024-04-02T10:35:10,1.26281212715,-0.17587246110000002,9.814760099549998,0.04153883619746505,-0.005192354524683131,-0.03756821214917795,0.03122,0.2829400000000001,-0.20818,22.5,0,497,363,682,1916,35.0430859375,116139,21.323977505947248,1013.2571024197345,0,,,,N/A,False
2024-04-02T10:35:10,1.3686945271999997,-0.11724830739999999,9.948159959499998,0.04321871560250959,0.002138028333693054,-0.039095375244672985,0.042140000000000004,0.28546000000000005,-0.21154000000000003,22.5,1,494,363,679,1910,35.0430859375,116139,21.323977505947248,1013.2571024197345,0,,,,N/A,False
2024-04-02T10:35:11,1.3088739621999996,-0.11665010174999998,9.72981489725,0.039553524173321496,-0.0018325957145940463,-0.03741549583962844,0.030940000000000002,0.30086,-0.21392000000000003,22.5,1,494,363,679,1910,35.0481640625,114175,21.286870772095014,1013.2744169805479,0,,,,N/A,False
2024-04-02T10:35:11,1.24845519155,-0.10648060570000001,9.716056167299998,0.04413501345980661,-0.010079276430267254,-0.039553524173321496,0.027020000000000002,0.29806,-0.22078000000000003,22.5,1,494,363,679,1910,34.989375,111607,21.245460547561446,1013.2870588245709,0,,,,N/A,False
2024-04-02T10:35:11,1.3322039825499998,-0.16450655374999998,9.9493563708,0.04581489286485116,-0.009010262263420728,-0.03741549583962844,0.037660000000000006,0.29862,-0.22400000000000003,22.5,1,494,363,679,1910,34.989375,111607,21.245460547561446,1013.2870588245709,0,,,,N/A,False
2024-04-02T10:35:11,1.3184452525999997,-0.11724830739999999,9.822536773,0.04703662334124718,-0.003207042500539581,-0.03756821214917795,0.03402,0.2947000000000001,-0.21728000000000003,22.5,1,494,363,679,1910,34.989375,111607,21.245460547561446,1013.2870588245709,0,,,,N/A,False
2024-04-02T10:35:11,1.3507483577,-0.16570296504999998,9.914062237449999,0.0435241482216086,-0.008399397025222712,-0.03756821214917795,0.040740000000000005,0.29834000000000005,-0.20888,22.5,1,494,363,679,1910,34.9395703125,113866,21.22071571308351,1013.2709496345424,0,,,,N/A,False
2024-04-02T10:35:11,1.3339985995,-0.1639083481,9.927820967399999,0.04077525464971753,-0.00595593607243065,-0.03802636107782646,0.03626000000000001,0.29498,-0.21714000000000003,22.5,1,494,363,679,1910,34.9395703125,113866,21.22071571308351,1013.2709496345424,0,,,,N/A,False
2024-04-02T10:35:11,1.3040883169999997,-0.1351944769,9.8069834261,0.04489859500755413,-0.003970624048287101,-0.0355829001250344,0.030100000000000002,0.29974,-0.21686000000000002,22.5,1,494,363,679,1910,34.9395703125,113866,21.22071571308351,1013.2709496345424,0,,,,N/A,False
2024-04-02T10:35:11,1.22691978815,-0.11844471869999999,9.7686982645,0.04046982203061852,-0.008093964406123704,-0.03802636107782646,0.028140000000000005,0.30226000000000003,-0.21378000000000003,22.5,1,495,362,678,1908,34.9477734375,115741,21.199888776223904,1013.2680536388584,0,,,,N/A,False
2024-04-02T10:35:11,1.3004990831,-0.1304088317,9.721440018149998,0.04016438941151951,-0.008399397025222712,-0.03802636107782646,0.027860000000000003,0.28770000000000007,-0.2121,22.5,1,495,362,678,1908,34.9477734375,115741,21.199888776223904,1013.2680536388584,0,,,,N/A,False
2024-04-02T10:35:11,1.40877430575,-0.1639083481,10.034301573099999,0.04214970143566306,0.0019853120241435504,-0.03787364476827696,0.0371,0.30114,-0.20734000000000002,22.5,1,495,362,678,1908,34.9477734375,115741,21.199888776223904,1013.2680536388584,0,,,,N/A,False
2024-04-02T10:35:11,1.1383853519499998,-0.12741780345,9.749555683699999,0.036804630601430424,-0.008552113334772215,-0.039858956792420505,0.025340000000000005,0.29162,-0.20762000000000003,22.5,1,495,362,678,1908,34.8880078125,109792,21.13709613081674,1013.2917261704542,0,,,,N/A,False
2024-04-02T10:35:12,1.3740783780499999,-0.13339985995,10.033105161799998,0.04657847441259867,-0.0007635815477475193,-0.039706240482871004,0.0315,0.29526,-0.21266000000000002,22.5,1,495,362,678,1908,34.833515625,113790,21.133436759417414,1013.2751829872836,0,,,,N/A,False
2024-04-02T10:35:12,1.2370892841999999,-0.13160524299999998,9.714261550349999,0.0435241482216086,-0.015882496193148403,-0.04001167310197001,0.03542,0.29722000000000004,-0.20328000000000002,22.5,1,495,362,678,1908,34.847578125,112500,21.118359896090624,1013.2637717506897,0,,,,N/A,False
2024-04-02T10:35:12,1.2717852119,-0.15852449724999998,9.7830552001,0.04535674393620265,-0.0054977871437821395,-0.04092797095926703,0.03542,0.29974,-0.20944000000000002,22.5,1,495,363,679,1909,34.847578125,112500,21.118359896090624,1013.2637717506897,0,,,,N/A,False
2024-04-02T10:35:12,1.3483555351,-0.14895320685,9.925428144799998,0.04153883619746505,-0.009621127501618741,-0.036193765363232405,0.03682,0.29834000000000005,-0.20132000000000003,22.5,1,495,363,679,1909,34.890546875,114796,21.094543123605117,1013.2615268648187,0,,,,N/A,False
2024-04-02T10:35:12,1.3322039825499998,-0.19262221929999998,9.965507923349998,0.041844268816564056,-0.0038179077387375964,-0.038484510006474966,0.03374,0.29498,-0.21798,22.5,1,495,363,679,1909,34.9091015625,111903,21.07442971466568,1013.2773136439079,0,,,,N/A,False
2024-04-02T10:35:12,1.2646067441,-0.13220344865,9.7914300792,0.036193765363232405,-0.012980886311707827,-0.039400807863771994,0.0357,0.30114,-0.20958000000000002,23.5,1,495,363,679,1909,34.9091015625,111903,21.07442971466568,1013.2773136439079,0,,,,N/A,False
2024-04-02T10:35:12,1.2699905949499997,-0.15074782379999999,9.647860723199999,0.0435241482216086,0.0012217304763960308,-0.07757988525114795,0.04046,0.29638000000000003,-0.20888,22.5,1,495,363,679,1909,34.9059765625,112725,21.04219069740382,1013.264990462422,0,,,,N/A,False
2024-04-02T10:35:12,1.3345968051500001,-0.1292124204,9.72622566335,0.04321871560250959,-0.001069014166846527,-0.038484510006474966,0.037660000000000006,0.29302000000000006,-0.20510000000000003,22.5,1,495,363,679,1909,34.9059765625,112725,21.04219069740382,1013.264990462422,0,,,,N/A,False
2024-04-02T10:35:12,1.32502551475,-0.1639083481,9.9469635482,0.04276056667386108,-0.009315694882519735,-0.03924809155422249,0.037380000000000004,0.29498,-0.20720000000000002,22.5,1,495,363,678,1906,34.9059765625,112725,21.04219069740382,1013.264990462422,0,,,,N/A,False
2024-04-02T10:35:13,1.31545422435,-0.11246266220000001,9.8093762487,0.041844268816564056,0.004581489286485115,-0.041844268816564056,0.038500000000000006,0.30562,-0.2023,22.5,1,495,363,678,1906,34.9036328125,112275,20.99934020751184,1013.2683993148825,0,,,,N/A,False
2024-04-02T10:35:13,1.3010972887499999,-0.1088734283,9.877571692799998,0.03695734691097993,0.038484510006474966,-0.03741549583962844,0.03374,0.30674,-0.21196,22.5,1,495,363,678,1906,34.9036328125,112275,20.99934020751184,1013.2683993148825,0,,,,N/A,False
2024-04-02T10:35:13,1.2699905949499997,-0.1471585899,9.81117086565,0.039706240482871004,-0.013439035240356337,-0.04001167310197001,0.038220000000000004,0.3003,-0.21406000000000003,22.5,1,495,363,678,1906,34.9036328125,112275,20.99934020751184,1013.2683993148825,0,,,,N/A,False
2024-04-02T10:35:13,1.36929273285,-0.12442677519999999,9.9756774194,0.04627304179349966,0.003207042500539581,-0.03527746750593539,0.03458000000000001,0.29638000000000003,-0.20356000000000002,22.5,1,495,363,678,1906,34.815546875,109012,20.977456552060385,1013.2856458851269,0,,,,N/A,False
2024-04-02T10:35:13,1.2669995667,-0.14356935599999998,9.773483909699998,0.041996985126113565,-0.0033597588100890844,-0.04046982203061852,0.03486000000000001,0.2933,-0.20650000000000002,22.5,1,495,363,678,1906,34.754609375,113713,20.957395567867902,1013.2730341387577,0,,,,N/A,False
2024-04-02T10:35:13,1.2610175101999996,-0.13698909385,9.789037256599999,0.04077525464971753,-0.004581489286485115,-0.038179077387375956,0.02926,0.29358000000000006,-0.21196,22.5,1,494,363,676,1904,34.7755078125,114718,20.953455320070624,1013.2619322934863,0,,,,N/A,False
2024-04-02T10:35:13,1.4123635396499998,-0.14057832774999998,9.997811028449998,0.047952921198544204,-0.008246680715673207,-0.03772092845872745,0.03374,0.30086,-0.21266000000000002,22.5,1,494,363,676,1904,34.8239453125,113407,20.940684129206616,1013.2541601541267,0,,,,N/A,False
2024-04-02T10:35:13,1.2921242039999998,-0.10348957745,9.821340361699999,0.04673119072214818,-0.001069014166846527,-0.03741549583962844,0.03122,0.29722000000000004,-0.20118,22.5,1,494,363,676,1904,34.8239453125,113407,20.940684129206616,1013.2541601541267,0,,,,N/A,False
2024-04-02T10:35:13,1.24606236895,-0.1304088317,9.80159957525,0.04291328298341058,-0.008093964406123704,-0.03787364476827696,0.043820000000000005,0.29246000000000005,-0.21448000000000003,22.5,1,494,363,676,1904,34.887421875,115661,20.9289132933999,1013.2492038458364,0,,,,N/A,False
2024-04-02T10:35:14,1.34536450685,-0.13579268255,9.96191868945,0.04474587869800463,-0.0022907446432425577,-0.04382958084070761,0.032900000000000006,0.29414000000000007,-0.21224,22.5,1,494,363,676,1904,34.9493359375,116299,20.938370909608928,1013.2507186279013,0,,,,N/A,False
2024-04-02T10:35:14,1.3040883169999997,-0.10289137179999999,9.73699336505,0.04596760917440065,-0.00045814892864851157,-0.038789942625573975,0.03262,0.30254000000000003,-0.20734000000000002,22.5,1,494,363,676,1904,34.9493359375,116299,20.938370909608928,1013.2507186279013,0,,,,N/A,False
2024-04-02T10:35:14,1.2789636797,-0.15732808594999997,9.906285564,0.04566217655530165,-0.008857545953871223,-0.038942658935123484,0.03178,0.29358000000000006,-0.21084000000000003,22.5,1,494,363,676,1904,34.9493359375,116299,20.938370909608928,1013.2507186279013,0,,,,N/A,False
2024-04-02T10:35:14,1.37766761195,-0.12382856954999999,9.871589636299998,0.0433714319120591,-0.0013744467859455349,-0.03695734691097993,0.041580000000000006,0.29610000000000003,-0.20874,22.5,0,495,362,677,1904,35.0087109375,116299,20.926325257747372,1013.2516932274738,0,,,,N/A,False
2024-04-02T10:35:14,1.2849457361999996,-0.1387837108,9.8249295956,0.041844268816564056,-0.009926560120717751,-0.03787364476827696,0.03262,0.28798,-0.20384000000000002,22.5,0,495,362,677,1904,35.0565625,115345,20.91351067550269,1013.2537574710434,0,,,,N/A,False
2024-04-02T10:35:14,1.2921242039999998,-0.1519442351,9.73818977635,0.038179077387375956,-0.0033597588100890844,-0.03802636107782646,0.032900000000000006,0.29554,-0.22442,22.5,0,495,362,677,1904,35.09953125,117025,20.879034982651728,1013.256893738012,0,,,,N/A,False
2024-04-02T10:35:14,1.33938245035,-0.14536397295,9.963115100749999,0.04627304179349966,-0.002138028333693054,-0.03772092845872745,0.03514,0.30478000000000005,-0.21994000000000002,22.5,0,495,362,677,1904,35.13390625,116782,20.854656025795318,1013.2604817376076,0,,,,N/A,False
2024-04-02T10:35:15,1.3316057768999998,-0.17168502154999998,9.748359272399998,0.040317105721069016,-0.010384709049366262,-0.041844268816564056,0.03542,0.30002000000000006,-0.20972000000000002,22.5,1,495,361,675,1900,35.163984375,118255,20.84065727217951,1013.2552549952406,0,,,,N/A,False
2024-04-02T10:35:15,1.28075829665,-0.12023933564999999,9.7244310464,0.041386119887915546,-0.00595593607243065,-0.038942658935123484,0.03122,0.28854,-0.22232000000000002,22.5,1,495,361,675,1900,35.18546875,118504,20.815423569554365,1013.2522936786481,0,,,,N/A,False
2024-04-02T10:35:15,1.3399806559999998,-0.14416756165,9.88175913235,0.04291328298341058,0.0015271630954950385,-0.03756821214917795,0.03962,0.30338000000000004,-0.21308000000000002,22.5,1,495,361,675,1900,35.2028515625,118754,20.77925894075106,1013.2589202424308,0,,,,N/A,False
2024-04-02T10:35:15,1.32502551475,-0.0789631458,9.841679353799998,0.04153883619746505,-0.001069014166846527,-0.04214970143566306,0.03458000000000001,0.29498,-0.20454000000000003,22.5,1,495,361,675,1900,35.2028515625,118754,20.77925894075106,1013.2589202424308,0,,,,N/A,False
2024-04-02T10:35:15,1.3579268255,-0.15433705769999997,9.945168931249999,0.04306599929296009,-0.009010262263420728,-0.039858956792420505,0.026740000000000003,0.29162,-0.20300000000000004,22.5,1,495,361,675,1900,35.2028515625,118754,20.77925894075106,1013.2589202424308,0,,,,N/A,False
2024-04-02T10:35:15,1.3842478741,-0.13160524299999998,9.940383286049999,0.04276056667386108,-0.0016798794050445422,-0.03756821214917795,0.03402,0.29610000000000003,-0.20566000000000004,22.5,1,495,362,676,1902,35.2219921875,118587,20.753876825838848,1013.2557526238204,0,,,,N/A,False
2024-04-02T10:35:15,1.42313124135,-0.15134602945,9.932008406949999,0.04459316238845512,-0.003054326190990077,-0.038179077387375956,0.030940000000000002,0.29078000000000004,-0.21924000000000002,22.5,1,495,362,676,1902,35.2219921875,118587,20.753876825838848,1013.2557526238204,0,,,,N/A,False
2024-04-02T10:35:16,1.3268201317,-0.08135596839999999,9.812965482600001,0.04382958084070761,-0.0024434609527920616,-0.04046982203061852,0.03962,0.29974,-0.23646000000000003,22.5,1,495,362,676,1902,35.151875,112952,20.70128562328298,1013.2752988703977,0,,,,N/A,False
2024-04-02T10:35:16,1.4207384187499998,-0.11904292434999998,9.930213789999998,0.048258353817643214,0.0025961772623415654,-0.03588833274413341,0.035980000000000005,0.28938,-0.20804000000000003,22.5,1,495,362,676,1902,35.0575390625,112500,20.6684334323281,1013.2770417933551,0,,,,N/A,False
2024-04-02T10:35:16,1.3651052932999999,-0.16749758199999998,9.9565348386,0.04459316238845512,-0.005192354524683131,-0.04077525464971753,0.046340000000000006,0.29918,-0.21756000000000003,22.5,1,495,362,676,1902,35.0575390625,112500,20.6684334323281,1013.2770417933551,0,,,,N/A,False
2024-04-02T10:35:16,1.5026925928,-0.15433705769999997,9.9708917742,0.04046982203061852,0.00045814892864851157,-0.03436116964863837,0.039900000000000005,0.29862,-0.21714000000000003,22.5,1,495,362,676,1902,34.997578125,115503,20.63786802768711,1013.2642776651041,0,,,,N/A,False
2024-04-02T10:35:16,1.3112667848,-0.1519442351,9.868598608049998,0.0435241482216086,-0.009010262263420728,-0.03726277953007894,0.02926,0.29358000000000006,-0.20804000000000003,22.5,1,496,362,677,1903,34.9723828125,114640,20.604283180110734,1013.2684008820576,0,,,,N/A,False
2024-04-02T10:35:16,1.31425781305,-0.14775679555,9.82911703515,0.04092797095926703,-0.008704829644321718,-0.03543018381548489,0.03486000000000001,0.2891,-0.21952000000000002,22.5,1,496,362,677,1903,34.9723828125,114640,20.604283180110734,1013.2684008820576,0,,,,N/A,False
2024-04-02T10:35:16,1.37527478935,-0.08673981925,9.859625523299998,0.0476474885794452,0.0016798794050445422,-0.04046982203061852,0.035980000000000005,0.29582,-0.2009,22.5,1,496,362,677,1903,34.9469921875,115582,20.59197518009427,1013.252320786998,0,,,,N/A,False
2024-04-02T10:35:16,1.3220344865,-0.10947163395000001,9.85304526115,0.04856378643674222,-0.0003054326190990077,-0.041080687268816536,0.04438,0.28742,-0.21910000000000002,22.5,1,496,362,677,1903,34.9469921875,115582,20.59197518009427,1013.252320786998,0,,,,N/A,False
2024-04-02T10:35:17,1.3220344865,-0.10468598874999999,9.803394192199999,0.0435241482216086,0.002901609881440573,-0.036804630601430424,0.0371,0.29694000000000004,-0.21252000000000001,22.5,1,496,362,677,1903,34.9477734375,112801,20.57606843924138,1013.2680536388584,0,,,,N/A,False
2024-04-02T10:35:17,1.3268201317,-0.12861421474999998,9.8991070962,0.0433714319120591,-0.0009162978572970231,-0.0435241482216086,0.03542,0.29862,-0.20454000000000003,22.5,1,494,362,676,1901,34.91984375,113636,20.552963226860793,1013.2803651053493,0,,,,N/A,False
2024-04-02T10:35:17,1.3543375915999998,-0.15613167464999997,9.990034354999999,0.040317105721069016,-0.010231992739816757,-0.03543018381548489,0.046900000000000004,0.29386,-0.20118,22.5,1,494,362,676,1901,34.9012890625,113484,20.546429815670223,1013.2663861986905,0,,,,N/A,False
2024-04-02T10:35:17,1.3381860390499998,-0.16570296504999998,9.978070242,0.04627304179349966,-0.003207042500539581,-0.04092797095926703,0.041580000000000006,0.28966000000000003,-0.21378000000000003,22.5,1,494,362,676,1901,34.9012890625,113484,20.546429815670223,1013.2663861986905,0,,,,N/A,False
2024-04-02T10:35:17,1.2335000503,-0.11665010174999998,9.746564655449998,0.038942658935123484,-0.008857545953871223,-0.04046982203061852,0.03402,0.29190000000000005,-0.21392000000000003,22.5,1,494,362,676,1901,34.9012890625,113484,20.546429815670223,1013.2663861986905,0,,,,N/A,False
2024-04-02T10:35:17,1.3028919057,-0.11066804524999999,9.7519485063,0.040622538340168025,-0.0038179077387375964,-0.03527746750593539,0.0315,0.29554,-0.21448000000000003,22.5,1,494,362,676,1901,34.93078125,115345,20.537727468700037,1013.2620458505656,0,,,,N/A,False
2024-04-02T10:35:17,1.3411770672999999,-0.1806581063,9.94277610865,0.04428772976935611,-0.008857545953871223,-0.038637226316024474,0.03794,0.28434000000000004,-0.20860000000000004,22.5,1,494,362,676,1901,34.9829296875,117514,20.55178079146431,1013.2657084570044,0,,,,N/A,False
2024-04-02T10:35:17,1.3082757565499998,-0.17288143285000002,9.88774118885,0.04612032548395016,-0.011301006906663285,-0.038331793696925465,0.0371,0.28182000000000007,-0.21140000000000003,22.5,1,494,362,676,1901,34.9829296875,117514,20.55178079146431,1013.2657084570044,0,,,,N/A,False
2024-04-02T10:35:17,1.2646067441,-0.11545369045,9.8069834261,0.04428772976935611,-0.010231992739816757,-0.04306599929296009,0.03542,0.2933,-0.20286,22.5,0,494,362,675,1900,34.9829296875,117514,20.55178079146431,1013.2657084570044,0,,,,N/A,False
2024-04-02T10:35:18,1.2987044661499998,-0.14177473905,9.862616551549998,0.04276056667386108,-0.014508049407202865,-0.038637226316024474,0.03262,0.28434000000000004,-0.19936,22.5,0,494,362,675,1900,35.0383984375,116059,20.539461713240083,1013.2621168017962,0,,,,N/A,False
2024-04-02T10:35:18,1.3070793452499998,-0.1698904046,9.678369211349999,0.041691552507014555,-0.01069014166846527,-0.036499197982331415,0.037660000000000006,0.29302000000000006,-0.20076000000000002,22.5,0,494,362,675,1900,35.0383984375,116059,20.539461713240083,1013.2621168017962,0,,,,N/A,False
2024-04-02T10:35:18,1.3405788616499998,-0.12861421474999998,9.930213789999998,0.04489859500755413,-0.0007635815477475193,-0.03802636107782646,0.04102,0.28966000000000003,-0.20538000000000003,22.5,0,494,362,675,1900,35.0383984375,116059,20.539461713240083,1013.2621168017962,0,,,,N/A,False
2024-04-02T10:35:18,1.3351950108,-0.1387837108,9.91884788265,0.043676864531158106,-0.00595593607243065,-0.03802636107782646,0.04662,0.28406,-0.2058,22.5,0,494,362,675,1900,34.998359375,113407,20.520884356963386,1013.2818191360183,0,,,,N/A,False
2024-04-02T10:35:18,1.33698962775,-0.10827522265,9.812965482600001,0.041080687268816536,0.007177666548826681,-0.03802636107782646,0.04102,0.29442,-0.21168,22.5,0,494,362,675,1900,34.955390625,114640,20.512754426260525,1013.2660096799932,0,,,,N/A,False
2024-04-02T10:35:18,1.2293126107499999,-0.17647066675,9.88534836625,0.04260785036431157,-0.011301006906663285,-0.039858956792420505,0.0371,0.28854,-0.20412000000000002,22.5,1,496,362,676,1901,34.9770703125,115741,20.514173410649132,1013.2615809453102,0,,,,N/A,False
2024-04-02T10:35:18,1.29032958705,-0.14955141249999998,9.92841917305,0.04306599929296009,-0.00946841119206924,-0.07742716894159844,0.037660000000000006,0.28266,-0.20216000000000003,22.5,1,496,362,676,1901,34.9770703125,115741,20.514173410649132,1013.2615809453102,0,,,,N/A,False
2024-04-02T10:35:18,1.40757789445,-0.1268195978,9.980463064599999,0.04321871560250959,-0.0027488935718910697,-0.039095375244672985,0.0427,0.29162,-0.20664000000000002,22.5,1,496,362,676,1901,35.0227734375,116701,20.506531066838846,1013.2601512334383,0,,,,N/A,False
2024-04-02T10:35:19,1.34895374075,-0.1004985492,9.99182897195,0.04566217655530165,-0.008093964406123704,-0.03756821214917795,0.04102,0.29358000000000006,-0.20468,22.5,1,496,362,676,1901,35.0458203125,115266,20.47613910612811,1013.2760203549263,0,,,,N/A,False
2024-04-02T10:35:19,1.31545422435,-0.12861421474999998,9.821938567349997,0.04444044607890562,-0.00916297857297023,-0.038331793696925465,0.037660000000000006,0.29778000000000004,-0.20510000000000003,22.5,1,496,362,676,1901,35.0440625,116379,20.48665680659222,1013.27315554107,0,,,,N/A,False
2024-04-02T10:35:19,1.3082757565499998,-0.11665010174999998,9.865607579799999,0.04612032548395016,-0.0003054326190990077,-0.039706240482871004,0.0427,0.28770000000000007,-0.21028000000000002,22.5,1,496,362,676,1901,35.0440625,116379,20.48665680659222,1013.27315554107,0,,,,N/A,False
2024-04-02T10:35:19,1.32981115995,-0.16630117069999997,9.851848849849999,0.04520402762665314,-0.006414085001079162,-0.040622538340168025,0.03626000000000001,0.29162,-0.20776000000000003,23.5,0,494,361,674,1898,35.0440625,116379,20.48665680659222,1013.27315554107,0,,,,N/A,False
2024-04-02T10:35:19,1.3812568458499999,-0.15493526335,10.0319087505,0.04260785036431157,-0.00473420559603462,-0.041691552507014555,0.03682,0.29890000000000005,-0.21700000000000003,23.5,0,494,361,674,1898,35.0766796875,117596,20.472840445087865,1013.2666569558221,0,,,,N/A,False
2024-04-02T10:35:19,1.4123635396499998,-0.15732808594999997,9.966106128999998,0.04260785036431157,0.00015271630954950385,-0.03787364476827696,0.03458000000000001,0.29190000000000005,-0.21938000000000002,22.5,0,494,361,674,1898,35.0766796875,117596,20.472840445087865,1013.2666569558221,0,,,,N/A,False
2024-04-02T10:35:19,1.3232308977999998,-0.18125631194999997,9.672985360499998,0.039553524173321496,-0.014049900478554353,-0.0016798794050445422,0.030660000000000003,0.28994000000000003,-0.21280000000000002,22.5,0,494,361,674,1898,35.0766796875,117596,20.472840445087865,1013.2666569558221,0,,,,N/A,False
2024-04-02T10:35:19,1.3710873497999998,-0.19680965884999999,9.9888379437,0.04459316238845512,-0.010231992739816757,-0.039553524173321496,0.037380000000000004,0.2905,-0.22288000000000002,22.5,0,494,361,674,1898,35.026875,112650,20.458954071697928,1013.2776818061204,0,,,,N/A,False
2024-04-02T10:35:19,1.2634103328,-0.0131605243,9.8249295956,0.043982297150257116,-0.009315694882519735,-0.036193765363232405,0.026740000000000003,0.29190000000000005,-0.2156,22.5,0,494,361,674,1898,34.9141796875,109507,20.41971915770549,1013.2964353058659,0,,,,N/A,False
2024-04-02T10:35:20,1.30468652265,-0.107677017,9.7962157244,0.04566217655530165,-0.0016798794050445422,-0.03741549583962844,0.04018000000000001,0.29442,-0.21028000000000002,23.5,1,494,362,674,1899,34.8469921875,112725,20.410030925949364,1013.2863096353715,0,,,,N/A,False
2024-04-02T10:35:20,1.32502551475,-0.10707881135,9.77049288145,0.041080687268816536,-0.0038179077387375964,-0.03726277953007894,0.03486000000000001,0.29162,-0.21602000000000002,22.5,1,494,362,674,1899,34.8469921875,112725,20.410030925949364,1013.2863096353715,0,,,,N/A,False
2024-04-02T10:35:20,1.3794622288999998,-0.12502498085,10.01456078665,0.039553524173321496,0.0038179077387375964,-0.038637226316024474,0.03402,0.29946000000000006,-0.21490000000000004,22.5,1,494,362,674,1899,34.8469921875,112725,20.410030925949364,1013.2863096353715,0,,,,N/A,False
2024-04-02T10:35:20,1.4063814831500001,-0.1447657673,9.887142983199999,0.04520402762665314,0.006261368691529657,-0.036804630601430424,0.042980000000000004,0.28994000000000003,-0.20888,22.5,1,494,362,674,1899,34.8676953125,115188,20.42200209062552,1013.2748794470459,0,,,,N/A,False
2024-04-02T10:35:20,1.3561322085499998,-0.09391828705,9.8560362894,0.04214970143566306,0.0033597588100890844,-0.04092797095926703,0.03514,0.29974,-0.21294000000000002,22.5,1,494,362,674,1899,34.8676953125,115188,20.42200209062552,1013.2748794470459,0,,,,N/A,False
2024-04-02T10:35:20,1.30588293395,-0.13339985995,9.77886776055,0.043676864531158106,-0.01069014166846527,-0.03451388595818787,0.040740000000000005,0.29498,-0.20720000000000002,22.5,1,494,362,674,1899,34.8676953125,115188,20.42200209062552,1013.2748794470459,0,,,,N/A,False
2024-04-02T10:35:20,1.3286147486499997,-0.1328016543,9.92961558435,0.04566217655530165,-0.0019853120241435504,-0.04153883619746505,0.03514,0.29190000000000005,-0.22064,22.5,1,494,362,674,1899,34.8489453125,112201,20.399536563534962,1013.2894936094236,0,,,,N/A,False
2024-04-02T10:35:20,1.3501501520499999,-0.13698909385,9.916455060049998,0.043982297150257116,0.0015271630954950385,-0.038942658935123484,0.03962,0.3017,-0.21602000000000002,22.5,1,494,362,675,1898,34.8489453125,112201,20.399536563534962,1013.2894936094236,0,,,,N/A,False
2024-04-02T10:35:20,1.4015958379499998,-0.15373885204999999,9.977472036350001,0.041386119887915546,-0.0035124751196385882,-0.03741549583962844,0.03486000000000001,0.2933,-0.20874,22.5,1,494,362,675,1898,34.7704296875,108312,20.383809800245487,1013.3006340620803,0,,,,N/A,False
2024-04-02T10:35:21,1.3429716842499997,-0.10169496049999999,9.8620183459,0.04535674393620265,0.0022907446432425577,-0.038789942625573975,0.03682,0.29554,-0.19950000000000004,22.5,1,494,362,675,1898,34.7190625,109153,20.40170560321845,1013.3054203138073,0,,,,N/A,False
2024-04-02T10:35:21,1.3770694062999997,-0.11186445655,9.89731247925,0.04780020488899471,0.0003054326190990077,-0.04260785036431157,0.04102,0.30282000000000003,-0.21140000000000003,22.5,1,494,362,675,1898,34.7145703125,111533,20.406722523898516,1013.2854482682008,0,,,,N/A,False
2024-04-02T10:35:21,1.2532408367499999,-0.11425727914999999,9.732207719849999,0.039858956792420505,-0.006566801310628666,-0.03497203488683638,0.040740000000000005,0.29414000000000007,-0.20622000000000001,22.5,1,494,362,675,1898,34.7145703125,111533,20.406722523898516,1013.2854482682008,0,,,,N/A,False
2024-04-02T10:35:21,1.2095718242999998,-0.1483550012,9.777073143599997,0.043676864531158106,-0.0022907446432425577,-0.03527746750593539,0.046060000000000004,0.29414000000000007,-0.21028000000000002,22.5,1,496,362,675,1900,34.7688671875,113484,20.426186550392213,1013.2727893735772,0,,,,N/A,False
2024-04-02T10:35:21,1.2723834175499997,-0.1292124204,9.771689292749999,0.04306599929296009,-0.005192354524683131,-0.03665191429188092,0.0371,0.29442,-0.20846,22.5,1,496,362,675,1900,34.7688671875,113484,20.426186550392213,1013.2727893735772,0,,,,N/A,False
2024-04-02T10:35:21,1.3591232368,-0.20159530404999998,9.895517862299998,0.04276056667386108,-0.009773843811168246,-0.03802636107782646,0.03962,0.29358000000000006,-0.19768,22.5,1,496,362,675,1900,34.8346875,111239,20.451722950836423,1013.2789005087529,0,,,,N/A,False
2024-04-02T10:35:21,1.2885349701,-0.12622139215,9.8560362894,0.04077525464971753,-0.01114829059711378,-0.03772092845872745,0.03402,0.29442,-0.2009,22.5,1,496,362,675,1900,34.8571484375,111020,20.453188149581887,1013.2847944496971,0,,,,N/A,False
2024-04-02T10:35:22,1.3310075712499998,-0.1339980656,9.844670382049998,0.04444044607890562,0.002901609881440573,-0.03924809155422249,0.042140000000000004,0.29078000000000004,-0.20286,22.5,1,496,362,675,1900,34.8778515625,112500,20.46516571163599,1013.2769775632248,0,,,,N/A,False
2024-04-02T10:35:22,1.3830514628000001,-0.14416756165,9.985846915449999,0.04306599929296009,-0.003970624048287101,-0.038789942625573975,0.04186000000000001,0.29890000000000005,-0.20706000000000002,22.5,0,494,362,674,1898,34.8778515625,112500,20.46516571163599,1013.2769775632248,0,,,,N/A,False
2024-04-02T10:35:22,1.3459627125,-0.12083754129999999,9.7806623775,0.041080687268816536,0.0019853120241435504,-0.0355829001250344,0.030100000000000002,0.29442,-0.20300000000000004,22.5,0,494,362,674,1898,34.937421875,113484,20.485000048459497,1013.2602181126427,0,,,,N/A,False
2024-04-02T10:35:22,1.2837493248999998,-0.1339980656,9.837491914249998,0.0433714319120591,-0.0022907446432425577,-0.041080687268816536,0.03626000000000001,0.29554,-0.20916,22.5,0,494,362,674,1898,34.937421875,113484,20.485000048459497,1013.2602181126427,0,,,,N/A,False
2024-04-02T10:35:22,1.3351950108,-0.17108681589999997,9.8201439504,0.041996985126113565,-0.008246680715673207,-0.037110063220529434,0.039900000000000005,0.3017,-0.20048000000000002,22.5,0,494,362,674,1898,34.9790234375,113255,20.487719658950887,1013.2756094287506,0,,,,N/A,False
2024-04-02T10:35:22,1.3399806559999998,-0.1746760498,9.9098747979,0.04459316238845512,-0.007635815477475193,-0.03741549583962844,0.030380000000000004,0.29414000000000007,-0.21168,23.5,0,494,362,674,1898,34.9790234375,113255,20.487719658950887,1013.2756094287506,0,,,,N/A,False
2024-04-02T10:35:22,1.3914263418999997,-0.10348957745,9.857830906349998,0.047952921198544204,0.0,-0.038331793696925465,0.027020000000000002,0.29190000000000005,-0.20986000000000002,22.5,0,494,362,674,1898,34.9790234375,113255,20.487719658950887,1013.2756094287506,0,,,,N/A,False
2024-04-02T10:35:22,1.2771690627499999,-0.11784651304999999,9.8153583052,0.04810563750809371,-0.0038179077387375964,-0.03924809155422249,0.03458000000000001,0.29162,-0.21434000000000003,22.5,0,494,362,674,1898,34.9753125,112575,20.487477024014158,1013.2840210508595,0,,,,N/A,False
2024-04-02T10:35:22,1.3268201317,-0.13698909385,9.916455060049998,0.038942658935123484,0.0007635815477475193,-0.07757988525114795,0.03318,0.30114,-0.20986000000000002,22.5,1,495,362,674,1898,34.901875,111020,20.472048238596884,1013.2944509380015,0,,,,N/A,False
2024-04-02T10:35:22,1.3220344865,-0.09690931529999999,9.7435736272,0.0433714319120591,-0.003970624048287101,-0.040622538340168025,0.03682,0.29022000000000003,-0.20062000000000002,22.5,1,495,362,674,1898,34.901875,111020,20.472048238596884,1013.2944509380015,0,,,,N/A,False
2024-04-02T10:35:23,1.2897313813999998,-0.15613167464999997,9.96909715725,0.04428772976935611,-0.0038179077387375964,-0.039553524173321496,0.03514,0.29218,-0.20076000000000002,22.5,1,495,362,674,1898,34.85578125,112425,20.479665876431014,1013.2681082435339,0,,,,N/A,False
2024-04-02T10:35:23,1.2897313813999998,-0.1339980656,9.76451082495,0.04230241774521256,-0.006566801310628666,-0.04230241774521256,0.0427,0.29610000000000003,-0.20384000000000002,22.5,1,495,362,674,1898,34.85578125,112425,20.479665876431014,1013.2681082435339,0,,,,N/A,False
2024-04-02T10:35:23,1.3914263418999997,-0.14356935599999998,9.952347399049998,0.04321871560250959,-0.005039638215133627,-0.038637226316024474,0.030380000000000004,0.28406,-0.20314000000000002,22.5,1,495,362,674,1898,34.85578125,112425,20.479665876431014,1013.2681082435339,0,,,,N/A,False
2024-04-02T10:35:23,1.2933206152999999,-0.12263215824999998,9.862616551549998,0.0476474885794452,0.0,-0.04214970143566306,0.040740000000000005,0.28098,-0.20762000000000003,22.5,1,495,362,674,1898,34.871796875,112201,20.47539792889925,1013.2797583167819,0,,,,N/A,False
2024-04-02T10:35:23,1.28674035315,-0.14775679555,9.729216691599998,0.039095375244672985,-0.005345070834232635,-0.03741549583962844,0.0371,0.28938,-0.21798,22.5,0,495,363,676,1901,34.871796875,112201,20.47539792889925,1013.2797583167819,0,,,,N/A,False
2024-04-02T10:35:23,1.4057832774999999,-0.16749758199999998,9.96431151205,0.04001167310197001,0.0009162978572970231,-0.040622538340168025,0.04354000000000001,0.29890000000000005,-0.21140000000000003,22.5,0,495,363,676,1901,34.8122265625,108173,20.471508538279746,1013.2892682348381,0,,,,N/A,False
2024-04-02T10:35:23,1.2699905949499997,-0.14656038424999998,9.674181771799999,0.041996985126113565,-0.009621127501618741,-0.07757988525114795,0.042140000000000004,0.29386,-0.20496,22.5,0,495,363,676,1901,34.7669140625,109082,20.4791766270598,1013.2876745119133,0,,,,N/A,False
2024-04-02T10:35:24,1.21734849775,-0.13339985995,9.823733184299998,0.03802636107782646,0.00015271630954950385,-0.037110063220529434,0.04718000000000001,0.28378000000000003,-0.21168,22.5,0,495,363,676,1901,34.764765625,112500,20.494975732318796,1013.2733301792405,0,,,,N/A,False
2024-04-02T10:35:24,1.3561322085499998,-0.1292124204,9.98225768155,0.04474587869800463,-0.00595593607243065,-0.03787364476827696,0.037380000000000004,0.29946000000000006,-0.20916,22.5,0,494,362,675,1897,34.81984375,113713,20.503888735667527,1013.2673517330193,0,,,,N/A,False
2024-04-02T10:35:24,1.3926227532000002,-0.1292124204,9.89970530185,0.04413501345980661,0.0019853120241435504,-0.04092797095926703,0.035980000000000005,0.2933,-0.21462000000000003,22.5,0,494,362,675,1897,34.898359375,114952,20.51433866791178,1013.2634179638975,0,,,,N/A,False
2024-04-02T10:35:24,1.4458630560499999,-0.1579262916,9.967302540299999,0.04688390703169768,-0.006261368691529657,-0.04016438941151951,0.039900000000000005,0.29582,-0.20986000000000002,22.5,0,494,362,675,1897,34.898359375,114952,20.51433866791178,1013.2634179638975,0,,,,N/A,False
2024-04-02T10:35:24,1.3322039825499998,-0.17527425545,9.888339394499999,0.040622538340168025,-0.005192354524683131,-0.037110063220529434,0.0357,0.2891,-0.20734000000000002,22.5,0,494,362,675,1897,34.981171875,114640,20.519758905406785,1013.2538058153084,0,,,,N/A,False
2024-04-02T10:35:24,1.2592228932499998,-0.11964112999999998,9.69272614695,0.04550946024575215,-0.009010262263420728,-0.03466660226773738,0.03542,0.29246000000000005,-0.20566000000000004,22.5,0,494,362,675,1897,34.981171875,114640,20.519758905406785,1013.2538058153084,0,,,,N/A,False
2024-04-02T10:35:24,1.2777672683999999,-0.16630117069999997,9.841679353799998,0.04077525464971753,-0.010537425358915765,-0.03924809155422249,0.03626000000000001,0.29582,-0.20622000000000001,22.5,0,494,362,675,1897,35.0235546875,113179,20.51721683289271,1013.2740779934034,0,,,,N/A,False
2024-04-02T10:35:24,1.39441737015,-0.17108681589999997,9.99182897195,0.04123340357836604,0.00045814892864851157,-0.04001167310197001,0.03934,0.2947000000000001,-0.20846,22.5,1,495,363,675,1898,35.0235546875,113179,20.51721683289271,1013.2740779934034,0,,,,N/A,False
2024-04-02T10:35:24,1.3519447689999997,-0.09750752095,9.83150985775,0.04153883619746505,0.0025961772623415654,-0.040622538340168025,0.032900000000000006,0.28714000000000006,-0.20944000000000002,22.5,1,495,363,675,1898,35.0235546875,113179,20.51721683289271,1013.2740779934034,0,,,,N/A,False
2024-04-02T10:35:25,1.3387842447,-0.15373885204999999,9.76092159105,0.04245513405476207,-0.0068722339297276735,-0.0357356164345839,0.0427,0.29582,-0.20244000000000004,22.5,1,495,363,675,1898,35.0036328125,112801,20.505278323617294,1013.2867989828841,0,,,,N/A,False
2024-04-02T10:35:25,1.2969098491999997,-0.1387837108,9.719047195549999,0.04092797095926703,-0.008093964406123704,-0.038179077387375956,0.038500000000000006,0.28686,-0.21014000000000002,22.5,1,495,363,675,1898,34.921015625,109863,20.4892428159997,1013.2985415557539,0,,,,N/A,False
2024-04-02T10:35:25,1.3304093655999998,-0.1004985492,9.73101130855,0.041996985126113565,-0.006108652381980154,-0.03772092845872745,0.038220000000000004,0.29526,-0.21938000000000002,22.5,1,495,363,675,1898,34.869453125,112575,20.485873134613314,1013.275937696117,0,,,,N/A,False
2024-04-02T10:35:25,1.3854442854,-0.1734796385,9.90329453575,0.04718933965079669,-0.004581489286485115,-0.04046982203061852,0.030660000000000003,0.2905,-0.20832000000000003,22.5,1,495,362,673,1893,34.878828125,112575,20.486485689758993,1013.262304266758,0,,,,N/A,False
2024-04-02T10:35:25,1.3280165429999997,-0.18305092890000002,9.77886776055,0.04016438941151951,-0.010231992739816757,-0.041386119887915546,0.039900000000000005,0.28154,-0.21630000000000002,22.5,1,495,362,673,1893,34.9337109375,115188,20.490072707920664,1013.2577842112275,0,,,,N/A,False
2024-04-02T10:35:26,1.2335000503,-0.11545369045,9.7842516114,0.038179077387375956,0.0007635815477475193,-0.03481931857728687,0.038220000000000004,0.28434000000000004,-0.1988,22.5,1,495,362,673,1893,34.9985546875,115900,20.483680858481634,1013.2568314466063,0,,,,N/A,False
2024-04-02T10:35:26,1.3627124707,-0.1519442351,9.936195846499999,0.043676864531158106,-0.003970624048287101,-0.038789942625573975,0.040740000000000005,0.29274,-0.21196,22.5,1,496,363,674,1894,35.0626171875,115979,20.509139496372658,1013.2545860860846,0,,,,N/A,False
2024-04-02T10:35:26,1.37288196675,-0.1459621786,9.98225768155,0.04306599929296009,0.0013744467859455349,-0.038942658935123484,0.038500000000000006,0.27986,-0.21686000000000002,22.5,1,496,363,674,1894,35.0626171875,115979,20.509139496372658,1013.2545860860846,0,,,,N/A,False
2024-04-02T10:35:26,1.2795618853499997,-0.09152546445000001,9.910473003549999,0.03924809155422249,-0.007483099167925688,-0.00045814892864851157,0.03794,0.2823800000000001,-0.19460000000000002,22.5,1,496,363,674,1894,35.0360546875,111239,20.480816754755665,1013.2763738221495,0,,,,N/A,False
2024-04-02T10:35:26,1.3627124707,-0.12203395259999998,9.914062237449999,0.0435241482216086,0.0018325957145940463,-0.039095375244672985,0.041580000000000006,0.28686,-0.20510000000000003,22.5,1,496,363,674,1894,35.0360546875,111239,20.480816754755665,1013.2763738221495,0,,,,N/A,False
2024-04-02T10:35:26,1.2598210988999998,-0.17108681589999997,9.8763752815,0.04214970143566306,-0.012522737383059314,-0.036499197982331415,0.037380000000000004,0.28266,-0.21938000000000002,22.5,1,496,363,674,1894,35.0360546875,111239,20.480816754755665,1013.2763738221495,0,,,,N/A,False
2024-04-02T10:35:27,1.3004990831,-0.13459627124999998,9.7818587888,0.04581489286485116,-0.005345070834232635,-0.04001167310197001,0.04354000000000001,0.28602000000000005,-0.20874,22.5,1,495,363,674,1893,34.9887890625,110947,20.47772680588151,1013.2770660719231,0,,,,N/A,False
2024-04-02T10:35:27,1.2604193045499996,-0.12861421474999998,9.798608546999999,0.041844268816564056,-0.00473420559603462,-0.03756821214917795,0.037380000000000004,0.29302000000000006,-0.20916,22.5,1,495,363,674,1893,34.521015625,100148,20.420676321091708,1013.2859666695949,0,,,,N/A,False
2024-04-02T10:35:27,1.3663017045999997,-0.14057832774999998,9.979266653299998,0.03924809155422249,-0.00595593607243065,-0.037110063220529434,0.03374,0.28966000000000003,-0.20034000000000002,22.5,1,495,363,674,1893,34.3165234375,103719,20.439223246346774,1013.2666659659227,0,,,,N/A,False
2024-04-02T10:35:27,1.3166506356499998,-0.13339985995,9.771091087099999,0.04077525464971753,-0.010384709049366262,-0.038484510006474966,0.043820000000000005,0.2888200000000001,-0.21448000000000003,22.5,1,495,363,672,1889,34.3231640625,105932,20.487415547847036,1013.2468013736404,0,,,,N/A,False
2024-04-02T10:35:27,1.2897313813999998,-0.11724830739999999,9.771091087099999,0.041080687268816536,-0.0035124751196385882,-0.038942658935123484,0.04438,0.28462,-0.21196,22.5,1,495,363,672,1889,34.4176953125,108941,20.530743794463195,1013.2330489908906,0,,,,N/A,False
2024-04-02T10:35:28,1.5236297905499996,-0.15074782379999999,9.938588669099998,0.04596760917440065,-0.008704829644321718,-0.039095375244672985,0.03794,0.2888200000000001,-0.2121,22.5,1,495,363,672,1889,34.5425,109720,20.570775156371823,1013.2216573331481,0,,,,N/A,False
2024-04-02T10:35:28,1.3782658175999998,-0.14656038424999998,9.990632560649999,0.0474947722698957,-0.0013744467859455349,-0.039095375244672985,0.04046,0.28490000000000004,-0.20328000000000002,22.5,1,495,363,672,1889,34.596796875,107621,20.61153741984651,1013.2469750413325,0,,,,N/A,False
2024-04-02T10:35:28,1.2927224096499998,-0.08255237969999998,9.7615197967,0.043982297150257116,-0.006261368691529657,-0.04046982203061852,0.0413,0.2835,-0.20370000000000002,22.5,1,495,363,672,1888,34.634296875,110366,20.63526584895981,1013.2412817025246,0,,,,N/A,False
2024-04-02T10:35:28,1.3256237203999999,-0.12263215824999998,9.88534836625,0.043982297150257116,-0.0022907446432425577,-0.038331793696925465,0.0413,0.28574,-0.19292,22.5,1,495,363,672,1888,34.634296875,110366,20.63526584895981,1013.2412817025246,0,,,,N/A,False
2024-04-02T10:35:28,1.2939188209499997,-0.1698904046,9.8572327007,0.04230241774521256,-0.014049900478554353,-0.041691552507014555,0.04354000000000001,0.29162,-0.21462000000000003,22.5,1,495,363,672,1888,34.634296875,110366,20.63526584895981,1013.2412817025246,0,,,,N/A,False
2024-04-02T10:35:29,1.31545422435,-0.18125631194999997,9.91884788265,0.04153883619746505,-0.008857545953871223,-0.03252857393404432,0.0427,0.28042,-0.21280000000000002,22.5,1,495,363,671,1887,34.7266796875,111681,20.673252369840046,1013.2437601119776,0,,,,N/A,False
2024-04-02T10:35:29,1.3100703735,-0.179461695,9.9218389109,0.039095375244672985,-0.004123340357836604,-0.03527746750593539,0.04354000000000001,0.28322,-0.20734000000000002,22.5,1,495,363,671,1887,34.7266796875,111681,20.673252369840046,1013.2437601119776,0,,,,N/A,False
2024-04-02T10:35:29,1.29750805485,-0.10707881135,9.789037256599999,0.04245513405476207,-0.0035124751196385882,-0.036804630601430424,0.0357,0.29134000000000004,-0.20748000000000003,22.5,1,495,363,671,1887,34.7266796875,111681,20.673252369840046,1013.2437601119776,0,,,,N/A,False
2024-04-02T10:35:29,1.2873385588,-0.10169496049999999,9.802197780899998,0.04291328298341058,-0.0007635815477475193,-0.041844268816564056,0.0413,0.29134000000000004,-0.21098000000000003,22.5,1,495,363,671,1887,34.265546875,97206,20.64296880941413,1013.2503156491013,0,,,,N/A,False
2024-04-02T10:35:29,1.2699905949499997,-0.14955141249999998,9.8548398781,0.04382958084070761,-0.006414085001079162,-0.039095375244672985,0.03458000000000001,0.29638000000000003,-0.21476,22.5,1,495,363,671,1887,34.0817578125,101048,20.689364535322664,1013.2393067644279,0,,,,N/A,False
2024-04-02T10:35:29,1.32382910345,-0.18664016279999998,9.8177511278,0.04566217655530165,-0.010537425358915765,-0.039095375244672985,0.038220000000000004,0.29918,-0.20314000000000002,22.5,1,495,363,671,1887,34.0817578125,101048,20.689364535322664,1013.2393067644279,0,,,,N/A,False
2024-04-02T10:35:29,1.2454641632999999,-0.12981062605,9.73818977635,0.041080687268816536,-0.010231992739816757,-0.038789942625573975,0.042140000000000004,0.2891,-0.20706000000000002,22.5,0,495,362,671,1885,34.0817578125,101048,20.689364535322664,1013.2393067644279,0,,,,N/A,False
2024-04-02T10:35:29,1.2825529135999998,-0.10468598874999999,9.7794659662,0.03787364476827696,-0.007483099167925688,-0.03420845333908886,0.04578,0.28826000000000007,-0.20636000000000002,22.5,0,495,362,671,1885,34.11515625,105469,20.750018432873684,1013.2360390657102,0,,,,N/A,False
2024-04-02T10:35:30,1.2311072276999997,-0.14775679555,9.78843905095,0.04123340357836604,-0.005345070834232635,-0.03726277953007894,0.039900000000000005,0.2823800000000001,-0.21812000000000004,22.5,0,495,362,671,1885,34.11515625,105469,20.750018432873684,1013.2360390657102,0,,,,N/A,False
2024-04-02T10:35:30,1.4069796888000001,-0.1351944769,9.93320481825,0.04856378643674222,-0.00045814892864851157,-0.03497203488683638,0.04914000000000001,0.29554,-0.20524,22.5,0,495,362,671,1885,34.1696484375,102087,20.7908266736134,1013.2617660976449,0,,,,N/A,False
2024-04-02T10:35:30,1.3477573294499998,-0.17228322719999997,10.00259667365,0.047952921198544204,-0.008246680715673207,-0.039400807863771994,0.03626000000000001,0.27874,-0.20062000000000002,22.5,0,495,362,671,1885,34.2133984375,102273,20.83626986934904,1013.2825959694986,0,,,,N/A,False
2024-04-02T10:35:30,1.2933206152999999,-0.1339980656,9.7962157244,0.04214970143566306,-0.0019853120241435504,-0.03375030441044035,0.03122,0.28266,-0.20412000000000002,22.5,0,495,362,671,1885,34.2133984375,102273,20.83626986934904,1013.2825959694986,0,,,,N/A,False
2024-04-02T10:35:30,1.2777672683999999,-0.11485548479999999,9.76451082495,0.04077525464971753,-0.010079276430267254,-0.038179077387375956,0.0371,0.29274,-0.20678000000000002,22.5,1,494,362,670,1883,34.2809765625,105999,20.877992819031796,1013.2682645635253,0,,,,N/A,False
2024-04-02T10:35:30,1.2526426310999998,-0.10468598874999999,9.758528768449999,0.04428772976935611,-0.0025961772623415654,-0.03741549583962844,0.03962,0.28714000000000006,-0.18872000000000003,22.5,1,494,362,670,1883,34.381171875,104684,20.89527875722955,1013.2818319866151,0,,,,N/A,False
2024-04-02T10:35:31,1.30947216785,-0.14536397295,9.83509909165,0.04444044607890562,-0.008246680715673207,-0.03466660226773738,0.027860000000000003,0.28770000000000007,-0.20902,22.5,1,494,363,671,1885,34.467109375,107965,20.943596567168584,1013.2666852874106,0,,,,N/A,False
2024-04-02T10:35:31,1.3028919057,-0.17647066675,9.7782695549,0.039858956792420505,-0.014813482026301873,-0.03924809155422249,0.03878,0.29274,-0.21280000000000002,22.5,1,494,363,671,1885,34.467109375,107965,20.943596567168584,1013.2666852874106,0,,,,N/A,False
2024-04-02T10:35:31,1.34895374075,-0.12502498085,9.906285564,0.04428772976935611,-0.003054326190990077,-0.04046982203061852,0.03878,0.29638000000000003,-0.20986000000000002,22.5,1,494,363,671,1885,34.2091015625,99323,20.910497003481133,1013.2882234389089,0,,,,N/A,False
2024-04-02T10:35:31,1.3351950108,-0.15493526335,9.88893760015,0.04245513405476207,-0.01466076571675237,-0.039400807863771994,0.04102,0.29610000000000003,-0.20426000000000002,23.5,1,494,363,671,1885,34.131171875,101108,20.931950653755084,1013.2784177248425,0,,,,N/A,False
2024-04-02T10:35:31,1.2747762401499998,-0.17647066675,9.9086783866,0.041996985126113565,-0.010079276430267254,-0.03787364476827696,0.033460000000000004,0.29974,-0.21182,22.5,1,494,363,671,1885,34.131171875,101108,20.931950653755084,1013.2784177248425,0,,,,N/A,False
2024-04-02T10:35:32,1.4243276526499997,-0.1112662509,9.9744810081,0.043982297150257116,-0.0006108652381980154,-0.038942658935123484,0.03458000000000001,0.27874,-0.19026,22.5,0,495,362,671,1885,34.1684765625,105733,20.961047904367817,1013.2616593973688,0,,,,N/A,False
2024-04-02T10:35:32,1.3770694062999997,-0.11665010174999998,9.8739824589,0.04321871560250959,0.007330382858376185,-0.037110063220529434,0.033460000000000004,0.28994000000000003,-0.20328000000000002,22.5,0,495,362,671,1885,34.1684765625,105733,20.961047904367817,1013.2616593973688,0,,,,N/A,False
2024-04-02T10:35:32,1.38364966845,-0.15553346899999998,9.869795019349999,0.04001167310197001,-0.009926560120717751,-0.04153883619746505,0.045500000000000006,0.28378000000000003,-0.21406000000000003,22.5,0,495,362,671,1885,34.1684765625,105733,20.961047904367817,1013.2616593973688,0,,,,N/A,False
2024-04-02T10:35:32,1.387837108,-0.13339985995,9.92602635045,0.04321871560250959,-0.007330382858376185,-0.04001167310197001,0.03262,0.29190000000000005,-0.20006000000000004,22.5,1,495,362,670,1884,33.89484375,96099,20.95354745030535,1013.2645542988998,0,,,,N/A,False
2024-04-02T10:35:32,1.3818550515,-0.15972090854999998,9.89970530185,0.04550946024575215,-0.002138028333693054,-0.03924809155422249,0.037380000000000004,0.2829400000000001,-0.20258,22.5,1,495,362,670,1884,33.89484375,96099,20.95354745030535,1013.2645542988998,0,,,,N/A,False
2024-04-02T10:35:33,1.3100703735,-0.15433705769999997,9.82792062385,0.04321871560250959,-0.012217304763960308,-0.040622538340168025,0.03234,0.2933,-0.21392000000000003,22.5,1,496,362,672,1888,33.81828125,96983,20.98040396286894,1013.2695064119521,0,,,,N/A,False
2024-04-02T10:35:33,1.3375878333999998,-0.13698909385,9.77767134925,0.04444044607890562,-0.008857545953871223,-0.03512475119638588,0.04438,0.28602000000000005,-0.20146,22.5,1,496,362,672,1888,33.494453125,91592,21.02810685486242,1013.2657417813873,0,,,,N/A,False
2024-04-02T10:35:33,1.3525429746499997,-0.09930213789999999,9.819545744749998,0.04581489286485116,0.0019853120241435504,-0.040622538340168025,0.03934,0.28546000000000005,-0.20832000000000003,22.5,1,496,362,672,1888,33.494453125,91592,21.02810685486242,1013.2657417813873,0,,,,N/A,False
2024-04-02T10:35:33,1.29032958705,-0.11006983959999998,9.68435126785,0.04459316238845512,-0.0006108652381980154,-0.04016438941151951,0.04186000000000001,0.29358000000000006,-0.21266000000000002,22.5,1,496,362,672,1888,33.428046875,94803,21.071585170337748,1013.2456625294574,0,,,,N/A,False
2024-04-02T10:35:33,1.3328021881999996,-0.12323036389999999,9.735796953749999,0.04550946024575215,-0.005803219762881146,-0.041844268816564056,0.037380000000000004,0.28546000000000005,-0.20846,22.5,1,496,362,672,1888,33.428046875,94803,21.071585170337748,1013.2456625294574,0,,,,N/A,False
2024-04-02T10:35:34,1.3148560187,-0.11605189609999998,9.74177901025,0.041844268816564056,-0.0038179077387375964,-0.038789942625573975,0.03458000000000001,0.29358000000000006,-0.2156,22.5,1,495,363,672,1888,33.5555859375,96484,21.143946866210328,1013.2573542992509,0,,,,N/A,False
2024-04-02T10:35:34,1.3136596073999998,-0.13459627124999998,9.70827949385,0.04153883619746505,-0.003970624048287101,-0.038179077387375956,0.037660000000000006,0.2933,-0.21098000000000003,22.5,1,495,363,672,1888,33.5555859375,96484,21.143946866210328,1013.2573542992509,0,,,,N/A,False
2024-04-02T10:35:34,1.3800604345499998,-0.1328016543,9.97986485895,0.04673119072214818,-0.0006108652381980154,-0.039553524173321496,0.04186000000000001,0.29162,-0.21084000000000003,22.5,1,495,363,672,1888,33.5555859375,96484,21.143946866210328,1013.2573542992509,0,,,,N/A,False
2024-04-02T10:35:34,1.3770694062999997,-0.11784651304999999,9.90808018095,0.041691552507014555,-0.001069014166846527,-0.039553524173321496,0.03458000000000001,0.28014000000000006,-0.2156,22.5,1,495,363,672,1888,33.4690625,94253,21.191435462295583,1013.2657572106374,0,,,,N/A,False
2024-04-02T10:35:34,1.2699905949499997,-0.14237294469999998,9.78724263965,0.03772092845872745,-0.0054977871437821395,-0.04306599929296009,0.03514,0.28574,-0.20692000000000002,22.5,1,495,363,672,1888,33.4690625,94253,21.191435462295583,1013.2657572106374,0,,,,N/A,False
2024-04-02T10:35:34,1.3866406966999998,-0.1471585899,9.9110712092,0.04382958084070761,-0.006566801310628666,-0.038484510006474966,0.0413,0.28462,-0.21266000000000002,22.5,1,495,363,672,1888,33.4690625,94253,21.191435462295583,1013.2657572106374,0,,,,N/A,False
2024-04-02T10:35:34,1.3405788616499998,-0.17228322719999997,9.93559764085,0.043676864531158106,-0.007941248096574201,-0.03497203488683638,0.03402,0.28770000000000007,-0.21056000000000002,22.5,1,495,363,672,1888,33.5122265625,97262,21.226282605668366,1013.2532850765627,0,,,,N/A,False
2024-04-02T10:35:34,1.3064811395999998,-0.11964112999999998,9.789635462249999,0.04413501345980661,-0.002901609881440573,-0.03695734691097993,0.03402,0.28966000000000003,-0.22260000000000002,22.5,1,495,363,673,1889,33.687421875,99793,21.27532578638518,1013.2381079206266,0,,,,N/A,False
