Timestamp,Accel_X,Accel_Y,Accel_Z,Gyro_X,Gyro_Y,Gyro_Z,Mag_X,Mag_Y,Mag_Z,LSM9DS1_Temp,Proximity,Color_R,Color_G,Color_B,Color_C,BME680_Temp,Gas,Humidity,Pressure,Switch_Pressed,GPS_Latitude,GPS_Longitude,GPS_Speed,GPS_Timestamp,Pad_press
2024-03-25T15:23:51,-3.2147571630999994,1.5619149521499998,9.57308501695,0.03543018381548489,0.00473420559603462,-0.03451388595818787,0.17094000000000004,0.23338000000000003,-0.44142000000000003,7.5,0,0,0,0,0,33.574921875,1393189,100,695.662002676745,0,40.689338,-73.99184,,19:23:50,
2024-03-25T15:23:51,-3.2141589574499996,1.5834503555499997,9.530014210149998,0.03787364476827696,0.0022907446432425577,-0.03466660226773738,0.16982000000000003,0.2233,-0.43498000000000003,7.5,0,0,0,0,0,33.574921875,1393189,100,695.662002676745,0,40.689338,-73.99184,,19:23:50,
2024-03-25T15:23:51,-3.2476584738499996,1.5798611216499998,9.73101130855,0.03588833274413341,0.003054326190990077,-0.0357356164345839,0.17066000000000003,0.23058,-0.43470000000000003,7.5,0,0,0,0,0,33.574921875,1393189,100,695.662002676745,0,40.689338,-73.99184,,19:23:50,
2024-03-25T15:23:51,-3.2596225868499995,1.5655041860499999,9.5509514079,0.03665191429188092,0.005803219762881146,-0.03543018381548489,0.16982000000000003,0.22638000000000003,-0.42784000000000005,7.5,0,0,0,0,0,13.458125,194207,21.862218293161177,1027.48334019049,0,40.689338,-73.99184,0.67,19:23:50,
2024-03-25T15:23:52,-3.2626136151,1.6031911419999998,9.61256658985,0.037110063220529434,0.0022907446432425577,-0.03436116964863837,0.17234,0.22050000000000003,-0.4466,7.5,1,8914,8548,13467,32463,13.458125,194207,21.862218293161177,1027.48334019049,0,40.689338,-73.99184,0.67,19:23:50,
2024-03-25T15:23:52,-3.2386853890999996,1.5649059803999998,9.6000042712,0.03756821214917795,0.006414085001079162,-0.03802636107782646,0.16506,0.23002,-0.43484,7.5,1,8914,8548,13467,32463,13.458125,194207,21.862218293161177,1027.48334019049,0,40.689338,-73.991838,0.67,19:23:51,
2024-03-25T15:23:52,-3.2506495021,1.5463616052499998,9.6837530622,0.0355829001250344,-0.0015271630954950385,-0.03283400655314333,0.16786,0.23002,-0.43610000000000004,7.5,1,8914,8548,13467,32463,13.458125,194207,21.862218293161177,1027.48334019049,0,40.689338,-73.991838,0.67,19:23:51,
2024-03-25T15:23:52,-3.2769705506999998,1.5936198515999997,9.56829937175,0.03695734691097993,0.0022907446432425577,-0.03588833274413341,0.17262,0.2247,-0.43176000000000003,7.5,1,8914,8548,13467,32463,13.6837109375,206795,21.94230995039948,1027.4561599845845,0,40.689338,-73.991838,0.67,19:23:51,
2024-03-25T15:23:52,-3.2195428083000004,1.5744772707999999,9.537790883599998,0.03313943917224234,0.007941248096574201,-0.03344487179134134,0.17010000000000003,0.23170000000000002,-0.44282000000000005,7.5,1,8914,8548,13467,32463,13.6837109375,206795,21.94230995039948,1027.4561599845845,0,40.689338,-73.991838,0.38,19:23:51,
2024-03-25T15:23:52,-3.2709884942,1.5714862425499996,9.37208791855,0.03237585762449482,0.008093964406123704,-0.03772092845872745,0.16618,0.2233,-0.43456000000000006,7.5,1,8914,8548,13467,32463,13.6837109375,206795,21.94230995039948,1027.4561599845845,0,40.689338,-73.991838,0.38,19:23:51,
2024-03-25T15:23:52,-3.2081769009499994,1.5523436617499997,9.478568524249999,0.03604104905368291,0.009315694882519735,-0.03359758810089085,0.16674,0.22554000000000002,-0.43218000000000006,7.5,1,8914,8548,13467,32463,13.6837109375,206795,21.94230995039948,1027.4561599845845,0,40.689336,-73.991841,0.38,19:23:52,
2024-03-25T15:23:52,-3.2398818003999996,1.5738790651499999,9.5688975774,0.03512475119638588,0.003970624048287101,-0.03634648167278191,0.16646,0.22610000000000002,-0.43708,7.5,1,8914,8548,13467,32463,14.0622265625,213997,22.026440929049407,1027.439127196455,0,40.689336,-73.991841,0.38,19:23:52,
2024-03-25T15:23:52,-3.20219484445,1.5762718877499997,9.495916488099999,0.036193765363232405,0.003054326190990077,-0.00015271630954950385,0.16674,0.22498,-0.44100000000000006,7.5,1,8914,8548,13467,32463,14.0622265625,213997,22.026440929049407,1027.439127196455,0,40.689336,-73.991841,0.38,19:23:52,
2024-03-25T15:23:52,-3.1956145822999997,1.56071854085,9.601798888149998,0.036193765363232405,-0.0024434609527920616,-0.03512475119638588,0.16842000000000001,0.22414,-0.45150000000000007,7.5,1,8914,8548,13467,32463,14.0622265625,213997,22.026440929049407,1027.439127196455,0,40.689336,-73.991841,0.6,19:23:52,
2024-03-25T15:23:52,-3.1890343201499993,1.5595221295499997,9.513264451949999,0.03726277953007894,0.0056505034533316425,-0.03420845333908886,0.16478000000000004,0.22722000000000003,-0.43750000000000006,7.5,1,8914,8548,13467,32463,14.0622265625,213997,22.026440929049407,1027.439127196455,0,40.689336,-73.991841,0.6,19:23:52,
2024-03-25T15:23:52,-3.1651060941499995,1.59182523465,9.63170917065,0.036804630601430424,-0.00015271630954950385,-0.03497203488683638,0.16338000000000003,0.23646000000000003,-0.4478600000000001,7.5,1,8914,8548,13467,32463,14.48078125,221423,22.071922660391003,1027.436646454377,0,40.689336,-73.991845,0.6,19:23:53,
2024-03-25T15:23:53,-3.2518459134,1.56789700865,9.5389872949,0.036804630601430424,0.010537425358915765,-0.03787364476827696,0.16198,0.22638000000000003,-0.43694000000000005,7.5,1,8916,8550,13466,32470,14.879609375,227184,22.12672301317376,1027.440325128262,0,40.689336,-73.991845,0.6,19:23:53,
2024-03-25T15:23:53,-3.1375886342499997,1.6175480775999997,9.628119936749998,0.039553524173321496,0.00916297857297023,-0.03268129024359383,0.16310000000000002,0.22694000000000003,-0.42756000000000005,7.5,1,8916,8550,13466,32470,14.879609375,227184,22.12672301317376,1027.440325128262,0,40.689336,-73.991845,0.6,19:23:53,
2024-03-25T15:23:53,-3.27039028855,1.58703958945,9.58145989605,0.03924809155422249,-0.0019853120241435504,-0.03634648167278191,0.16394000000000003,0.22610000000000002,-0.43806000000000006,7.5,1,8916,8550,13466,32470,14.879609375,227184,22.12672301317376,1027.440325128262,0,40.689336,-73.991845,0.6,19:23:53,
2024-03-25T15:23:53,-3.2147571630999994,1.5828521499,9.56949578305,0.03420845333908886,0.0013744467859455349,-0.03283400655314333,0.16618,0.23310000000000003,-0.42252000000000006,7.5,0,8915,8551,13460,32463,14.879609375,227184,22.12672301317376,1027.440325128262,0,40.689336,-73.991845,0.6,19:23:53,
2024-03-25T15:23:53,-3.1698917393499997,1.59182523465,9.606584533349999,0.03741549583962844,0.004123340357836604,-0.03390302071998985,0.16618,0.23142000000000001,-0.43316000000000004,7.5,0,8915,8551,13460,32463,14.7059765625,211676,22.01310782927713,1027.4567925319743,0,40.689336,-73.991845,0.6,19:23:53,
2024-03-25T15:23:53,-3.3080772444999993,1.5355939035499997,9.52403215365,0.03313943917224234,0.0015271630954950385,-0.03222314131494531,0.16646,0.22806000000000004,-0.4438000000000001,7.5,0,8915,8551,13460,32463,14.7059765625,211676,22.01310782927713,1027.4567925319743,0,40.689336,-73.991845,0.6,19:23:53,
2024-03-25T15:23:53,-3.2374889777999996,1.5804593272999998,9.54556755705,0.036499197982331415,-0.00015271630954950385,-0.036499197982331415,0.16198,0.23198000000000002,-0.44954,7.5,0,8915,8551,13460,32463,14.7059765625,211676,22.01310782927713,1027.4567925319743,0,40.689336,-73.991845,0.6,19:23:53,
2024-03-25T15:23:53,-3.2775687563499996,1.5756736821,9.566504754799999,0.039095375244672985,-0.003207042500539581,-0.03695734691097993,0.16702,0.22890000000000005,-0.43512000000000006,7.5,0,8915,8551,13460,32463,14.7059765625,211676,22.01310782927713,1027.4567925319743,0,40.689336,-73.991845,0.6,19:23:53,
2024-03-25T15:23:53,-3.3146575066499997,1.5780665047,9.53479985535,0.038179077387375956,0.007788531787024696,-0.03772092845872745,0.16674,0.23282000000000003,-0.44282000000000005,7.5,0,8915,8551,13460,32463,14.7579296875,222462,22.06780889888031,1027.4255152123899,0,40.689336,-73.991845,0.86,19:23:53,
2024-03-25T15:23:53,-3.2793633732999994,1.5553346899999998,9.5772724565,0.03665191429188092,-0.00045814892864851157,-0.0319177086958463,0.16254000000000002,0.22414,-0.42812000000000006,7.5,0,8915,8551,13460,32463,14.7579296875,222462,22.06780889888031,1027.4255152123899,0,40.689336,-73.991845,0.86,19:23:53,
2024-03-25T15:23:53,-3.2925238975999997,1.5559328956499998,9.55513884745,0.03604104905368291,0.006414085001079162,-0.036193765363232405,0.16394000000000003,0.22610000000000002,-0.43960000000000005,7.5,0,8915,8551,13460,32463,14.7579296875,222462,22.06780889888031,1027.4255152123899,0,40.689335,-73.991848,0.86,19:23:54,
2024-03-25T15:23:54,-3.2542387359999996,1.5954144685499996,9.5688975774,0.03665191429188092,0.0068722339297276735,-0.036193765363232405,0.16142,0.22526000000000002,-0.4473000000000001,7.5,1,8910,8546,13454,32440,14.9817578125,229860,22.11218271302288,1027.4185210095995,0,40.689335,-73.991848,0.86,19:23:54,
2024-03-25T15:23:54,-3.2476584738499996,1.5786647103499998,9.57787066215,0.03298672286269283,0.003207042500539581,-0.03436116964863837,0.16114,0.23254000000000002,-0.44142000000000003,7.5,1,8910,8546,13454,32440,14.9817578125,229860,22.11218271302288,1027.4185210095995,0,40.689335,-73.991848,0.86,19:23:54,
2024-03-25T15:23:54,-3.2356943608499997,1.5816557385999996,9.5102734237,0.03512475119638588,0.0018325957145940463,-0.036804630601430424,0.16002000000000002,0.22694000000000003,-0.42980000000000007,7.5,1,8910,8546,13454,32440,14.9817578125,229860,22.11218271302288,1027.4185210095995,0,40.689335,-73.991848,0.7,19:23:54,
2024-03-25T15:23:54,-3.2572297642499994,1.567298803,9.57428142825,0.03451388595818787,0.0003054326190990077,-0.03604104905368291,0.15946000000000002,0.22078000000000003,-0.43862000000000007,7.5,1,8910,8546,13454,32440,14.9817578125,229860,22.11218271302288,1027.4185210095995,0,40.689335,-73.991848,0.7,19:23:54,
2024-03-25T15:23:54,-3.21176613485,1.5792629159999998,9.53719267795,0.03665191429188092,0.0027488935718910697,-0.03588833274413341,0.16310000000000002,0.22498,-0.42630000000000007,7.5,1,8910,8546,13454,32440,14.82921875,215246,22.025613330081562,1027.4427208693712,0,40.689333,-73.99185,0.7,19:23:55,
2024-03-25T15:23:55,-3.0945178274499994,1.5798611216499998,9.6358966102,0.0355829001250344,-0.03772092845872745,-0.038179077387375956,0.16338000000000003,0.22778000000000004,-0.45458000000000004,7.5,0,8921,8553,13461,32457,14.8805859375,224418,22.080301685555735,1027.4261969281663,0,40.689333,-73.99185,0.7,19:23:55,
2024-03-25T15:23:55,-3.26919387725,1.48654104025,9.61974505765,0.03451388595818787,-0.0006108652381980154,-0.03527746750593539,0.15498,0.23086,-0.44842000000000004,7.5,0,8921,8553,13461,32457,14.8805859375,224418,22.080301685555735,1027.4261969281663,0,40.689333,-73.99185,0.7,19:23:55,
2024-03-25T15:23:55,-3.0855447426999993,1.5696916255999998,9.527023181899999,0.038331793696925465,0.010231992739816757,-0.03451388595818787,0.16002000000000002,0.22442,-0.43932000000000004,7.5,0,8921,8553,13461,32457,14.8805859375,224418,22.080301685555735,1027.4261969281663,0,40.689333,-73.99185,0.54,19:23:55,
2024-03-25T15:23:55,-3.1794630297499995,1.5637095691,9.562317315249999,0.03588833274413341,0.009926560120717751,-0.03329215548179184,0.15974000000000002,0.22862000000000005,-0.43512000000000006,7.5,0,8921,8553,13461,32457,14.8805859375,224418,22.080301685555735,1027.4261969281663,0,40.689333,-73.99185,0.54,19:23:55,
2024-03-25T15:23:55,-3.1609186545999997,1.5320046696499998,9.55992449265,0.037110063220529434,-0.0016798794050445422,-0.0355829001250344,0.15862,0.22302000000000002,-0.44128,7.5,0,8926,8558,13464,32475,14.6212109375,212626,21.95649494010908,1027.4430292553695,0,40.689336,-73.991851,0.54,19:23:56,
2024-03-25T15:23:56,-3.2327033326,1.60857499285,9.574879633899998,0.03344487179134134,0.008246680715673207,-0.03283400655314333,0.16114,0.22274000000000002,-0.44478,7.5,1,8954,8578,13489,32560,14.6348828125,222911,22.019192173268486,1027.408330408621,0,40.689336,-73.991851,0.54,19:23:56,
2024-03-25T15:23:56,-3.2434710343,1.5816557385999996,9.642476872349999,0.039858956792420505,-0.0009162978572970231,-0.03634648167278191,0.1673,0.22946,-0.44520000000000004,7.5,1,8954,8578,13489,32560,14.6348828125,222911,22.019192173268486,1027.408330408621,0,40.689336,-73.991851,0.54,19:23:56,
2024-03-25T15:23:56,-3.2051858726999995,1.5505490447999999,9.61376300115,0.03665191429188092,0.005192354524683131,-0.03405573702953936,0.1617,0.22526000000000002,-0.43918000000000007,7.5,1,8954,8578,13489,32560,14.6348828125,222911,22.019192173268486,1027.408330408621,0,40.689336,-73.991851,0.46,19:23:56,
2024-03-25T15:23:56,-3.2123643404999997,1.5529418674,9.53360344405,0.03543018381548489,0.003970624048287101,-0.03451388595818787,0.16338000000000003,0.22414,-0.44548000000000004,7.5,1,8954,8578,13489,32560,14.6348828125,222911,22.019192173268486,1027.408330408621,0,40.689336,-73.991851,0.46,19:23:56,
2024-03-25T15:23:56,-3.2398818003999996,1.6067803759,9.771689292749999,0.03237585762449482,0.0038179077387375964,-0.036193765363232405,0.16450000000000004,0.2233,-0.4513600000000001,7.5,1,8954,8578,13489,32560,14.4419140625,212354,21.9407077212381,1027.4321766930452,0,40.689336,-73.991846,0.46,19:23:57,
2024-03-25T15:23:57,-3.33499649875,1.5583257182499999,9.61735223505,0.03741549583962844,0.004886921905584123,-0.03313943917224234,0.16702,0.22890000000000005,-0.45990000000000003,7.5,1,8942,8568,13479,32530,14.5024609375,221867,22.011315739962754,1027.4050051088425,0,40.689336,-73.991846,0.46,19:23:57,
2024-03-25T15:23:57,-3.2350961551999995,1.5942180572499998,9.5868437469,0.036499197982331415,0.0024434609527920616,-0.031764992386296806,0.16562000000000002,0.23058,-0.45402000000000003,7.5,1,8942,8568,13479,32530,14.5024609375,221867,22.011315739962754,1027.4050051088425,0,40.689336,-73.991846,0.46,19:23:57,
2024-03-25T15:23:57,-3.22492665915,1.5828521499,9.580263484749999,0.038637226316024474,0.00473420559603462,-0.03604104905368291,0.16422000000000003,0.22302000000000002,-0.45878,7.5,1,8942,8568,13479,32530,14.5024609375,221867,22.011315739962754,1027.4050051088425,0,40.689336,-73.991846,1.38,19:23:57,
2024-03-25T15:23:57,-3.2279176873999997,1.57507547645,9.62333429155,0.04077525464971753,0.0024434609527920616,-0.03405573702953936,0.16226000000000002,0.22078000000000003,-0.45444000000000007,7.5,1,8942,8568,13479,32530,14.5024609375,221867,22.011315739962754,1027.4050051088425,0,40.689336,-73.991846,1.38,19:23:57,
2024-03-25T15:23:57,-3.2398818003999996,1.5882360007499998,9.620941468949999,0.03497203488683638,0.0036651914291880926,-0.03298672286269283,0.16674,0.22610000000000002,-0.43750000000000006,7.5,1,8942,8568,13479,32530,14.3247265625,209802,21.923468116747436,1027.4264974071928,0,40.689335,-73.991843,1.38,19:23:58,
2024-03-25T15:23:58,-3.2177481913499997,1.5816557385999996,9.547362174,0.0355829001250344,0.003054326190990077,-0.03512475119638588,0.16478000000000004,0.22862000000000005,-0.44422,7.5,0,8930,8561,13462,32489,14.403828125,220981,21.995146351309995,1027.4027416697538,0,40.689335,-73.991843,1.38,19:23:58,
2024-03-25T15:23:58,-3.21655178005,1.57268265385,9.5641119322,0.03726277953007894,0.0013744467859455349,-0.03588833274413341,0.16674,0.22862000000000005,-0.44562000000000007,7.5,0,8930,8561,13462,32489,14.403828125,220981,21.995146351309995,1027.4027416697538,0,40.689335,-73.991843,1.38,19:23:58,
2024-03-25T15:23:58,-3.2524441190499997,1.56311136345,9.558129875699999,0.03405573702953936,0.004886921905584123,-0.03298672286269283,0.16898000000000002,0.22078000000000003,-0.44128,7.5,0,8930,8561,13462,32489,14.403828125,220981,21.995146351309995,1027.4027416697538,0,40.689335,-73.991843,1.38,19:23:58,
2024-03-25T15:23:58,-3.22133742525,1.5589239239,9.5330052384,0.0355829001250344,0.0018325957145940463,-0.03481931857728687,0.17066000000000003,0.22414,-0.4496800000000001,7.5,0,8930,8561,13462,32489,14.26046875,209802,21.929972046732757,1027.4175481155712,0,40.689335,-73.991843,1.38,19:23:58,
2024-03-25T15:23:58,-3.242274623,1.5619149521499998,9.55035320225,0.03665191429188092,0.0027488935718910697,-0.03436116964863837,0.16506,0.2247,-0.44562000000000007,7.5,0,8930,8561,13462,32489,14.26046875,209802,21.929972046732757,1027.4175481155712,0,40.689335,-73.991843,1.38,19:23:58,
2024-03-25T15:23:58,-3.2273194817499995,1.5912270289999997,9.654440985349998,0.037110063220529434,0.002901609881440573,-0.03283400655314333,0.1659,0.22582000000000002,-0.44996,7.5,0,8930,8561,13462,32489,14.26046875,209802,21.929972046732757,1027.4175481155712,0,40.689335,-73.991843,1.38,19:23:58,
2024-03-25T15:23:58,-3.2404800060500003,1.5852449725,9.55035320225,0.0316122760767473,0.0018325957145940463,-0.03527746750593539,0.16478000000000004,0.22358,-0.4466,7.5,0,8930,8561,13462,32489,14.3591015625,218795,22.013113653253992,1027.395348860217,0,40.689335,-73.991843,1.38,19:23:58,
2024-03-25T15:23:58,-3.2458638569,1.5792629159999998,9.63529840455,0.03543018381548489,0.004123340357836604,-0.03268129024359383,0.16086,0.22246000000000002,-0.46522,7.5,0,8930,8561,13462,32489,14.3591015625,218795,22.013113653253992,1027.395348860217,0,40.689335,-73.991843,1.38,19:23:58,
2024-03-25T15:23:58,-3.2231320422,1.5559328956499998,9.583254513,0.038789942625573975,0.0119118721448613,-0.038179077387375956,0.16450000000000004,0.22582000000000002,-0.44898000000000005,7.5,0,8930,8561,13462,32489,14.6329296875,225639,22.065510812680962,1027.3927554807976,0,40.689335,-73.991843,1.78,19:23:58,
2024-03-25T15:23:58,-3.21655178005,1.5457633995999998,9.607780944649999,0.03741549583962844,0.007330382858376185,-0.03634648167278191,0.1659,0.22078000000000003,-0.45178,7.5,0,8930,8561,13462,32489,14.6329296875,225639,22.065510812680962,1027.3927554807976,0,40.689335,-73.991843,1.78,19:23:58,
2024-03-25T15:23:58,-3.190828937099999,1.543370577,9.589834775149999,0.038179077387375956,0.008552113334772215,-0.0319177086958463,0.1673,0.22666000000000003,-0.4494,7.5,0,8930,8561,13462,32489,14.6329296875,225639,22.065510812680962,1027.3927554807976,0,40.689333,-73.99184,1.78,19:23:59,
2024-03-25T15:23:59,-3.2841490184999995,1.58703958945,9.601798888149998,0.03329215548179184,0.005803219762881146,-0.03405573702953936,0.15750000000000003,0.22526000000000002,-0.43204000000000004,7.5,0,8934,8562,13474,32505,14.96125,231949,22.110953513726393,1027.4031133026206,0,40.689333,-73.99184,1.78,19:23:59,
2024-03-25T15:23:59,-3.2147571630999994,1.5583257182499999,9.576076045199999,0.03252857393404432,0.0044287729769356115,-0.03451388595818787,0.15974000000000002,0.23282000000000003,-0.42966000000000004,7.5,0,8934,8562,13474,32505,14.96125,231949,22.110953513726393,1027.4031133026206,0,40.689333,-73.99184,1.78,19:23:59,
2024-03-25T15:23:59,-3.2279176873999997,1.5601203352,9.6059863277,0.03375030441044035,0.005039638215133627,-0.03527746750593539,0.16422000000000003,0.23310000000000003,-0.44156000000000006,7.5,0,8934,8562,13474,32505,14.96125,231949,22.110953513726393,1027.4031133026206,0,40.689333,-73.99184,1.13,19:23:59,
2024-03-25T15:23:59,-3.22492665915,1.5696916255999998,9.544371145749999,0.03543018381548489,0.0036651914291880926,-0.03543018381548489,0.16394000000000003,0.23142000000000001,-0.43372000000000005,7.5,0,8934,8562,13474,32505,14.96125,231949,22.110953513726393,1027.4031133026206,0,40.689333,-73.99184,1.13,19:23:59,
2024-03-25T15:23:59,-3.266202849,1.6002001137499997,9.5449693514,0.031001410838549282,0.007483099167925688,-0.036804630601430424,0.1589,0.22414,-0.43806000000000006,7.5,0,8934,8562,13474,32505,14.9700390625,221571,22.05983520293457,1027.4355204726587,0,40.689331,-73.99184,1.13,19:24:0,
2024-03-25T15:24:00,-3.2267212760999997,1.5702898312499998,9.59581683165,0.03604104905368291,0.001069014166846527,-0.03756821214917795,0.15526,0.22862000000000005,-0.45220000000000005,7.5,1,8933,8561,13475,32500,15.08546875,229542,22.102903522034218,1027.4221080004982,0,40.689331,-73.99184,1.13,19:24:0,
2024-03-25T15:24:00,-3.2578279698999997,1.5954144685499996,9.588638363849999,0.03268129024359383,0.002901609881440573,-0.03588833274413341,0.16086,0.2303,-0.45038000000000006,7.5,0,8936,8562,13475,32512,15.08546875,229542,22.102903522034218,1027.4221080004982,0,40.689331,-73.99184,1.13,19:24:0,
2024-03-25T15:24:00,-3.21176613485,1.5792629159999998,9.3702933016,0.03588833274413341,0.007788531787024696,-0.0357356164345839,0.16002000000000002,0.2247,-0.44520000000000004,7.5,0,8936,8562,13475,32512,15.08546875,229542,22.102903522034218,1027.4221080004982,0,40.689331,-73.99184,0.13,19:24:0,
2024-03-25T15:24:00,-3.2506495021,1.5696916255999998,9.5653083435,0.039553524173321496,0.005803219762881146,-0.03329215548179184,0.16534000000000001,0.22302000000000002,-0.45066,7.5,0,8936,8562,13475,32512,15.08546875,229542,22.102903522034218,1027.4221080004982,0,40.689331,-73.99184,0.13,19:24:0,
2024-03-25T15:24:00,-3.2434710343,1.5583257182499999,9.593424009049999,0.0357356164345839,0.002901609881440573,-0.03726277953007894,0.16058,0.23002,-0.44156000000000006,7.5,0,8936,8562,13475,32512,14.8169140625,216511,21.988761803182,1027.4394306550548,0,40.689331,-73.991841,0.13,19:24:1,
2024-03-25T15:24:01,-3.2303105099999994,1.5523436617499997,9.543174734449998,0.036193765363232405,0.0025961772623415654,-0.03604104905368291,0.17010000000000003,0.22610000000000002,-0.45304,7.5,1,8923,8553,13468,32482,14.8169140625,222611,22.0506842822937,1027.4148853344307,0,40.689331,-73.991841,0.13,19:24:1,
2024-03-25T15:24:01,-3.24406923995,1.567298803,9.595218626,0.039095375244672985,0.002138028333693054,-0.03252857393404432,0.16898000000000002,0.22078000000000003,-0.44450000000000006,7.5,1,8923,8553,13468,32482,14.8169140625,222611,22.0506842822937,1027.4148853344307,0,40.689331,-73.991841,0.13,19:24:1,
2024-03-25T15:24:01,-3.2398818003999996,1.5762718877499997,9.576076045199999,0.03527746750593539,0.004276056667386108,-0.03497203488683638,0.16142,0.22246000000000002,-0.44562000000000007,7.5,1,8923,8553,13468,32482,14.8169140625,222611,22.0506842822937,1027.4148853344307,0,40.689331,-73.991841,0.6,19:24:1,
2024-03-25T15:24:01,-3.2386853890999996,1.5804593272999998,9.598209654249999,0.039706240482871004,0.004581489286485115,-0.039553524173321496,0.16842000000000001,0.22050000000000003,-0.43708,7.5,1,8923,8553,13468,32482,14.8169140625,222611,22.0506842822937,1027.4148853344307,0,40.689331,-73.991841,0.6,19:24:1,
2024-03-25T15:24:01,-3.2321051269499996,1.5732808595,9.55633525875,0.03313943917224234,0.0006108652381980154,-0.036804630601430424,0.16842000000000001,0.22498,-0.44338000000000005,7.5,1,8923,8553,13468,32482,14.5950390625,211676,21.960096698888073,1027.4337826098092,0,40.689333,-73.99184,0.6,19:24:2,
2024-03-25T15:24:02,-3.2398818003999996,1.5720844482,9.5449693514,0.03466660226773738,0.00473420559603462,-0.036193765363232405,0.16310000000000002,0.22694000000000003,-0.43316000000000004,7.5,0,8920,8549,13467,32474,14.631953125,223511,22.024176310884016,1027.4068772051385,0,40.689333,-73.99184,0.6,19:24:2,
2024-03-25T15:24:02,-3.22373024785,1.5762718877499997,9.60060247685,0.038179077387375956,0.0054977871437821395,-0.03665191429188092,0.16646,0.22862000000000005,-0.43624000000000007,7.5,0,8920,8549,13467,32474,14.631953125,223511,22.024176310884016,1027.4068772051385,0,40.689333,-73.99184,0.6,19:24:2,
2024-03-25T15:24:02,-3.2297123043499996,1.5684952143,9.567701166099999,0.03634648167278191,0.0038179077387375964,-0.031459559767197796,0.15750000000000003,0.23310000000000003,-0.43246,7.5,0,8920,8549,13467,32474,14.631953125,223511,22.024176310884016,1027.4068772051385,0,40.689333,-73.99184,0.43,19:24:2,
2024-03-25T15:24:02,-3.2267212760999997,1.59182523465,9.567102960449999,0.03665191429188092,0.0019853120241435504,-0.03588833274413341,0.16282000000000002,0.23170000000000002,-0.43512000000000006,7.5,0,8920,8549,13467,32474,14.631953125,223511,22.024176310884016,1027.4068772051385,0,40.689333,-73.99184,0.43,19:24:2,
2024-03-25T15:24:02,-3.2685956715999995,1.5762718877499997,9.59940606555,0.03420845333908886,0.004123340357836604,-0.03405573702953936,0.16674,0.23450000000000004,-0.44632000000000005,7.5,0,8920,8549,13467,32474,14.435078125,210735,21.960917226362508,1027.4293647544903,0,40.689335,-73.991841,0.43,19:24:3,
2024-03-25T15:24:03,-3.242274623,1.5756736821,9.57787066215,0.03665191429188092,0.0018325957145940463,-0.03390302071998985,0.16142,0.2233,-0.43722000000000005,7.5,0,8925,8554,13475,32502,14.49640625,220834,22.026427272803176,1027.4052699257008,0,40.689335,-73.991841,0.43,19:24:3,
2024-03-25T15:24:03,-3.22014101395,1.5708880368999998,9.580861690399999,0.038942658935123484,0.0006108652381980154,-0.03527746750593539,0.16646,0.23506000000000002,-0.4403000000000001,7.5,0,8925,8554,13475,32502,14.49640625,220834,22.026427272803176,1027.4052699257008,0,40.689335,-73.991841,0.43,19:24:3,
2024-03-25T15:24:03,-3.2321051269499996,1.567298803,9.561120903949998,0.03481931857728687,0.002901609881440573,-0.0355829001250344,0.15330000000000002,0.22862000000000005,-0.43694000000000005,7.5,0,8925,8554,13475,32502,14.49640625,220834,22.026427272803176,1027.4052699257008,0,40.689335,-73.991841,0.43,19:24:3,
2024-03-25T15:24:03,-3.242274623,1.5714862425499996,9.623932497199998,0.0355829001250344,0.007177666548826681,-0.03420845333908886,0.15778,0.22246000000000002,-0.43316000000000004,7.5,0,8925,8554,13475,32502,14.49640625,220834,22.026427272803176,1027.4052699257008,0,40.689335,-73.991841,0.43,19:24:3,
2024-03-25T15:24:03,-3.2554351472999996,1.5684952143,9.558728081349999,0.03604104905368291,0.0038179077387375964,-0.03451388595818787,0.16282000000000002,0.22302000000000002,-0.43582000000000004,7.5,0,8925,8554,13475,32502,14.3282421875,207441,21.975201364222514,1027.4289461328697,0,40.689335,-73.991841,0.43,19:24:3,
2024-03-25T15:24:03,-3.2374889777999996,1.5960126742,9.557531670049999,0.036499197982331415,0.0044287729769356115,-0.03390302071998985,0.16310000000000002,0.22610000000000002,-0.44772,7.5,0,8925,8554,13475,32502,14.3282421875,207441,21.975201364222514,1027.4289461328697,0,40.689335,-73.991841,0.43,19:24:3,
2024-03-25T15:24:03,-3.2362925664999995,1.5768700934,9.50130033895,0.03313943917224234,0.0018325957145940463,-0.03543018381548489,0.15442000000000003,0.21910000000000002,-0.44072,7.5,0,8925,8554,13475,32502,14.3282421875,207441,21.975201364222514,1027.4289461328697,0,40.689335,-73.991841,0.43,19:24:3,
2024-03-25T15:24:03,-3.2512477077499997,1.5822539442499999,9.585049129949999,0.031001410838549282,0.00473420559603462,-0.03481931857728687,0.16982000000000003,0.22134000000000004,-0.43750000000000006,7.5,0,8925,8554,13475,32502,14.4106640625,217647,22.031644626098156,1027.4055541454352,0,40.689335,-73.991841,0.43,19:24:3,
2024-03-25T15:24:03,-3.2279176873999997,1.5547364843499998,9.580861690399999,0.030695978219450276,0.0033597588100890844,-0.03420845333908886,0.16534000000000001,0.22134000000000004,-0.43092,7.5,0,8925,8554,13475,32502,14.4106640625,217647,22.031644626098156,1027.4055541454352,0,40.689335,-73.991841,0.25,19:24:3,
2024-03-25T15:24:03,-3.2075786952999996,1.5894324120499999,9.549754996599999,0.03298672286269283,0.0038179077387375964,-0.03405573702953936,0.1617,0.22862000000000005,-0.4312,7.5,0,8925,8554,13475,32502,14.4106640625,217647,22.031644626098156,1027.4055541454352,0,40.689335,-73.991841,0.25,19:24:3,
2024-03-25T15:24:03,-3.2333015382499997,1.5690934199499997,9.593424009049999,0.03451388595818787,0.006261368691529657,-0.038484510006474966,0.15722000000000003,0.22666000000000003,-0.44352,7.5,0,8925,8554,13475,32502,14.4106640625,217647,22.031644626098156,1027.4055541454352,0,40.689335,-73.99184,0.25,19:24:4,
2024-03-25T15:24:04,-3.2333015382499997,1.5876377951,9.580861690399999,0.036499197982331415,0.004276056667386108,-0.03420845333908886,0.16394000000000003,0.22050000000000003,-0.4403000000000001,7.5,0,8918,8547,13463,32472,14.672578125,225946,22.08852122586701,1027.405524487665,0,40.689335,-73.99184,0.25,19:24:4,
2024-03-25T15:24:04,-3.2554351472999996,1.5840485612,9.567701166099999,0.03359758810089085,0.004886921905584123,-0.037110063220529434,0.16562000000000002,0.22610000000000002,-0.44086000000000003,7.5,0,8918,8547,13463,32472,14.672578125,225946,22.08852122586701,1027.405524487665,0,40.689335,-73.99184,0.25,19:24:4,
2024-03-25T15:24:04,-3.2321051269499996,1.5559328956499998,9.576076045199999,0.038331793696925465,0.0018325957145940463,-0.03543018381548489,0.16058,0.22358,-0.4494,7.5,0,8918,8547,13463,32472,14.672578125,225946,22.08852122586701,1027.405524487665,0,40.689335,-73.99184,0.45,19:24:4,
2024-03-25T15:24:04,-3.2123643404999997,1.5948162628999998,9.566504754799999,0.03207042500539581,0.0025961772623415654,-0.03390302071998985,0.16870000000000002,0.22358,-0.43036,7.5,0,8918,8547,13463,32472,14.672578125,225946,22.08852122586701,1027.405524487665,0,40.689335,-73.99184,0.45,19:24:4,
2024-03-25T15:24:04,-3.2572297642499994,1.55114725045,9.5641119322,0.039095375244672985,0.001069014166846527,-0.036804630601430424,0.16254000000000002,0.22890000000000005,-0.4426800000000001,7.5,0,8918,8547,13463,32472,14.5692578125,214273,22.030761230414793,1027.4286999866415,0,40.689335,-73.991838,0.45,19:24:5,
2024-03-25T15:24:05,-3.2979077484499997,1.57507547645,9.559326287,0.036804630601430424,0.0024434609527920616,-0.03420845333908886,0.1659,0.22722000000000003,-0.44562000000000007,7.5,1,8917,8545,13458,32468,14.664375,222911,22.093193248758336,1027.4109218746441,0,40.689335,-73.991838,0.45,19:24:5,
2024-03-25T15:24:05,-3.25364053035,1.54875442785,9.584450924299999,0.03543018381548489,0.0036651914291880926,-0.03375030441044035,0.16758,0.22806000000000004,-0.44338000000000005,7.5,1,8917,8545,13458,32468,14.664375,222911,22.093193248758336,1027.4109218746441,0,40.689335,-73.991838,0.45,19:24:5,
2024-03-25T15:24:05,-3.2147571630999994,1.5906288233499997,9.553942436149999,0.0357356164345839,0.0033597588100890844,-0.039553524173321496,0.16534000000000001,0.22638000000000003,-0.43792000000000003,7.5,1,8917,8545,13458,32468,14.664375,222911,22.093193248758336,1027.4109218746441,0,40.689335,-73.991838,0.63,19:24:5,
2024-03-25T15:24:05,-3.2578279698999997,1.5708880368999998,9.556933464399998,0.03543018381548489,0.0033597588100890844,-0.03756821214917795,0.16254000000000002,0.22302000000000002,-0.43988000000000005,7.5,1,8917,8545,13458,32468,14.664375,222911,22.093193248758336,1027.4109218746441,0,40.689335,-73.991838,0.63,19:24:5,
2024-03-25T15:24:05,-3.2578279698999997,1.5828521499,9.624530702849999,0.040317105721069016,0.00595593607243065,-0.03466660226773738,0.16366000000000003,0.2247,-0.44296,7.5,1,8917,8545,13458,32468,14.462421875,209273,22.008936700352248,1027.4336025151883,0,40.689335,-73.991838,0.63,19:24:6,
2024-03-25T15:24:06,-3.2123643404999997,1.5828521499,9.553344230499999,0.039095375244672985,0.0033597588100890844,-0.03665191429188092,0.16254000000000002,0.21882000000000001,-0.4461800000000001,7.5,1,8927,8551,13466,32494,14.5173046875,220834,22.063779540654302,1027.4126085033029,0,40.689335,-73.991838,0.63,19:24:6,
2024-03-25T15:24:06,-3.2255248647999997,1.5780665047,9.55035320225,0.03344487179134134,0.0025961772623415654,-0.0319177086958463,0.1617,0.22694000000000003,-0.43554000000000004,7.5,1,8927,8551,13466,32494,14.5173046875,220834,22.063779540654302,1027.4126085033029,0,40.689335,-73.991838,0.63,19:24:6,
2024-03-25T15:24:06,-3.2219356309,1.5780665047,9.5724868113,0.03588833274413341,0.005192354524683131,-0.03481931857728687,0.16786,0.22442,-0.4467400000000001,7.5,1,8927,8551,13466,32494,14.5173046875,220834,22.063779540654302,1027.4126085033029,0,40.689335,-73.991838,0.67,19:24:6,
2024-03-25T15:24:06,-3.2374889777999996,1.5906288233499997,9.5461657627,0.03543018381548489,0.0019853120241435504,-0.03665191429188092,0.16310000000000002,0.22078000000000003,-0.42658,7.5,1,8927,8551,13466,32494,14.5173046875,220834,22.063779540654302,1027.4126085033029,0,40.689335,-73.991838,0.67,19:24:6,
2024-03-25T15:24:06,-3.0735806297,1.5942180572499998,9.535398060999999,0.03527746750593539,0.004886921905584123,-0.03543018381548489,0.17038000000000003,0.21938000000000002,-0.43806000000000006,7.5,1,8927,8551,13466,32494,14.3766796875,209273,22.01415708621135,1027.4373739624268,0,40.689333,-73.991838,0.67,19:24:7,
2024-03-25T15:24:07,-3.2338997439,1.5744772707999999,9.57906707345,0.03512475119638588,0.0056505034533316425,-0.03436116964863837,0.16282000000000002,0.22694000000000003,-0.44800000000000006,7.5,0,8921,8549,13465,32482,14.465546875,218363,22.076174567185873,1027.4126086749347,0,40.689333,-73.991838,0.67,19:24:7,
2024-03-25T15:24:07,-3.2279176873999997,1.5762718877499997,9.584450924299999,0.03787364476827696,0.0024434609527920616,-0.039553524173321496,0.15498,0.22750000000000004,-0.43750000000000006,7.5,0,8921,8549,13465,32482,14.465546875,218363,22.076174567185873,1027.4126086749347,0,40.689333,-73.991838,0.67,19:24:7,
2024-03-25T15:24:07,-3.2141589574499996,1.5888342063999998,9.642476872349999,0.04092797095926703,0.00473420559603462,-0.03726277953007894,0.16562000000000002,0.23086,-0.44562000000000007,7.5,0,8921,8549,13465,32482,14.465546875,218363,22.076174567185873,1027.4126086749347,0,40.689333,-73.991838,0.39,19:24:7,
2024-03-25T15:24:07,-3.2177481913499997,1.5930216459499997,9.574879633899998,0.03481931857728687,0.006261368691529657,-0.03756821214917795,0.16450000000000004,0.22386,-0.44562000000000007,7.5,0,8921,8549,13465,32482,14.465546875,218363,22.076174567185873,1027.4126086749347,0,40.689333,-73.991838,0.39,19:24:7,
2024-03-25T15:24:07,-3.2291140986999998,1.5559328956499998,9.5772724565,0.036499197982331415,0.007483099167925688,-0.036499197982331415,0.16338000000000003,0.2233,-0.44226000000000004,7.5,0,8919,8546,13458,32472,14.2940625,207831,22.019564929334393,1027.434140140404,0,40.689331,-73.991836,0.39,19:24:8,
2024-03-25T15:24:08,-3.1884361144999995,1.5786647103499998,9.601798888149998,0.03329215548179184,0.009621127501618741,-0.03268129024359383,0.16254000000000002,0.22694000000000003,-0.42980000000000007,7.5,0,8916,8545,13453,32464,14.3739453125,215666,22.09135622060195,1027.406463946183,0,40.689331,-73.991836,0.39,19:24:8,
2024-03-25T15:24:08,-3.2458638569,1.59182523465,9.5653083435,0.03405573702953936,0.007177666548826681,-0.03665191429188092,0.16282000000000002,0.22302000000000002,-0.43260000000000004,7.5,0,8916,8545,13453,32464,14.3739453125,215666,22.09135622060195,1027.406463946183,0,40.689331,-73.991836,0.39,19:24:8,
2024-03-25T15:24:08,-3.2506495021,1.5667005973499997,9.55992449265,0.03802636107782646,0.0033597588100890844,-0.03695734691097993,0.16254000000000002,0.22918000000000002,-0.44044000000000005,7.5,0,8916,8545,13453,32464,14.3739453125,215666,22.09135622060195,1027.406463946183,0,40.689331,-73.991836,0.39,19:24:8,
2024-03-25T15:24:08,-3.242274623,1.5714862425499996,9.567102960449999,0.03634648167278191,0.006261368691529657,-0.07681630370340044,0.16702,0.22162000000000004,-0.43722000000000005,7.5,0,8916,8545,13453,32464,14.3739453125,215666,22.09135622060195,1027.406463946183,0,40.689331,-73.991836,0.39,19:24:8,
2024-03-25T15:24:08,-3.2386853890999996,1.5625131578,9.5868437469,0.036499197982331415,0.0033597588100890844,-0.03359758810089085,0.16366000000000003,0.22498,-0.43652,7.5,0,8916,8545,13453,32464,14.2190625,206795,22.030581192817763,1027.4210044313445,0,40.689331,-73.991836,0.39,19:24:8,
2024-03-25T15:24:08,-3.26919387725,1.57507547645,9.5018985446,0.03512475119638588,0.003207042500539581,-0.001069014166846527,0.17374,0.22498,-0.43176000000000003,7.5,0,8916,8545,13453,32464,14.2190625,206795,22.030581192817763,1027.4210044313445,0,40.689331,-73.991836,0.39,19:24:8,
2024-03-25T15:24:08,-3.22253383655,1.5810575329499996,9.552746024849998,0.03054326190990077,0.0013744467859455349,-0.0355829001250344,0.16674,0.22834000000000004,-0.44226000000000004,7.5,0,8916,8545,13453,32464,14.2190625,206795,22.030581192817763,1027.4210044313445,0,40.689331,-73.991836,0.39,19:24:8,
2024-03-25T15:24:08,-3.2374889777999996,1.5667005973499997,9.585049129949999,0.036499197982331415,-0.0006108652381980154,-0.03375030441044035,0.16422000000000003,0.22610000000000002,-0.43470000000000003,7.5,0,8916,8545,13453,32464,14.2190625,206795,22.030581192817763,1027.4210044313445,0,40.689331,-73.991836,0.39,19:24:8,
2024-03-25T15:24:08,-3.2207392195999995,1.5738790651499999,9.664610481399999,0.03497203488683638,0.006261368691529657,-0.036804630601430424,0.15974000000000002,0.23254000000000002,-0.43190000000000006,7.5,0,8916,8545,13453,32464,14.3128125,216793,22.103193561759834,1027.409828710502,0,40.689331,-73.991836,0.21,19:24:8,
2024-03-25T15:24:08,-3.2410782117,1.58464676685,9.6083791503,0.03329215548179184,-0.0012217304763960308,-0.03588833274413341,0.1673,0.22666000000000003,-0.42952,7.5,0,8916,8545,13453,32464,14.3128125,216793,22.103193561759834,1027.409828710502,0,40.689331,-73.991836,0.21,19:24:8,
2024-03-25T15:24:08,-3.2243284535,1.5792629159999998,9.597013242949998,0.03588833274413341,0.0070249502392771765,-0.03436116964863837,0.15554,0.22414,-0.43708,7.5,0,8916,8545,13453,32464,14.3128125,216793,22.103193561759834,1027.409828710502,0,40.689331,-73.991838,0.21,19:24:9,
2024-03-25T15:24:09,-3.2075786952999996,1.5828521499,9.57906707345,0.03665191429188092,0.0025961772623415654,-0.03313943917224234,0.16366000000000003,0.22722000000000003,-0.43526000000000004,7.5,0,8910,8539,13446,32441,14.583515625,224418,22.165806255607585,1027.4072668206634,0,40.689331,-73.991838,0.21,19:24:9,
2024-03-25T15:24:09,-3.2273194817499995,1.5798611216499998,9.57188860565,0.03543018381548489,0.0035124751196385882,-0.03604104905368291,0.16814,0.22834000000000004,-0.44492000000000004,7.5,0,8910,8539,13446,32441,14.583515625,224418,22.165806255607585,1027.4072668206634,0,40.689331,-73.991838,0.21,19:24:9,
2024-03-25T15:24:09,-3.2572297642499994,1.5834503555499997,9.5641119322,0.03543018381548489,-0.0003054326190990077,-0.03252857393404432,0.1659,0.23478000000000002,-0.43064,7.5,0,8910,8539,13446,32441,14.583515625,224418,22.165806255607585,1027.4072668206634,0,40.689331,-73.991838,0.59,19:24:9,
2024-03-25T15:24:09,-3.2446674455999998,1.5702898312499998,9.570093988699998,0.03726277953007894,0.0022907446432425577,-0.03527746750593539,0.16898000000000002,0.22694000000000003,-0.42994000000000004,7.5,0,8910,8539,13446,32441,14.583515625,224418,22.165806255607585,1027.4072668206634,0,40.689331,-73.991838,0.59,19:24:9,
2024-03-25T15:24:09,-3.25005129645,1.5744772707999999,9.57667425085,0.03741549583962844,0.002901609881440573,-0.0319177086958463,0.16366000000000003,0.22862000000000005,-0.43414,7.5,0,8910,8539,13446,32441,14.5005078125,212899,22.104058800400438,1027.4262321228025,0,40.689333,-73.991836,0.59,19:24:10,
2024-03-25T15:24:10,-3.25364053035,1.5637095691,9.606584533349999,0.03665191429188092,0.00595593607243065,-0.03695734691097993,0.16226000000000002,0.22946,-0.42532000000000003,7.5,0,8915,8543,13455,32466,14.6087109375,222164,22.15182137589028,1027.406097270021,0,40.689333,-73.991836,0.59,19:24:10,
2024-03-25T15:24:10,-3.2386853890999996,1.55114725045,9.5868437469,0.03329215548179184,0.0016798794050445422,-0.03329215548179184,0.15946000000000002,0.23086,-0.42812000000000006,7.5,0,8915,8543,13455,32466,14.6087109375,222164,22.15182137589028,1027.406097270021,0,40.689333,-73.991836,0.59,19:24:10,
2024-03-25T15:24:10,-3.17707020715,1.5655041860499999,9.63170917065,0.03695734691097993,0.03787364476827696,-0.03665191429188092,0.16002000000000002,0.23618000000000003,-0.43386,7.5,0,8915,8543,13455,32466,14.6087109375,222164,22.15182137589028,1027.406097270021,0,40.689333,-73.991836,0.52,19:24:10,
2024-03-25T15:24:10,-3.2207392195999995,1.5714862425499996,9.574879633899998,0.03695734691097993,0.0068722339297276735,-0.03313943917224234,0.15862,0.23226000000000002,-0.43288000000000004,7.5,0,8915,8543,13455,32466,14.41515625,209273,22.093810708602906,1027.428928605829,0,40.689333,-73.991836,0.52,19:24:10,
2024-03-25T15:24:10,-3.2338997439,1.57507547645,9.56471013785,0.03634648167278191,0.006108652381980154,-0.03772092845872745,0.16142,0.22582000000000002,-0.43386,7.5,0,8915,8543,13455,32466,14.41515625,209273,22.093810708602906,1027.428928605829,0,40.689333,-73.991836,0.52,19:24:11,
2024-03-25T15:24:11,-3.2255248647999997,1.58464676685,9.57906707345,0.03741549583962844,0.003207042500539581,-0.03695734691097993,0.17094000000000004,0.22862000000000005,-0.42294000000000004,7.5,1,8926,8549,13467,32488,14.4758984375,218219,22.169697091766494,1027.40735267513,0,40.689333,-73.991836,0.52,19:24:11,
2024-03-25T15:24:11,-3.218346397,1.5667005973499997,9.576076045199999,0.03420845333908886,0.006108652381980154,-0.03313943917224234,0.16506,0.21966000000000002,-0.43358,7.5,1,8926,8549,13467,32488,14.4758984375,218219,22.169697091766494,1027.40735267513,0,40.689333,-73.991836,0.52,19:24:11,
2024-03-25T15:24:11,-3.2578279698999997,1.5756736821,9.537790883599998,0.037110063220529434,0.005039638215133627,-0.03756821214917795,0.16310000000000002,0.21966000000000002,-0.43610000000000004,7.5,1,8926,8549,13467,32488,14.4758984375,218219,22.169697091766494,1027.40735267513,0,40.689333,-73.991836,0.17,19:24:11,
2024-03-25T15:24:11,-3.2285158930499995,1.5786647103499998,9.57308501695,0.037110063220529434,0.006261368691529657,-0.03741549583962844,0.1617,0.22386,-0.42854000000000003,7.5,1,8926,8549,13467,32488,14.4758984375,218219,22.169697091766494,1027.40735267513,0,40.689333,-73.991836,0.17,19:24:11,
2024-03-25T15:24:11,-3.2542387359999996,1.56789700865,9.549156790949999,0.03802636107782646,0.0019853120241435504,-0.03375030441044035,0.16338000000000003,0.22386,-0.43736,7.5,1,8926,8549,13467,32488,14.3048046875,207961,22.113035154167118,1027.4400663226436,0,40.689335,-73.99184,0.17,19:24:12,
2024-03-25T15:24:12,-3.2189446026499997,1.5792629159999998,9.644869694949998,0.03252857393404432,0.003207042500539581,-0.03420845333908886,0.15862,0.22554000000000002,-0.43498000000000003,7.5,1,8915,8543,13460,32461,14.3829296875,216228,22.164141974065902,1027.414666684657,0,40.689335,-73.99184,0.17,19:24:12,
2024-03-25T15:24:12,-3.242274623,1.57746829905,9.551549613549998,0.039553524173321496,0.005039638215133627,-0.03329215548179184,0.1547,0.22946,-0.42826000000000003,7.5,1,8915,8543,13460,32461,14.3829296875,216228,22.164141974065902,1027.414666684657,0,40.689335,-73.99184,0.17,19:24:12,
2024-03-25T15:24:12,-3.2243284535,1.5702898312499998,9.53121062145,0.03741549583962844,0.007330382858376185,-0.03466660226773738,0.16394000000000003,0.22498,-0.43442000000000003,7.5,1,8915,8543,13460,32461,14.3829296875,216228,22.164141974065902,1027.414666684657,0,40.689335,-73.99184,0.25,19:24:12,
2024-03-25T15:24:12,-3.2177481913499997,1.5906288233499997,9.582058101699998,0.03451388595818787,0.00473420559603462,-0.03436116964863837,0.16198,0.22302000000000002,-0.43498000000000003,7.5,1,8915,8543,13460,32461,14.2024609375,204249,22.117260669795975,1027.429675111766,0,40.689335,-73.99184,0.25,19:24:12,
2024-03-25T15:24:12,-3.2099715178999992,1.5720844482,9.602995299449999,0.0316122760767473,0.0016798794050445422,-0.03634648167278191,0.16254000000000002,0.22442,-0.42854000000000003,7.5,1,8915,8543,13460,32461,14.2024609375,204249,22.117260669795975,1027.429675111766,0,40.689336,-73.991841,0.25,19:24:13,
2024-03-25T15:24:13,-3.2775687563499996,1.6163516663,9.5258267706,0.03298672286269283,0.0024434609527920616,-0.03283400655314333,0.15750000000000003,0.22778000000000004,-0.43946,7.5,1,8906,8534,13450,32434,14.2841015625,215806,22.189214452006496,1027.415522182596,0,40.689336,-73.991841,0.25,19:24:13,
2024-03-25T15:24:13,-3.2775687563499996,1.5661023916999999,9.5772724565,0.03420845333908886,0.0054977871437821395,-0.03481931857728687,0.16310000000000002,0.22806000000000004,-0.44170000000000004,7.5,1,8906,8534,13450,32434,14.2841015625,215806,22.189214452006496,1027.415522182596,0,40.689336,-73.991841,0.25,19:24:13,
2024-03-25T15:24:13,-3.2243284535,1.5649059803999998,9.527023181899999,0.03726277953007894,0.003207042500539581,-0.03466660226773738,0.16646,0.22498,-0.43736,7.5,1,8906,8534,13450,32434,14.2841015625,215806,22.189214452006496,1027.415522182596,0,40.689336,-73.991841,0.25,19:24:13,
2024-03-25T15:24:13,-3.218346397,1.5906288233499997,9.5365944723,0.03283400655314333,-0.0006108652381980154,-0.0357356164345839,0.16254000000000002,0.22442,-0.4397400000000001,7.5,1,8906,8534,13450,32434,14.2841015625,215806,22.189214452006496,1027.415522182596,0,40.689336,-73.991841,0.25,19:24:13,
2024-03-25T15:24:13,-3.2297123043499996,1.5361921092,9.553344230499999,0.04016438941151951,0.004886921905584123,-0.036499197982331415,0.16422000000000003,0.22106000000000003,-0.43862000000000007,7.5,1,8906,8534,13450,32434,14.1419140625,204375,22.154929331478673,1027.4304792686992,0,40.689336,-73.991841,0.25,19:24:13,
2024-03-25T15:24:13,-3.1920253484,1.57268265385,9.54556755705,0.03298672286269283,0.0035124751196385882,-0.03207042500539581,0.16422000000000003,0.22918000000000002,-0.4443600000000001,7.5,1,8906,8534,13450,32434,14.1419140625,204375,22.154929331478673,1027.4304792686992,0,40.689336,-73.991841,0.25,19:24:13,
2024-03-25T15:24:13,-3.2075786952999996,1.5804593272999998,9.55513884745,0.03588833274413341,0.0016798794050445422,-0.03329215548179184,0.16198,0.23086,-0.4354,7.5,1,8906,8534,13450,32434,14.1419140625,204375,22.154929331478673,1027.4304792686992,0,40.689336,-73.991841,0.25,19:24:13,
2024-03-25T15:24:13,-3.2458638569,1.5804593272999998,9.595218626,0.03313943917224234,0.0038179077387375964,-0.03497203488683638,0.16422000000000003,0.22498,-0.43988000000000005,7.5,1,8906,8534,13450,32434,14.1419140625,204375,22.154929331478673,1027.4304792686992,0,40.689336,-73.991841,0.25,19:24:13,
2024-03-25T15:24:13,-3.2518459134,1.5810575329499996,9.53838908925,0.03604104905368291,0.004276056667386108,-0.0357356164345839,0.15134,0.23002,-0.43386,7.5,1,8906,8534,13450,32434,14.2450390625,213172,22.212695045129593,1027.4194484689688,0,40.689336,-73.991841,0.31,19:24:13,
2024-03-25T15:24:13,-3.2512477077499997,1.57268265385,9.52881779885,0.04046982203061852,0.0035124751196385882,-0.03512475119638588,0.16282000000000002,0.22890000000000005,-0.43624000000000007,7.5,1,8913,8538,13454,32452,14.2450390625,213172,22.212695045129593,1027.4194484689688,0,40.689336,-73.991841,0.31,19:24:13,
2024-03-25T15:24:13,-3.21655178005,1.5798611216499998,9.5294160045,0.03543018381548489,0.006414085001079162,-0.03512475119638588,0.15974000000000002,0.21994000000000002,-0.43218000000000006,7.5,1,8913,8538,13454,32452,14.2450390625,213172,22.212695045129593,1027.4194484689688,0,40.689336,-73.991846,0.31,19:24:14,
2024-03-25T15:24:14,-3.2554351472999996,1.55354007305,9.58145989605,0.03497203488683638,0.00595593607243065,-0.03604104905368291,0.15806,0.22666000000000003,-0.44702000000000003,7.5,1,8913,8538,13454,32452,14.5216015625,223361,22.28092324808047,1027.4093676004472,0,40.689336,-73.991846,0.31,19:24:14,
2024-03-25T15:24:14,-3.2368907721499993,1.5828521499,9.615557618099999,0.03665191429188092,0.0033597588100890844,-0.03405573702953936,0.1589,0.22610000000000002,-0.42350000000000004,7.5,1,8909,8536,13446,32435,14.5216015625,223361,22.28092324808047,1027.4093676004472,0,40.689336,-73.991846,0.31,19:24:14,
2024-03-25T15:24:14,-3.24526565125,1.57507547645,9.5617191096,0.03604104905368291,0.0038179077387375964,-0.03665191429188092,0.16366000000000003,0.21994000000000002,-0.4368000000000001,7.5,1,8909,8536,13446,32435,14.5216015625,223361,22.28092324808047,1027.4093676004472,0,40.689336,-73.991846,1.23,19:24:14,
2024-03-25T15:24:14,-3.2075786952999996,1.5732808595,9.549156790949999,0.036193765363232405,0.005803219762881146,-0.03466660226773738,0.15974000000000002,0.22078000000000003,-0.42882000000000003,7.5,1,8909,8536,13446,32435,14.5216015625,223361,22.28092324808047,1027.4093676004472,0,40.689336,-73.991846,1.23,19:24:14,
2024-03-25T15:24:14,-3.22253383655,1.5798611216499998,9.582058101699998,0.038942658935123484,0.001069014166846527,-0.03756821214917795,0.15582000000000001,0.2233,-0.43750000000000006,7.5,1,8909,8536,13446,32435,14.4346875,209935,22.22920529067474,1027.4251990441255,0,40.689333,-73.991846,1.23,19:24:15,
2024-03-25T15:24:15,-3.2823544015499997,1.6055839645999996,9.5282195932,0.03252857393404432,0.007941248096574201,-0.0355829001250344,0.14882,0.23394000000000004,-0.43988000000000005,7.5,0,8907,8534,13444,32427,14.5430859375,218795,22.29772181092374,1027.398418672953,0,40.689333,-73.991846,1.23,19:24:15,
2024-03-25T15:24:15,-3.2338997439,1.5732808595,9.59581683165,0.03207042500539581,0.0025961772623415654,-0.031764992386296806,0.15638000000000002,0.23310000000000003,-0.44548000000000004,7.5,0,8907,8534,13444,32427,14.5430859375,218795,22.29772181092374,1027.398418672953,0,40.689333,-73.991846,1.23,19:24:15,
2024-03-25T15:24:15,-3.260818998149999,1.5643077747499998,9.576076045199999,0.03420845333908886,0.0012217304763960308,-0.030848694528999777,0.16198,0.22526000000000002,-0.44072,7.5,0,8907,8534,13444,32427,14.5430859375,218795,22.29772181092374,1027.398418672953,0,40.689333,-73.991846,1.15,19:24:15,
2024-03-25T15:24:15,-3.2338997439,1.5714862425499996,9.580263484749999,0.03329215548179184,0.0022907446432425577,-0.03588833274413341,0.15834,0.22834000000000004,-0.43750000000000006,7.5,0,8907,8534,13444,32427,14.5430859375,218795,22.29772181092374,1027.398418672953,0,40.689333,-73.991846,1.15,19:24:15,
2024-03-25T15:24:15,-3.2255248647999997,1.5565311012999998,9.534201649699998,0.03390302071998985,0.004886921905584123,-0.03054326190990077,0.15918000000000002,0.22554000000000002,-0.4443600000000001,7.5,0,8907,8534,13444,32427,14.366328125,207961,22.24060762507391,1027.4215999221465,0,40.689333,-73.991851,1.15,19:24:16,
2024-03-25T15:24:16,-3.2333015382499997,1.5858431781499998,9.607182738999999,0.031154127148098783,0.006108652381980154,-0.03772092845872745,0.15862,0.22358,-0.43484,7.5,0,8907,8535,13442,32421,14.4372265625,217362,22.312036332268214,1027.3997101087766,0,40.689333,-73.991851,1.15,19:24:16,
2024-03-25T15:24:16,-3.22133742525,1.5643077747499998,9.56351372655,0.03726277953007894,0.0012217304763960308,-0.03787364476827696,0.1603,0.21994000000000002,-0.43134000000000006,7.5,0,8907,8535,13442,32421,14.4372265625,217362,22.312036332268214,1027.3997101087766,0,40.689333,-73.991851,1.15,19:24:16,
2024-03-25T15:24:16,-3.2410782117,1.5589239239,9.5617191096,0.03375030441044035,0.00015271630954950385,-0.04001167310197001,0.16506,0.22442,-0.43946,7.5,0,8907,8535,13442,32421,14.4372265625,217362,22.312036332268214,1027.3997101087766,0,40.689333,-73.991851,0.72,19:24:16,
2024-03-25T15:24:16,-3.2195428083000004,1.57746829905,9.57069219435,0.03420845333908886,0.0025961772623415654,-0.03726277953007894,0.15834,0.22778000000000004,-0.43750000000000006,7.5,0,8907,8535,13442,32421,14.4372265625,217362,22.312036332268214,1027.3997101087766,0,40.689333,-73.991851,0.72,19:24:16,
2024-03-25T15:24:16,-3.2638100264,1.5948162628999998,9.566504754799999,0.036193765363232405,0.0035124751196385882,-0.03787364476827696,0.16114,0.2177,-0.44506000000000007,7.5,0,8907,8535,13442,32421,14.2673046875,205133,22.255339868960586,1027.420364518751,0,40.68933,-73.991851,0.72,19:24:17,
2024-03-25T15:24:17,-3.2446674455999998,1.5445669883,9.580263484749999,0.03543018381548489,-0.038942658935123484,-0.03604104905368291,0.14714000000000002,0.22134000000000004,-0.44716,7.5,0,8904,8534,13439,32422,14.34875,214551,22.31189047784617,1027.4005986758111,0,40.68933,-73.991851,0.72,19:24:17,
2024-03-25T15:24:17,-3.2542387359999996,1.5637095691,9.551549613549998,0.03543018381548489,0.0044287729769356115,-0.03313943917224234,0.15694000000000002,0.22050000000000003,-0.43722000000000005,7.5,0,8904,8534,13439,32422,14.34875,214551,22.31189047784617,1027.4005986758111,0,40.68933,-73.991851,0.72,19:24:17,
2024-03-25T15:24:17,-3.2321051269499996,1.5517454561000001,9.57188860565,0.03772092845872745,0.0056505034533316425,-0.03390302071998985,0.16114,0.22050000000000003,-0.43470000000000003,7.5,0,8904,8534,13439,32422,14.34875,214551,22.31189047784617,1027.4005986758111,0,40.68933,-73.991851,0.56,19:24:17,
2024-03-25T15:24:17,-3.2243284535,1.5690934199499997,9.566504754799999,0.03741549583962844,0.005192354524683131,-0.03405573702953936,0.15526,0.22078000000000003,-0.46480000000000005,7.5,0,8904,8534,13439,32422,14.34875,214551,22.31189047784617,1027.4005986758111,0,40.68933,-73.991851,0.56,19:24:17,
2024-03-25T15:24:17,-3.2458638569,1.56311136345,9.620941468949999,0.03695734691097993,0.008704829644321718,-0.037110063220529434,0.15750000000000003,0.22666000000000003,-0.42784000000000005,7.5,0,8904,8534,13439,32422,14.1962109375,203998,22.266579771562284,1027.4260975858454,0,40.68933,-73.991848,0.56,19:24:18,
2024-03-25T15:24:18,-3.2273194817499995,1.5996019081,9.628718142399999,0.03527746750593539,0.0013744467859455349,-0.03466660226773738,0.15414000000000003,0.23226000000000002,-0.4426800000000001,7.5,1,8906,8532,13441,32430,14.2903515625,212626,22.33939540818311,1027.4120904101312,0,40.68933,-73.991848,0.56,19:24:18,
2024-03-25T15:24:18,-3.2338997439,1.5840485612,9.5641119322,0.03604104905368291,0.0044287729769356115,-0.03451388595818787,0.16478000000000004,0.22834000000000004,-0.44632000000000005,7.5,1,8906,8532,13441,32430,14.2903515625,212626,22.33939540818311,1027.4120904101312,0,40.68933,-73.991848,0.56,19:24:18,
2024-03-25T15:24:18,-3.19381996535,1.5696916255999998,9.491729048549999,0.03665191429188092,0.0027488935718910697,-0.036499197982331415,0.15918000000000002,0.23310000000000003,-0.4432400000000001,7.5,1,8906,8532,13441,32430,14.2903515625,212626,22.33939540818311,1027.4120904101312,0,40.68933,-73.991848,0.56,19:24:18,
2024-03-25T15:24:18,-3.2673992603,1.5888342063999998,9.5641119322,0.03405573702953936,0.007483099167925688,-0.03420845333908886,0.15554,0.22946,-0.43960000000000005,7.5,1,8906,8532,13441,32430,14.2903515625,212626,22.33939540818311,1027.4120904101312,0,40.68933,-73.991848,0.56,19:24:18,
2024-03-25T15:24:18,-3.2159535744,1.5840485612,9.562915520899999,0.03405573702953936,0.00595593607243065,-0.036499197982331415,0.1547,0.23058,-0.43414,7.5,1,8906,8532,13441,32430,14.14484375,201765,22.284165811454894,1027.4301865028503,0,40.68933,-73.991848,0.56,19:24:18,
2024-03-25T15:24:18,-3.1854450862499997,1.5696916255999998,9.544371145749999,0.038331793696925465,0.006108652381980154,-0.039095375244672985,0.16086,0.22694000000000003,-0.44464000000000004,7.5,1,8906,8532,13441,32430,14.14484375,201765,22.284165811454894,1027.4301865028503,0,40.689328,-73.991841,0.56,19:24:19,
2024-03-25T15:24:19,-3.2171499857,1.5960126742,9.6227360859,0.03283400655314333,0.003054326190990077,-0.03405573702953936,0.15918000000000002,0.22974,-0.43610000000000004,7.5,0,8904,8532,13443,32424,14.2462109375,213859,22.357420229626506,1027.4056676468897,0,40.689328,-73.991841,0.56,19:24:19,
2024-03-25T15:24:19,-3.2279176873999997,1.567298803,9.583852718649998,0.039095375244672985,0.002901609881440573,-0.03512475119638588,0.16198,0.23506000000000002,-0.43246,7.5,0,8904,8532,13443,32424,14.2462109375,213859,22.357420229626506,1027.4056676468897,0,40.689328,-73.991841,0.56,19:24:19,
2024-03-25T15:24:19,-3.2470602682,1.5637095691,9.57069219435,0.03787364476827696,0.0,-0.03756821214917795,0.16338000000000003,0.22162000000000004,-0.4426800000000001,7.5,0,8904,8532,13443,32424,14.2462109375,213859,22.357420229626506,1027.4056676468897,0,40.689328,-73.991841,0.68,19:24:19,
2024-03-25T15:24:19,-3.2255248647999997,1.5810575329499996,9.517451891499999,0.03772092845872745,-0.0024434609527920616,-0.038331793696925465,0.1589,0.23198000000000002,-0.44296,7.5,0,8904,8532,13443,32424,14.106953125,201520,22.312891154403832,1027.4290661065143,0,40.689328,-73.991841,0.68,19:24:19,
2024-03-25T15:24:19,-3.2572297642499994,1.5714862425499996,9.5557370531,0.02932153143350474,0.003970624048287101,-0.03329215548179184,0.15918000000000002,0.22890000000000005,-0.43778,7.5,0,8904,8532,13443,32424,14.106953125,201520,22.312891154403832,1027.4290661065143,0,40.689333,-73.991838,0.68,19:24:20,
2024-03-25T15:24:20,-3.2350961551999995,1.5625131578,9.523433948,0.036804630601430424,0.0025961772623415654,-0.03634648167278191,0.15638000000000002,0.22162000000000004,-0.44086000000000003,7.5,0,8904,8534,13441,32423,14.2153515625,210601,22.37624411523422,1027.411217306337,0,40.689333,-73.991838,0.68,19:24:20,
2024-03-25T15:24:20,-3.2279176873999997,1.5852449725,9.5880401582,0.03481931857728687,0.00473420559603462,-0.03543018381548489,0.1617,0.22526000000000002,-0.43232000000000004,7.5,0,8904,8534,13441,32423,14.2153515625,210601,22.37624411523422,1027.411217306337,0,40.689333,-73.991838,0.68,19:24:20,
2024-03-25T15:24:20,-3.242274623,1.5780665047,9.56829937175,0.038637226316024474,0.007788531787024696,-0.03252857393404432,0.16254000000000002,0.22554000000000002,-0.44282000000000005,7.5,0,8904,8534,13441,32423,14.2153515625,210601,22.37624411523422,1027.411217306337,0,40.689333,-73.991838,0.48,19:24:20,
2024-03-25T15:24:20,-3.2321051269499996,1.5637095691,9.583852718649998,0.03787364476827696,0.004581489286485115,-0.038331793696925465,0.16954000000000002,0.21910000000000002,-0.44198000000000004,7.5,0,8904,8534,13441,32423,14.2153515625,210601,22.37624411523422,1027.411217306337,0,40.689333,-73.991838,0.48,19:24:20,
2024-03-25T15:24:20,-3.2321051269499996,1.5661023916999999,9.643075077999999,0.03802636107782646,0.004581489286485115,-0.03665191429188092,0.16226000000000002,0.22218000000000004,-0.44548000000000004,7.5,0,8904,8534,13441,32423,14.095234375,199460,22.348356737852633,1027.4354887096126,0,40.68933,-73.991838,0.48,19:24:21,
2024-03-25T15:24:21,-3.2404800060500003,1.56789700865,9.558728081349999,0.038942658935123484,0.00015271630954950385,-0.039553524173321496,0.15918000000000002,0.23142000000000001,-0.4432400000000001,7.5,1,8904,8532,13440,32427,14.2133984375,209935,22.41749281684532,1027.4166679708812,0,40.68933,-73.991838,0.48,19:24:21,
2024-03-25T15:24:21,-3.2004002274999994,1.5619149521499998,9.6215396746,0.03604104905368291,0.004581489286485115,-0.0018325957145940463,0.15946000000000002,0.22722000000000003,-0.44842000000000004,7.5,1,8904,8532,13440,32427,14.2133984375,209935,22.41749281684532,1027.4166679708812,0,40.68933,-73.991838,0.48,19:24:21,
2024-03-25T15:24:21,-3.06580395625,1.5768700934,9.53719267795,0.036193765363232405,0.003207042500539581,-0.03741549583962844,0.1547,0.22526000000000002,-0.43988000000000005,7.5,1,8904,8534,13440,32436,14.2133984375,209935,22.41749281684532,1027.4166679708812,0,40.68933,-73.991838,0.53,19:24:21,
2024-03-25T15:24:21,-3.26440823205,1.5714862425499996,9.56471013785,0.03222314131494531,0.006414085001079162,-0.036499197982331415,0.16702,0.23002,-0.44534,7.5,1,8904,8534,13440,32436,14.2133984375,209935,22.41749281684532,1027.4166679708812,0,40.68933,-73.991838,0.53,19:24:21,
2024-03-25T15:24:21,-3.2356943608499997,1.5822539442499999,9.583254513,0.03787364476827696,0.00473420559603462,-0.03283400655314333,0.15778,0.2303,-0.44310000000000005,7.5,1,8904,8534,13440,32436,14.0926953125,201153,22.374044923053056,1027.4311885393997,0,40.689326,-73.991835,0.53,19:24:22,
2024-03-25T15:24:22,-3.1920253484,1.57746829905,9.6502535458,0.03222314131494531,0.0016798794050445422,-0.03375030441044035,0.16310000000000002,0.22722000000000003,-0.44422,7.5,0,8897,8528,13431,32415,14.210078125,210468,22.453499675540012,1027.4092939143816,0,40.689326,-73.991835,0.53,19:24:22,
2024-03-25T15:24:22,-3.24406923995,1.5505490447999999,9.539585500549999,0.03130684345764829,0.004581489286485115,-0.03726277953007894,0.1617,0.22526000000000002,-0.43932000000000004,7.5,0,8897,8528,13431,32415,14.210078125,210468,22.453499675540012,1027.4092939143816,0,40.689326,-73.991835,0.53,19:24:22,
2024-03-25T15:24:22,-3.2171499857,1.5643077747499998,9.54676396835,0.03756821214917795,-0.0006108652381980154,-0.0355829001250344,0.15974000000000002,0.22106000000000003,-0.43064,7.5,0,8897,8528,13431,32415,14.210078125,210468,22.453499675540012,1027.4092939143816,0,40.689326,-73.991835,0.91,19:24:22,
2024-03-25T15:24:22,-3.22253383655,1.5924234403,9.5617191096,0.03405573702953936,0.0013744467859455349,-0.03466660226773738,0.15694000000000002,0.22778000000000004,-0.44408000000000003,7.5,0,8897,8528,13431,32415,14.210078125,210468,22.453499675540012,1027.4092939143816,0,40.689326,-73.991835,0.91,19:24:22,
2024-03-25T15:24:22,-3.2404800060500003,1.5960126742,9.6012006825,0.0355829001250344,0.00015271630954950385,-0.03512475119638588,0.15722000000000003,0.21882000000000001,-0.44716,7.5,0,8897,8528,13431,32415,14.0829296875,199101,22.39930413072257,1027.4251569218432,0,40.689321,-73.991836,0.91,19:24:23,
2024-03-25T15:24:23,-3.22492665915,1.5559328956499998,9.5653083435,0.03726277953007894,-0.00045814892864851157,-0.03604104905368291,0.16002000000000002,0.22442,-0.44478,7.5,1,8895,8527,13428,32408,14.1973828125,209935,22.46825442014967,1027.4105665221184,0,40.689321,-73.991836,0.91,19:24:23,
2024-03-25T15:24:23,-3.07657165795,1.5864413838,9.54556755705,0.03588833274413341,0.004123340357836604,-0.03924809155422249,0.1673,0.22834000000000004,-0.43932000000000004,7.5,1,8895,8527,13428,32408,14.1973828125,209935,22.46825442014967,1027.4105665221184,0,40.689321,-73.991836,0.91,19:24:23,
2024-03-25T15:24:23,-3.2327033326,1.5798611216499998,9.540781911849999,0.03420845333908886,-0.0027488935718910697,-0.03543018381548489,0.16310000000000002,0.2303,-0.42826000000000003,7.5,1,8895,8527,13428,32408,14.1973828125,209935,22.46825442014967,1027.4105665221184,0,40.689321,-73.991836,0.91,19:24:23,
2024-03-25T15:24:23,-3.2524441190499997,1.5762718877499997,9.544371145749999,0.036499197982331415,0.005039638215133627,-0.038484510006474966,0.15778,0.22610000000000002,-0.44100000000000006,7.5,1,8895,8527,13428,32408,14.1973828125,209935,22.46825442014967,1027.4105665221184,0,40.689321,-73.991836,0.91,19:24:23,
2024-03-25T15:24:23,-3.2195428083000004,1.5577275125999999,9.5521478192,0.04077525464971753,0.0025961772623415654,-0.039706240482871004,0.15946000000000002,0.22638000000000003,-0.43848000000000004,7.5,1,8895,8527,13428,32408,14.0731640625,200545,22.429738567062003,1027.4278811346005,0,40.689321,-73.991836,0.91,19:24:23,
2024-03-25T15:24:23,-3.24526565125,1.5505490447999999,9.59462042035,0.03283400655314333,0.0056505034533316425,-0.03451388595818787,0.1603,0.22526000000000002,-0.43372000000000005,7.5,1,8902,8533,13439,32429,14.0731640625,200545,22.429738567062003,1027.4278811346005,0,40.689321,-73.991836,0.91,19:24:23,
2024-03-25T15:24:23,-3.07537524665,1.57268265385,9.611968384199999,0.03497203488683638,0.0033597588100890844,-0.03283400655314333,0.1659,0.2233,-0.4397400000000001,7.5,1,8902,8533,13439,32429,14.0731640625,200545,22.429738567062003,1027.4278811346005,0,40.689321,-73.991836,0.91,19:24:23,
2024-03-25T15:24:23,-3.2147571630999994,1.5852449725,9.558129875699999,0.036499197982331415,0.002138028333693054,-0.03451388595818787,0.17122000000000004,0.2247,-0.43512000000000006,7.5,1,8902,8533,13439,32429,14.0731640625,200545,22.429738567062003,1027.4278811346005,0,40.689321,-73.991836,0.91,19:24:23,
2024-03-25T15:24:23,-3.07776806925,1.5475580165499996,9.616155823749999,0.03604104905368291,0.0038179077387375964,-0.03695734691097993,0.16002000000000002,0.22358,-0.45542,7.5,1,8902,8533,13439,32429,14.1895703125,212354,22.49882882133536,1027.413100811847,0,40.689321,-73.991836,0.95,19:24:23,
2024-03-25T15:24:23,-3.2219356309,1.5816557385999996,9.567102960449999,0.03604104905368291,-0.0006108652381980154,-0.036499197982331415,0.16226000000000002,0.22554000000000002,-0.44198000000000004,7.5,1,8902,8533,13439,32429,14.1895703125,212354,22.49882882133536,1027.413100811847,0,40.689321,-73.991836,0.95,19:24:23,
2024-03-25T15:24:23,-3.2255248647999997,1.5804593272999998,9.594022214699999,0.038942658935123484,-0.0003054326190990077,-0.03420845333908886,0.15834,0.23338000000000003,-0.43512000000000006,7.5,1,8902,8533,13439,32429,14.1895703125,212354,22.49882882133536,1027.413100811847,0,40.689318,-73.991835,0.95,19:24:24,
2024-03-25T15:24:24,-3.22373024785,1.5493526335,9.637691227149999,0.03436116964863837,0.0015271630954950385,-0.03298672286269283,0.15610000000000002,0.22554000000000002,-0.4333000000000001,7.5,0,8902,8530,13436,32417,14.4758984375,218651,22.557581831409276,1027.400343440647,0,40.689318,-73.991835,0.95,19:24:24,
2024-03-25T15:24:24,-3.2560333529499994,1.57746829905,9.57308501695,0.02977968036215325,0.002138028333693054,-0.03772092845872745,0.16058,0.22666000000000003,-0.43638000000000005,7.5,0,8902,8530,13436,32417,14.4758984375,218651,22.557581831409276,1027.400343440647,0,40.689318,-73.991835,0.95,19:24:24,
2024-03-25T15:24:24,-3.2721849055,1.55354007305,9.52522856495,0.03359758810089085,-0.03802636107782646,-0.03344487179134134,0.15274000000000001,0.2303,-0.43806000000000006,7.5,0,8902,8530,13436,32417,14.4758984375,218651,22.557581831409276,1027.400343440647,0,40.689318,-73.991835,0.94,19:24:24,
2024-03-25T15:24:24,-3.2392835947500003,1.56311136345,9.59940606555,0.0316122760767473,-0.0015271630954950385,-0.03298672286269283,0.16142,0.22302000000000002,-0.42798,7.5,0,8902,8530,13436,32417,14.4758984375,218651,22.557581831409276,1027.400343440647,0,40.689318,-73.991835,0.94,19:24:24,
2024-03-25T15:24:24,-3.24287282865,1.5984054967999999,9.527023181899999,0.03451388595818787,0.0035124751196385882,-0.03298672286269283,0.1659,0.23170000000000002,-0.43414,7.5,0,8902,8530,13436,32417,14.3942578125,207701,22.5060262246525,1027.428589434423,0,40.689316,-73.991835,0.94,19:24:25,
2024-03-25T15:24:25,-3.21176613485,1.5960126742,9.5868437469,0.03344487179134134,0.003054326190990077,-0.03329215548179184,0.16422000000000003,0.22974,-0.4520600000000001,7.5,1,8896,8527,13429,32395,14.5065625,216511,22.554262693735957,1027.404938678065,0,40.689316,-73.991835,0.94,19:24:25,
2024-03-25T15:24:25,-3.2177481913499997,1.5667005973499997,9.55633525875,0.03466660226773738,0.0035124751196385882,-0.03543018381548489,0.16478000000000004,0.23170000000000002,-0.4467400000000001,7.5,1,8896,8527,13429,32395,14.5065625,216511,22.554262693735957,1027.404938678065,0,40.689316,-73.991835,0.94,19:24:25,
2024-03-25T15:24:25,-3.22014101395,1.5667005973499997,9.580263484749999,0.03359758810089085,0.004886921905584123,-0.03588833274413341,0.16142,0.22498,-0.44492000000000004,7.5,1,8896,8527,13429,32395,14.5065625,216511,22.554262693735957,1027.404938678065,0,40.689316,-73.991835,0.35,19:24:25,
2024-03-25T15:24:25,-3.22492665915,1.5690934199499997,9.589236569499999,0.03726277953007894,0.0012217304763960308,-0.038789942625573975,0.16310000000000002,0.22134000000000004,-0.43610000000000004,7.5,1,8896,8527,13429,32395,14.5065625,216511,22.554262693735957,1027.404938678065,0,40.689316,-73.991835,0.35,19:24:25,
2024-03-25T15:24:25,-3.2147571630999994,1.5571293069499996,9.558728081349999,0.03604104905368291,0.0003054326190990077,-0.0357356164345839,0.16254000000000002,0.22890000000000005,-0.42966000000000004,7.5,1,8896,8527,13429,32395,14.3190625,203872,22.485949731326407,1027.4186591044554,0,40.689318,-73.991836,0.35,19:24:26,
2024-03-25T15:24:26,-3.22492665915,1.5780665047,9.535996266649999,0.03481931857728687,0.003970624048287101,-0.03512475119638588,0.16366000000000003,0.22386,-0.44828,7.5,0,8898,8528,13423,32378,14.387421875,215107,22.541857563678086,1027.392486982334,0,40.689318,-73.991836,0.35,19:24:26,
2024-03-25T15:24:26,-3.2207392195999995,1.5714862425499996,9.57906707345,0.036499197982331415,0.004123340357836604,-0.03665191429188092,0.1547,0.22358,-0.44254000000000004,7.5,0,8898,8528,13423,32378,14.387421875,215107,22.541857563678086,1027.392486982334,0,40.689318,-73.991836,0.35,19:24:26,
2024-03-25T15:24:26,-3.2542387359999996,1.5469598108999998,9.522835742349999,0.039553524173321496,0.003207042500539581,-0.03604104905368291,0.16450000000000004,0.22218000000000004,-0.44016000000000005,7.5,0,8898,8528,13423,32378,14.387421875,215107,22.541857563678086,1027.392486982334,0,40.689318,-73.991836,0.96,19:24:26,
2024-03-25T15:24:26,-3.242274623,1.5702898312499998,9.561120903949998,0.03420845333908886,0.002901609881440573,-0.036193765363232405,0.16450000000000004,0.22442,-0.43652,7.5,0,8898,8528,13423,32378,14.387421875,215107,22.541857563678086,1027.392486982334,0,40.689318,-73.991836,0.96,19:24:26,
2024-03-25T15:24:26,-3.2123643404999997,1.54875442785,9.54676396835,0.03222314131494531,0.0054977871437821395,-0.03497203488683638,0.16422000000000003,0.22862000000000005,-0.44142000000000003,7.5,0,8898,8528,13423,32378,14.228828125,203124,22.496024535130186,1027.4165214711434,0,40.689318,-73.99184,0.96,19:24:27,
2024-03-25T15:24:27,-3.2338997439,1.5738790651499999,9.5904329808,0.03390302071998985,0.0024434609527920616,-0.03466660226773738,0.16282000000000002,0.22582000000000002,-0.43190000000000006,7.5,1,8895,8523,13415,32356,14.3169140625,215246,22.547942759389176,1027.3904951807497,0,40.689318,-73.99184,0.96,19:24:27,
2024-03-25T15:24:27,-3.2745777280999997,1.57507547645,9.598807859899999,0.03481931857728687,0.0027488935718910697,-0.031459559767197796,0.16086,0.23450000000000004,-0.44016000000000005,7.5,1,8895,8523,13415,32356,14.3169140625,215246,22.547942759389176,1027.3904951807497,0,40.689318,-73.99184,0.96,19:24:27,
2024-03-25T15:24:27,-3.2273194817499995,1.57507547645,9.589236569499999,0.030695978219450276,0.0056505034533316425,-0.03436116964863837,0.15666000000000002,0.22890000000000005,-0.44688000000000005,7.5,1,8895,8523,13415,32356,14.3169140625,215246,22.547942759389176,1027.3904951807497,0,40.689318,-73.99184,1.03,19:24:27,
2024-03-25T15:24:27,-3.2219356309,1.5463616052499998,9.567102960449999,0.031459559767197796,0.0033597588100890844,-0.03604104905368291,0.16310000000000002,0.22666000000000003,-0.43456000000000006,7.5,1,8895,8523,13415,32356,14.1727734375,203747,22.508164617310843,1027.4109294404773,0,40.689318,-73.99184,1.03,19:24:27,
2024-03-25T15:24:27,-3.242274623,1.5744772707999999,9.556933464399998,0.038484510006474966,0.00045814892864851157,-0.039095375244672985,0.16254000000000002,0.2303,-0.43806000000000006,7.5,1,8895,8523,13415,32356,14.1727734375,203747,22.508164617310843,1027.4109294404773,0,40.689316,-73.991838,1.03,19:24:28,
2024-03-25T15:24:28,-3.24526565125,1.5960126742,9.549754996599999,0.0357356164345839,0.0056505034533316425,-0.04016438941151951,0.16086,0.22778000000000004,-0.45472,7.5,1,8899,8527,13423,32386,14.2719921875,214135,22.56593514475102,1027.400273621924,0,40.689316,-73.991838,1.03,19:24:28,
2024-03-25T15:24:28,-3.2464620625499996,1.5661023916999999,9.55633525875,0.03466660226773738,0.002138028333693054,-0.03405573702953936,0.16506,0.22778000000000004,-0.4426800000000001,7.5,1,8899,8527,13423,32386,14.2719921875,214135,22.56593514475102,1027.400273621924,0,40.689316,-73.991838,1.03,19:24:28,
2024-03-25T15:24:28,-3.2404800060500003,1.5595221295499997,9.5557370531,0.038179077387375956,0.0019853120241435504,-0.03222314131494531,0.16198,0.21658000000000002,-0.42980000000000007,7.5,1,8895,8525,13418,32372,14.2719921875,214135,22.56593514475102,1027.400273621924,0,40.689316,-73.991838,1.03,19:24:28,
2024-03-25T15:24:28,-3.2566315585999996,1.5643077747499998,9.56829937175,0.03252857393404432,0.0003054326190990077,-0.036193765363232405,0.15386000000000002,0.22246000000000002,-0.45766,7.5,1,8895,8525,13418,32372,14.2719921875,214135,22.56593514475102,1027.400273621924,0,40.689316,-73.991838,1.03,19:24:28,
2024-03-25T15:24:28,-3.2679974659499997,1.5738790651499999,9.637691227149999,0.03497203488683638,0.0024434609527920616,-0.036193765363232405,0.1589,0.2233,-0.44562000000000007,7.5,1,8895,8525,13418,32372,14.1315625,201765,22.505676389495253,1027.4147001928561,0,40.689316,-73.991838,1.03,19:24:28,
2024-03-25T15:24:28,-3.2470602682,1.5661023916999999,9.5389872949,0.03604104905368291,0.007483099167925688,-0.038942658935123484,0.16786,0.22946,-0.4529,7.5,1,8895,8525,13418,32372,14.1315625,201765,22.505676389495253,1027.4147001928561,0,40.689316,-73.991838,1.03,19:24:28,
2024-03-25T15:24:28,-3.2045876670499998,1.4877374515499997,9.62213788025,0.038484510006474966,-0.0024434609527920616,-0.03527746750593539,0.17010000000000003,0.23366000000000003,-0.44226000000000004,7.5,1,8895,8525,13418,32372,14.1315625,201765,22.505676389495253,1027.4147001928561,0,40.689316,-73.991838,1.03,19:24:28,
2024-03-25T15:24:28,-3.17826661845,1.62532475105,9.477970318599999,0.039553524173321496,-0.014966198335851376,-0.03588833274413341,0.16282000000000002,0.22554000000000002,-0.43918000000000007,7.5,1,8895,8525,13418,32372,14.2348828125,212762,22.579222807841905,1027.396995946368,0,40.689316,-73.991838,1.03,19:24:28,
2024-03-25T15:24:28,-3.2578279698999997,1.5655041860499999,9.523433948,0.03802636107782646,-0.00045814892864851157,-0.03283400655314333,0.16842000000000001,0.2233,-0.44758000000000003,7.5,1,8895,8525,13418,32372,14.2348828125,212762,22.579222807841905,1027.396995946368,0,40.689316,-73.991838,0.27,19:24:28,
2024-03-25T15:24:28,-3.2877382523999996,1.59661087985,9.522237536699999,0.036499197982331415,0.007177666548826681,-0.03527746750593539,0.16114,0.21798,-0.4432400000000001,7.5,1,8895,8525,13418,32372,14.2348828125,212762,22.579222807841905,1027.396995946368,0,40.689316,-73.991838,0.27,19:24:28,
2024-03-25T15:24:28,-3.2386853890999996,1.5786647103499998,9.593424009049999,0.036804630601430424,0.0033597588100890844,-0.03741549583962844,0.16422000000000003,0.21938000000000002,-0.43904000000000004,7.5,1,8895,8525,13418,32372,14.2348828125,212762,22.579222807841905,1027.396995946368,0,40.689313,-73.991838,0.27,19:24:29,
2024-03-25T15:24:29,-3.36849601515,1.5565311012999998,9.5437729401,0.036804630601430424,0.002901609881440573,-0.038942658935123484,0.16338000000000003,0.22694000000000003,-0.4368000000000001,7.5,1,8898,8525,13418,32371,14.5122265625,221719,22.647889098367763,1027.388240672346,0,40.689313,-73.991838,0.27,19:24:29,
2024-03-25T15:24:29,-3.2404800060500003,1.5900306176999999,9.5365944723,0.03665191429188092,0.0025961772623415654,-0.03313943917224234,0.15274000000000001,0.22722000000000003,-0.4403000000000001,7.5,1,8898,8525,13418,32371,14.5122265625,221719,22.647889098367763,1027.388240672346,0,40.689313,-73.991838,0.27,19:24:29,
2024-03-25T15:24:29,-3.2315069213,1.567298803,9.51805009715,0.0355829001250344,0.005345070834232635,-0.03695734691097993,0.16366000000000003,0.22246000000000002,-0.44128,7.5,1,8898,8525,13418,32371,14.5122265625,221719,22.647889098367763,1027.388240672346,0,40.689313,-73.991838,0.44,19:24:29,
2024-03-25T15:24:29,-3.2751759337499995,1.57507547645,9.5521478192,0.03390302071998985,-0.0006108652381980154,-0.03329215548179184,0.16478000000000004,0.22834000000000004,-0.44772,7.5,1,8898,8525,13418,32371,14.5122265625,221719,22.647889098367763,1027.388240672346,0,40.689313,-73.991838,0.44,19:24:29,
2024-03-25T15:24:29,-3.0807590974999997,1.5613167465000002,9.580263484749999,0.038484510006474966,0.0044287729769356115,-0.037110063220529434,0.16870000000000002,0.22414,-0.44170000000000004,7.5,1,8898,8525,13418,32371,14.4286328125,208222,22.554714222827204,1027.4114443556982,0,40.689313,-73.991836,0.44,19:24:30,
2024-03-25T15:24:30,-3.266202849,1.5684952143,9.6012006825,0.03252857393404432,-0.005039638215133627,-0.03420845333908886,0.16758,0.22442,-0.44478,7.5,1,8891,8519,13415,32354,14.539375,217504,22.62362250550666,1027.399147041064,0,40.689313,-73.991836,0.44,19:24:30,
2024-03-25T15:24:30,-3.2955149258499996,1.56789700865,9.580263484749999,0.03420845333908886,0.002901609881440573,-0.03405573702953936,0.16674,0.23002,-0.4496800000000001,7.5,1,8891,8519,13415,32354,14.539375,217504,22.62362250550666,1027.399147041064,0,40.689313,-73.991836,0.44,19:24:30,
2024-03-25T15:24:30,-3.2255248647999997,1.5822539442499999,9.5150590689,0.038637226316024474,0.0018325957145940463,-0.03802636107782646,0.16506,0.23478000000000002,-0.43848000000000004,7.5,1,8891,8519,13415,32354,14.539375,217504,22.62362250550666,1027.399147041064,0,40.689313,-73.991836,1.61,19:24:30,
2024-03-25T15:24:30,-3.2297123043499996,1.53679031485,9.549754996599999,0.03802636107782646,0.006261368691529657,-0.0355829001250344,0.17262,0.22806000000000004,-0.4501,7.5,1,8891,8519,13415,32354,14.539375,217504,22.62362250550666,1027.399147041064,0,40.689313,-73.991836,1.61,19:24:30,
2024-03-25T15:24:30,-3.2482566795,1.5619149521499998,9.57787066215,0.0357356164345839,0.0024434609527920616,-0.03283400655314333,0.17374,0.23842000000000002,-0.43190000000000006,7.5,0,8887,8516,13406,32340,14.3503125,206024,22.53443121347044,1027.424267726938,0,40.68931,-73.991833,1.61,19:24:31,
2024-03-25T15:24:31,-3.25483694165,1.5595221295499997,9.490532637249999,0.03436116964863837,0.0019853120241435504,-0.038942658935123484,0.15862,0.22778000000000004,-0.4397400000000001,7.5,0,8901,8527,13426,32406,14.41671875,217504,22.59025317677172,1027.4105481389024,0,40.68931,-73.991833,1.61,19:24:31,
2024-03-25T15:24:31,-3.2291140986999998,1.57507547645,9.570093988699998,0.03405573702953936,0.0025961772623415654,-0.03466660226773738,0.16842000000000001,0.22498,-0.43008,7.5,0,8901,8527,13426,32406,14.41671875,217504,22.59025317677172,1027.4105481389024,0,40.68931,-73.991833,1.61,19:24:31,
2024-03-25T15:24:31,-3.2051858726999995,1.55354007305,9.560522698299998,0.038484510006474966,0.0056505034533316425,-0.038484510006474966,0.16142,0.22946,-0.4354,7.5,0,8901,8527,13426,32406,14.41671875,217504,22.59025317677172,1027.4105481389024,0,40.68931,-73.991833,0.63,19:24:31,
2024-03-25T15:24:31,-3.19501637665,1.5583257182499999,9.53121062145,0.036193765363232405,0.003970624048287101,-0.03466660226773738,0.16058,0.22862000000000005,-0.44898000000000005,7.5,0,8901,8527,13426,32406,14.41671875,217504,22.59025317677172,1027.4105481389024,0,40.68931,-73.991833,0.63,19:24:31,
2024-03-25T15:24:31,-3.2356943608499997,1.60139652505,9.57547783955,0.03543018381548489,0.0033597588100890844,-0.03451388595818787,0.16282000000000002,0.22806000000000004,-0.43848000000000004,7.5,0,8901,8527,13426,32406,14.2579296875,203747,22.53919389094902,1027.423759097687,0,40.689308,-73.99183,0.63,19:24:32,
2024-03-25T15:24:32,-3.2315069213,1.5810575329499996,9.547960379649998,0.03375030441044035,0.00015271630954950385,-0.03527746750593539,0.15862,0.22918000000000002,-0.44828,7.5,0,8895,8525,13425,32405,14.3458203125,216652,22.6014909487214,1027.4079021678322,0,40.689308,-73.99183,0.63,19:24:32,
2024-03-25T15:24:32,-3.2524441190499997,1.5595221295499997,9.57547783955,0.03695734691097993,0.005345070834232635,-0.03695734691097993,0.16562000000000002,0.22974,-0.44534,7.5,0,8895,8525,13425,32405,14.3458203125,216652,22.6014909487214,1027.4079021678322,0,40.689308,-73.99183,0.63,19:24:32,
2024-03-25T15:24:32,-3.2004002274999994,1.5655041860499999,9.58145989605,0.03405573702953936,0.0022907446432425577,-0.03313943917224234,0.16114,0.22078000000000003,-0.43848000000000004,7.5,0,8895,8525,13425,32405,14.3458203125,216652,22.6014909487214,1027.4079021678322,0,40.689308,-73.99183,0.6,19:24:32,
2024-03-25T15:24:32,-3.26919387725,1.5744772707999999,9.5617191096,0.031764992386296806,0.0035124751196385882,-0.036193765363232405,0.16338000000000003,0.22386,-0.43470000000000003,7.5,0,8895,8525,13425,32405,14.3458203125,216652,22.6014909487214,1027.4079021678322,0,40.689308,-73.99183,0.6,19:24:32,
2024-03-25T15:24:32,-3.2141589574499996,1.5714862425499996,9.576076045199999,0.03634648167278191,0.00045814892864851157,-0.03512475119638588,0.16142,0.22526000000000002,-0.43904000000000004,7.5,0,8895,8525,13425,32405,14.2040234375,203872,22.520403806204325,1027.4288179059292,0,40.68931,-73.99183,0.6,19:24:33,
2024-03-25T15:24:33,-3.242274623,1.5978072911499999,9.54197832315,0.03695734691097993,0.0013744467859455349,-0.036499197982331415,0.15806,0.22442,-0.43036,7.5,1,8891,8519,13416,32383,14.3048046875,216088,22.59900143535412,1027.4050294334834,0,40.68931,-73.99183,0.6,19:24:33,
2024-03-25T15:24:33,-3.2542387359999996,1.5834503555499997,9.602995299449999,0.03344487179134134,0.008399397025222712,-0.03588833274413341,0.1603,0.22022000000000003,-0.43806000000000006,7.5,1,8891,8519,13416,32383,14.3048046875,216088,22.59900143535412,1027.4050294334834,0,40.68931,-73.99183,0.6,19:24:33,
2024-03-25T15:24:33,-3.18305226365,1.5595221295499997,9.602995299449999,0.03405573702953936,0.0038179077387375964,-0.03726277953007894,0.15946000000000002,0.22246000000000002,-0.43736,7.5,1,8891,8519,13416,32383,14.3048046875,216088,22.59900143535412,1027.4050294334834,0,40.68931,-73.99183,0.6,19:24:33,
2024-03-25T15:24:33,-3.2291140986999998,1.5649059803999998,9.632307376299998,0.03497203488683638,0.0033597588100890844,-0.03268129024359383,0.15582000000000001,0.22442,-0.44646,7.5,1,8891,8519,13416,32383,14.3048046875,216088,22.59900143535412,1027.4050294334834,0,40.68931,-73.99183,0.6,19:24:33,
2024-03-25T15:24:33,-3.2596225868499995,1.5858431781499998,9.57069219435,0.03466660226773738,0.0036651914291880926,-0.036804630601430424,0.16254000000000002,0.22218000000000004,-0.44814000000000004,7.5,1,8891,8519,13416,32383,14.1645703125,205006,22.53354741581081,1027.4215585808795,0,40.68931,-73.99183,0.6,19:24:33,
2024-03-25T15:24:33,-3.2566315585999996,1.5744772707999999,9.64008404975,0.036804630601430424,0.002138028333693054,-0.03741549583962844,0.16310000000000002,0.23002,-0.44884,7.5,1,8891,8519,13416,32383,14.1645703125,205006,22.53354741581081,1027.4215585808795,0,40.68931,-73.99183,0.6,19:24:33,
2024-03-25T15:24:33,-3.2554351472999996,1.5768700934,9.54197832315,0.03390302071998985,0.0035124751196385882,-0.03436116964863837,0.15358000000000002,0.23170000000000002,-0.4502400000000001,7.5,1,8891,8519,13416,32383,14.1645703125,205006,22.53354741581081,1027.4215585808795,0,40.68931,-73.99183,0.6,19:24:33,
2024-03-25T15:24:33,-3.2362925664999995,1.5661023916999999,9.57667425085,0.037110063220529434,0.006414085001079162,-0.038789942625573975,0.15974000000000002,0.22386,-0.43862000000000007,7.5,1,8891,8519,13416,32383,14.1645703125,205006,22.53354741581081,1027.4215585808795,0,40.68931,-73.99183,0.6,19:24:33,
2024-03-25T15:24:33,-3.2015966387999995,1.5619149521499998,9.561120903949998,0.040317105721069016,0.0036651914291880926,-0.036193765363232405,0.16254000000000002,0.22498,-0.44478,7.5,1,8891,8519,13416,32383,14.270234375,214412,22.5969040929495,1027.4130630020002,0,40.68931,-73.99183,0.65,19:24:33,
2024-03-25T15:24:33,-3.242274623,1.5828521499,9.5868437469,0.03390302071998985,0.0027488935718910697,-0.03512475119638588,0.16870000000000002,0.22274000000000002,-0.4438000000000001,7.5,1,8891,8519,13416,32383,14.270234375,214412,22.5969040929495,1027.4130630020002,0,40.68931,-73.99183,0.65,19:24:33,
2024-03-25T15:24:33,-3.22612307045,1.5649059803999998,9.5736832226,0.038484510006474966,0.0033597588100890844,-0.03802636107782646,0.15806,0.22666000000000003,-0.43456000000000006,7.5,1,8891,8519,13416,32383,14.270234375,214412,22.5969040929495,1027.4130630020002,0,40.689306,-73.99183,0.65,19:24:34,
2024-03-25T15:24:34,-3.2596225868499995,1.5714862425499996,9.580263484749999,0.03390302071998985,0.0035124751196385882,-0.03451388595818787,0.1603,0.22694000000000003,-0.4426800000000001,7.5,1,8889,8518,13412,32365,14.5493359375,222164,22.650150245889137,1027.4019881270092,0,40.689306,-73.99183,0.65,19:24:34,
2024-03-25T15:24:34,-3.22373024785,1.57507547645,9.6394858441,0.03375030441044035,0.0033597588100890844,-0.03481931857728687,0.16002000000000002,0.22806000000000004,-0.43834,7.5,1,8889,8518,13412,32365,14.5493359375,222164,22.650150245889137,1027.4019881270092,0,40.689306,-73.99183,0.65,19:24:34,
2024-03-25T15:24:34,-3.25005129645,1.5822539442499999,9.5425765288,0.036499197982331415,0.0015271630954950385,-0.037110063220529434,0.1603,0.22442,-0.44394000000000006,7.5,1,8889,8518,13412,32365,14.5493359375,222164,22.650150245889137,1027.4019881270092,0,40.689306,-73.99183,0.63,19:24:34,
2024-03-25T15:24:34,-3.22492665915,1.5696916255999998,9.584450924299999,0.03741549583962844,0.0033597588100890844,-0.03344487179134134,0.15554,0.22302000000000002,-0.44772,7.5,1,8889,8518,13412,32365,14.5493359375,222164,22.650150245889137,1027.4019881270092,0,40.689306,-73.99183,0.63,19:24:34,
2024-03-25T15:24:34,-3.3541390795499995,1.5828521499,9.56471013785,0.038789942625573975,0.005039638215133627,-0.036804630601430424,0.1547,0.22302000000000002,-0.4473000000000001,7.5,1,8889,8518,13412,32365,14.4628125,211676,22.567148170453834,1027.4219978922838,0,40.689306,-73.991831,0.63,19:24:35,
2024-03-25T15:24:35,-3.2297123043499996,1.5661023916999999,9.583852718649998,0.03481931857728687,0.0024434609527920616,-0.036193765363232405,0.15946000000000002,0.2247,-0.44856000000000007,7.5,0,8889,8517,13412,32364,14.57140625,221128,22.630756968152497,1027.4095532813462,0,40.689306,-73.991831,0.63,19:24:35,
2024-03-25T15:24:35,-3.2279176873999997,1.5655041860499999,9.537790883599998,0.03420845333908886,0.0035124751196385882,-0.03283400655314333,0.15722000000000003,0.23058,-0.43988000000000005,7.5,0,8889,8517,13412,32364,14.57140625,221128,22.630756968152497,1027.4095532813462,0,40.689306,-73.991831,0.63,19:24:35,
2024-03-25T15:24:35,-3.2207392195999995,1.5828521499,9.6023970938,0.03741549583962844,0.0038179077387375964,-0.03405573702953936,0.15778,0.22218000000000004,-0.4354,7.5,0,8887,8517,13414,32362,14.57140625,221128,22.630756968152497,1027.4095532813462,0,40.689306,-73.991831,1.57,19:24:35,
2024-03-25T15:24:35,-3.2315069213,1.5888342063999998,9.62333429155,0.037110063220529434,0.0036651914291880926,-0.037110063220529434,0.16086,0.22666000000000003,-0.4389,7.5,0,8887,8517,13414,32362,14.57140625,221128,22.630756968152497,1027.4095532813462,0,40.689306,-73.991831,1.57,19:24:35,
2024-03-25T15:24:35,-3.2255248647999997,1.52841543575,9.57428142825,0.039858956792420505,0.005803219762881146,-0.03359758810089085,0.16142,0.22162000000000004,-0.44156000000000006,7.5,0,8887,8517,13414,32362,14.3909375,209537,22.547249404143045,1027.4334804895013,0,40.689301,-73.99183,1.57,19:24:36,
2024-03-25T15:24:36,-3.2404800060500003,1.5792629159999998,9.54197832315,0.031459559767197796,0.003054326190990077,-0.03695734691097993,0.16198,0.22610000000000002,-0.44548000000000004,7.5,0,8887,8517,13418,32378,14.4618359375,218939,22.598175450260694,1027.4063265004331,0,40.689301,-73.99183,1.57,19:24:36,
2024-03-25T15:24:36,-3.2321051269499996,1.5547364843499998,9.570093988699998,0.03298672286269283,0.004581489286485115,-0.038331793696925465,0.15778,0.22582000000000002,-0.43918000000000007,7.5,0,8887,8517,13418,32378,14.4618359375,218939,22.598175450260694,1027.4063265004331,0,40.689301,-73.99183,1.57,19:24:36,
2024-03-25T15:24:36,-3.26919387725,1.5780665047,9.5653083435,0.041080687268816536,0.0016798794050445422,-0.0355829001250344,0.16114,0.22414,-0.44170000000000004,7.5,0,8887,8517,13418,32378,14.4618359375,218939,22.598175450260694,1027.4063265004331,0,40.689301,-73.99183,0.58,19:24:36,
2024-03-25T15:24:36,-3.0640093392999996,1.5499508391499999,9.5557370531,0.038942658935123484,0.0033597588100890844,-0.03634648167278191,0.15918000000000002,0.22862000000000005,-0.42882000000000003,7.5,0,8887,8517,13418,32378,14.4618359375,218939,22.598175450260694,1027.4063265004331,0,40.689301,-73.99183,0.58,19:24:36,
2024-03-25T15:24:36,-3.2380871834499994,1.5649059803999998,9.5772724565,0.03481931857728687,0.0038179077387375964,-0.03451388595818787,0.15806,0.2247,-0.43288000000000004,7.5,0,8887,8517,13418,32378,14.291328125,207312,22.52568328715688,1027.4295102028946,0,40.689298,-73.991833,0.58,19:24:37,
2024-03-25T15:24:37,-3.2554351472999996,1.5906288233499997,9.5413801175,0.036804630601430424,0.0025961772623415654,-0.03466660226773738,0.15806,0.22302000000000002,-0.43036,7.5,0,8885,8515,13417,32376,14.372578125,217933,22.572032922365864,1027.404149240196,0,40.689298,-73.991833,0.58,19:24:37,
2024-03-25T15:24:37,-3.2105697235499995,1.5601203352,9.578468867799998,0.038637226316024474,0.001069014166846527,-0.03604104905368291,0.15330000000000002,0.22358,-0.43400000000000005,7.5,0,8885,8515,13417,32376,14.372578125,217933,22.572032922365864,1027.404149240196,0,40.689298,-73.991833,0.58,19:24:37,
2024-03-25T15:24:37,-3.2338997439,1.5936198515999997,9.5856473356,0.03802636107782646,0.00473420559603462,-0.036193765363232405,0.15610000000000002,0.22806000000000004,-0.42896000000000006,7.5,0,8885,8515,13417,32376,14.372578125,217933,22.572032922365864,1027.404149240196,0,40.689298,-73.991833,0.81,19:24:37,
2024-03-25T15:24:37,-3.23090871565,1.5738790651499999,9.547362174,0.03604104905368291,0.0054977871437821395,-0.03313943917224234,0.1589,0.22526000000000002,-0.43736,7.5,0,8885,8515,13417,32376,14.372578125,217933,22.572032922365864,1027.404149240196,0,40.689298,-73.991833,0.81,19:24:37,
2024-03-25T15:24:37,-3.357728313449999,1.5649059803999998,9.5449693514,0.03604104905368291,0.0033597588100890844,-0.03756821214917795,0.15610000000000002,0.2247,-0.43862000000000007,7.5,0,8885,8515,13417,32376,14.22296875,209670,22.50602131889194,1027.4241158561983,0,40.689299,-73.991835,0.81,19:24:38,
2024-03-25T15:24:38,-3.2362925664999995,1.5894324120499999,9.61495941245,0.03634648167278191,0.006108652381980154,-0.036804630601430424,0.16422000000000003,0.23282000000000003,-0.4438000000000001,7.5,0,8873,8502,13397,32325,14.3192578125,218939,22.584338064154775,1027.4119822671323,0,40.689299,-73.991835,0.81,19:24:38,
2024-03-25T15:24:38,-3.2512477077499997,1.5655041860499999,9.5066841898,0.03298672286269283,0.001069014166846527,-0.03665191429188092,0.15946000000000002,0.23226000000000002,-0.4459,7.5,0,8873,8502,13397,32325,14.3192578125,218939,22.584338064154775,1027.4119822671323,0,40.689299,-73.991835,0.81,19:24:38,
2024-03-25T15:24:38,-3.22492665915,1.6025929363499998,9.571290399999999,0.03252857393404432,-0.001069014166846527,-0.03741549583962844,0.15442000000000003,0.22890000000000005,-0.44198000000000004,7.5,0,8873,8502,13397,32325,14.3192578125,218939,22.584338064154775,1027.4119822671323,0,40.689299,-73.991835,0.81,19:24:38,
2024-03-25T15:24:38,-3.26919387725,1.5559328956499998,9.51565727455,0.03420845333908886,0.004123340357836604,-0.03741549583962844,0.15806,0.22862000000000005,-0.44366,7.5,0,8873,8502,13397,32325,14.3192578125,218939,22.584338064154775,1027.4119822671323,0,40.689299,-73.991835,0.81,19:24:38,
2024-03-25T15:24:38,-3.2219356309,1.5762718877499997,9.55633525875,0.03665191429188092,0.0033597588100890844,-0.039400807863771994,0.15582000000000001,0.22302000000000002,-0.43302,7.5,0,8873,8502,13397,32325,14.178828125,207571,22.513705653405083,1027.4299401161538,0,40.689299,-73.991835,0.81,19:24:38,
2024-03-25T15:24:38,-3.2333015382499997,1.57268265385,9.551549613549998,0.03665191429188092,0.0038179077387375964,-0.03588833274413341,0.1617,0.22498,-0.43400000000000005,7.5,0,8873,8502,13397,32325,14.178828125,207571,22.513705653405083,1027.4299401161538,0,40.689299,-73.991835,0.81,19:24:38,
2024-03-25T15:24:38,-3.2099715178999992,1.5876377951,9.598209654249999,0.030848694528999777,0.0035124751196385882,-0.03497203488683638,0.16506,0.22442,-0.4432400000000001,7.5,0,8873,8502,13397,32325,14.178828125,207571,22.513705653405083,1027.4299401161538,0,40.689299,-73.991835,0.81,19:24:38,
2024-03-25T15:24:38,-3.2458638569,1.5714862425499996,9.52881779885,0.03604104905368291,0.0019853120241435504,-0.03268129024359383,0.15638000000000002,0.2247,-0.42686,7.5,0,8873,8502,13397,32325,14.178828125,207571,22.513705653405083,1027.4299401161538,0,40.689299,-73.991835,0.81,19:24:38,
2024-03-25T15:24:38,-3.2189446026499997,1.5912270289999997,9.579665279099999,0.03390302071998985,0.006261368691529657,-0.03344487179134134,0.16086,0.22806000000000004,-0.43764000000000003,7.5,0,8873,8502,13397,32325,14.2841015625,217219,22.582206070820742,1027.4067632448441,0,40.689299,-73.991835,0.78,19:24:38,
2024-03-25T15:24:38,-3.2386853890999996,1.5798611216499998,9.579665279099999,0.03497203488683638,0.0056505034533316425,-0.03313943917224234,0.15834,0.22778000000000004,-0.44100000000000006,7.5,0,8873,8502,13397,32325,14.2841015625,217219,22.582206070820742,1027.4067632448441,0,40.689299,-73.991835,0.78,19:24:38,
2024-03-25T15:24:38,-3.23090871565,1.5643077747499998,9.51685368585,0.03390302071998985,0.0035124751196385882,-0.03497203488683638,0.16058,0.22918000000000002,-0.44338000000000005,7.5,0,8873,8502,13397,32325,14.2841015625,217219,22.582206070820742,1027.4067632448441,0,40.689305,-73.991833,0.78,19:24:39,
2024-03-25T15:24:39,-3.1998020218499996,1.5888342063999998,9.559326287,0.0316122760767473,0.003054326190990077,-0.03543018381548489,0.16338000000000003,0.22386,-0.44366,7.5,0,8869,8498,13387,32291,14.56359375,224570,22.64583439549192,1027.4068445225055,0,40.689305,-73.991833,0.78,19:24:39,
2024-03-25T15:24:39,-3.2338997439,1.5499508391499999,9.549156790949999,0.031459559767197796,0.006108652381980154,-0.0357356164345839,0.15610000000000002,0.22582000000000002,-0.4478600000000001,7.5,0,8869,8498,13387,32291,14.56359375,224570,22.64583439549192,1027.4068445225055,0,40.689305,-73.991833,0.78,19:24:39,
2024-03-25T15:24:39,-3.2338997439,1.5978072911499999,9.6023970938,0.03772092845872745,0.0003054326190990077,-0.038484510006474966,0.15946000000000002,0.22414,-0.42980000000000007,7.5,0,8869,8498,13387,32291,14.56359375,224570,22.64583439549192,1027.4068445225055,0,40.689305,-73.991833,1.1,19:24:39,
2024-03-25T15:24:39,-3.2488548851499996,1.5786647103499998,9.57667425085,0.03359758810089085,0.004123340357836604,-0.03543018381548489,0.15974000000000002,0.22666000000000003,-0.42952,7.5,0,8869,8498,13387,32291,14.56359375,224570,22.64583439549192,1027.4068445225055,0,40.689305,-73.991833,1.1,19:24:39,
2024-03-25T15:24:39,-3.2566315585999996,1.56789700865,9.57308501695,0.03359758810089085,0.00473420559603462,-0.03481931857728687,0.15750000000000003,0.22498,-0.42812000000000006,7.5,0,8869,8498,13387,32291,14.4809765625,213997,22.568250883312352,1027.421206183236,0,40.689299,-73.99183,1.1,19:24:40,
2024-03-25T15:24:40,-3.2482566795,1.5822539442499999,9.54197832315,0.038331793696925465,0.004123340357836604,-0.03390302071998985,0.15778,0.22694000000000003,-0.44758000000000003,7.5,0,8867,8497,13384,32282,14.592890625,223511,22.621697379244775,1027.4038565927287,0,40.689299,-73.99183,1.1,19:24:40,
2024-03-25T15:24:40,-3.2506495021,1.5517454561000001,9.527621387549999,0.03604104905368291,0.004276056667386108,-0.03665191429188092,0.16198,0.22386,-0.44576000000000005,7.5,0,8867,8497,13384,32282,14.592890625,223511,22.621697379244775,1027.4038565927287,0,40.689299,-73.99183,1.1,19:24:40,
2024-03-25T15:24:40,-3.0825537144499995,1.5625131578,9.5736832226,0.038484510006474966,0.0044287729769356115,-0.03405573702953936,0.15946000000000002,0.22666000000000003,-0.43820000000000003,7.5,0,8867,8497,13384,32282,14.592890625,223511,22.621697379244775,1027.4038565927287,0,40.689299,-73.99183,0.03,19:24:40,
2024-03-25T15:24:40,-3.24406923995,1.5421741657,9.55633525875,0.036499197982331415,0.004276056667386108,-0.03420845333908886,0.16142,0.21574000000000002,-0.43862000000000007,7.5,0,8867,8497,13384,32282,14.4126171875,210735,22.53302715293603,1027.4246299703339,0,40.689299,-73.99183,0.03,19:24:40,
2024-03-25T15:24:40,-3.2476584738499996,1.57507547645,9.557531670049999,0.03695734691097993,0.004886921905584123,-0.03772092845872745,0.15526,0.22022000000000003,-0.44450000000000006,7.5,0,8867,8497,13384,32282,14.4126171875,210735,22.53302715293603,1027.4246299703339,0,40.689296,-73.99183,0.03,19:24:41,
2024-03-25T15:24:41,-3.2368907721499993,1.5816557385999996,9.62572711415,0.038179077387375956,0.003207042500539581,-0.038637226316024474,0.15274000000000001,0.22022000000000003,-0.44884,7.5,1,8868,8497,13383,32291,14.4815625,221867,22.59937443861679,1027.3994178806722,0,40.689296,-73.99183,0.03,19:24:41,
2024-03-25T15:24:41,-3.2333015382499997,1.5840485612,9.55992449265,0.03313943917224234,0.007177666548826681,-0.03741549583962844,0.16226000000000002,0.22778000000000004,-0.43372000000000005,7.5,1,8868,8497,13383,32291,14.4815625,221867,22.59937443861679,1027.3994178806722,0,40.689296,-73.99183,0.03,19:24:41,
2024-03-25T15:24:41,-3.22612307045,1.5852449725,9.472586467749998,0.03344487179134134,0.007483099167925688,-0.03497203488683638,0.16450000000000004,0.22162000000000004,-0.43932000000000004,7.5,1,8868,8497,13383,32291,14.4815625,221867,22.59937443861679,1027.3994178806722,0,40.689296,-73.99183,0.06,19:24:41,
2024-03-25T15:24:41,-3.26919387725,1.5643077747499998,9.57069219435,0.0355829001250344,0.003970624048287101,-0.036804630601430424,0.15862,0.22106000000000003,-0.44212000000000007,7.5,1,8868,8497,13383,32291,14.4815625,221867,22.59937443861679,1027.3994178806722,0,40.689296,-73.99183,0.06,19:24:41,
2024-03-25T15:24:41,-3.25005129645,1.54875442785,9.522835742349999,0.03741549583962844,0.007635815477475193,-0.03604104905368291,0.16254000000000002,0.22582000000000002,-0.44142000000000003,7.5,1,8868,8497,13383,32291,14.3102734375,209405,22.51647559003933,1027.4195445403054,0,40.689295,-73.991828,0.06,19:24:42,
2024-03-25T15:24:42,-3.2344979495499997,1.5690934199499997,9.55633525875,0.03741549583962844,0.005192354524683131,-0.03512475119638588,0.16450000000000004,0.22274000000000002,-0.44632000000000005,7.5,1,8866,8496,13383,32283,14.3915234375,218795,22.57836240597034,1027.3994309152424,0,40.689295,-73.991828,0.06,19:24:42,
2024-03-25T15:24:42,-3.2392835947500003,1.5714862425499996,9.566504754799999,0.03436116964863837,0.005345070834232635,-0.03329215548179184,0.15526,0.23226000000000002,-0.44296,7.5,1,8866,8496,13383,32283,14.3915234375,218795,22.57836240597034,1027.3994309152424,0,40.689295,-73.991828,0.06,19:24:42,
2024-03-25T15:24:42,-3.2177481913499997,1.5732808595,9.570093988699998,0.03772092845872745,0.0068722339297276735,-0.03207042500539581,0.15078,0.22694000000000003,-0.43022000000000005,7.5,0,8868,8498,13384,32292,14.3915234375,218795,22.57836240597034,1027.3994309152424,0,40.689295,-73.991828,0.06,19:24:42,
2024-03-25T15:24:42,-3.2494530907999994,1.57268265385,9.49890751635,0.028863382504856226,0.0022907446432425577,-0.03359758810089085,0.15722000000000003,0.22806000000000004,-0.44646,7.5,0,8868,8498,13384,32292,14.3915234375,218795,22.57836240597034,1027.3994309152424,0,40.689295,-73.991828,0.06,19:24:42,
2024-03-25T15:24:42,-3.2321051269499996,1.5415759600499999,9.55035320225,0.039095375244672985,0.0035124751196385882,-0.038179077387375956,0.16506,0.23086,-0.4543000000000001,7.5,0,8868,8498,13384,32292,14.2466015625,210068,22.517801491456446,1027.4133358260283,0,40.689299,-73.991825,0.06,19:24:43,
2024-03-25T15:24:43,-3.24287282865,1.57268265385,9.5617191096,0.03451388595818787,0.006414085001079162,-0.03512475119638588,0.15162,0.22526000000000002,-0.45248,7.5,1,8870,8500,13398,32318,14.34640625,219229,22.58598505891339,1027.3931266096292,0,40.689299,-73.991825,0.06,19:24:43,
2024-03-25T15:24:43,-3.2656046433499997,1.5804593272999998,9.593424009049999,0.03390302071998985,-0.00015271630954950385,-0.03787364476827696,0.1589,0.22722000000000003,-0.44338000000000005,7.5,1,8870,8500,13398,32318,14.34640625,219229,22.58598505891339,1027.3931266096292,0,40.689299,-73.991825,0.06,19:24:43,
2024-03-25T15:24:43,-3.23090871565,1.5637095691,9.59581683165,0.038331793696925465,0.0019853120241435504,-0.036499197982331415,0.16254000000000002,0.22358,-0.44114000000000003,7.5,1,8870,8500,13398,32318,14.34640625,219229,22.58598505891339,1027.3931266096292,0,40.689299,-73.991825,0.06,19:24:43,
2024-03-25T15:24:43,-3.2338997439,1.57268265385,9.593424009049999,0.03726277953007894,0.005192354524683131,-0.037110063220529434,0.16310000000000002,0.21882000000000001,-0.44506000000000007,7.5,1,8870,8500,13398,32318,14.34640625,219229,22.58598505891339,1027.3931266096292,0,40.689299,-73.991825,0.06,19:24:43,
2024-03-25T15:24:43,-3.27039028855,1.5822539442499999,9.589236569499999,0.036193765363232405,0.005803219762881146,-0.03405573702953936,0.16198,0.21882000000000001,-0.43834,7.5,1,8870,8500,13398,32318,14.2065625,208353,22.505030187291506,1027.417353344457,0,40.689299,-73.991825,0.06,19:24:43,
2024-03-25T15:24:43,-3.2476584738499996,1.5613167465000002,9.5461657627,0.03756821214917795,0.0033597588100890844,-0.036804630601430424,0.16058,0.22946,-0.44128,7.5,1,8870,8500,13398,32318,14.2065625,208353,22.505030187291506,1027.417353344457,0,40.689299,-73.991825,0.06,19:24:43,
2024-03-25T15:24:43,-3.24287282865,1.5828521499,9.589236569499999,0.0357356164345839,0.0016798794050445422,-0.03787364476827696,0.16254000000000002,0.22358,-0.44086000000000003,7.5,1,8870,8500,13398,32318,14.2065625,208353,22.505030187291506,1027.417353344457,0,40.689299,-73.991825,0.06,19:24:43,
2024-03-25T15:24:43,-3.2273194817499995,1.5559328956499998,9.482157758149999,0.038942658935123484,0.004581489286485115,-0.03481931857728687,0.1617,0.22526000000000002,-0.45192,7.5,1,8870,8500,13398,32318,14.2065625,208353,22.505030187291506,1027.417353344457,0,40.689299,-73.991825,0.06,19:24:43,
2024-03-25T15:24:43,-3.2333015382499997,1.5684952143,9.558728081349999,0.041386119887915546,0.0025961772623415654,-0.0357356164345839,0.15526,0.22582000000000002,-0.44842000000000004,7.5,1,8870,8500,13398,32318,14.3094921875,217933,22.588925575137868,1027.3954476096753,0,40.689299,-73.991825,0.06,19:24:43,
2024-03-25T15:24:43,-3.2458638569,1.5738790651499999,9.561120903949998,0.031459559767197796,0.0038179077387375964,-0.03451388595818787,0.16114,0.21826,-0.44002,7.5,1,8870,8500,13398,32318,14.3094921875,217933,22.588925575137868,1027.3954476096753,0,40.689299,-73.991825,0.06,19:24:43,
2024-03-25T15:24:43,-3.2434710343,1.5834503555499997,9.5964150373,0.03787364476827696,0.002138028333693054,-0.036193765363232405,0.15694000000000002,0.22218000000000004,-0.44226000000000004,7.5,1,8870,8500,13398,32318,14.3094921875,217933,22.588925575137868,1027.3954476096753,0,40.689305,-73.991823,0.06,19:24:44,
2024-03-25T15:24:44,-3.20698048965,1.5732808595,9.580263484749999,0.0357356164345839,0.007177666548826681,-0.03512475119638588,0.1617,0.22190000000000004,-0.44142000000000003,7.5,0,8868,8499,13399,32311,14.5856640625,225946,22.63681001444571,1027.3933773147985,0,40.689305,-73.991823,0.06,19:24:44,
2024-03-25T15:24:44,-3.2303105099999994,1.5625131578,9.59940606555,0.03588833274413341,0.0035124751196385882,-0.03634648167278191,0.16086,0.22134000000000004,-0.43036,7.5,0,8868,8499,13399,32311,14.5856640625,225946,22.63681001444571,1027.3933773147985,0,40.689305,-73.991823,0.06,19:24:44,
2024-03-25T15:24:44,-3.2231320422,1.5744772707999999,9.537790883599998,0.036499197982331415,0.006108652381980154,-0.03268129024359383,0.16534000000000001,0.22526000000000002,-0.44828,7.5,0,8868,8499,13399,32311,14.5856640625,225946,22.63681001444571,1027.3933773147985,0,40.689305,-73.991823,0.04,19:24:44,
2024-03-25T15:24:44,-3.2344979495499997,1.6091731985,9.62692352545,0.03359758810089085,0.0025961772623415654,-0.036804630601430424,0.16142,0.22498,-0.44548000000000004,7.5,0,8868,8499,13399,32311,14.5856640625,225946,22.63681001444571,1027.3933773147985,0,40.689305,-73.991823,0.04,19:24:44,
2024-03-25T15:24:44,-3.22253383655,1.57746829905,9.5617191096,0.0357356164345839,0.003054326190990077,-0.03298672286269283,0.15974000000000002,0.22750000000000004,-0.43694000000000005,7.5,0,8868,8499,13399,32311,14.49796875,212762,22.564101925178953,1027.416676792741,0,40.689305,-73.991821,0.04,19:24:45,
2024-03-25T15:24:45,-3.218346397,1.5888342063999998,9.543174734449998,0.038637226316024474,0.005345070834232635,-0.03756821214917795,0.16114,0.22974,-0.43764000000000003,7.5,1,8868,8498,13398,32330,14.6051953125,223964,22.622446858719368,1027.400146708841,0,40.689305,-73.991821,0.04,19:24:45,
2024-03-25T15:24:45,-3.2554351472999996,1.5667005973499997,9.553942436149999,0.03481931857728687,0.004123340357836604,-0.036804630601430424,0.15778,0.23282000000000003,-0.44506000000000007,7.5,1,8868,8498,13398,32330,14.6051953125,223964,22.622446858719368,1027.400146708841,0,40.689305,-73.991821,0.04,19:24:45,
2024-03-25T15:24:45,-3.20578407835,1.567298803,9.6047899164,0.03283400655314333,0.0033597588100890844,-0.03787364476827696,0.16478000000000004,0.23282000000000003,-0.45416,7.5,1,8868,8498,13398,32330,14.6051953125,223964,22.622446858719368,1027.400146708841,0,40.689305,-73.991821,0.06,19:24:45,
2024-03-25T15:24:45,-3.2578279698999997,1.5786647103499998,9.608977355949998,0.036193765363232405,0.0013744467859455349,-0.0357356164345839,0.1589,0.22862000000000005,-0.4491200000000001,7.5,1,8868,8498,13398,32330,14.6051953125,223964,22.622446858719368,1027.400146708841,0,40.689305,-73.991821,0.06,19:24:45,
2024-03-25T15:24:45,-3.2285158930499995,1.5840485612,9.560522698299998,0.030085112981252257,0.0038179077387375964,-0.03436116964863837,0.16450000000000004,0.23870000000000002,-0.44884,7.5,1,8868,8498,13398,32330,14.4212109375,210869,22.52836941119824,1027.4234097676674,0,40.689303,-73.99182,0.06,19:24:46,
2024-03-25T15:24:46,-3.2093733122499994,1.5786647103499998,9.55633525875,0.03375030441044035,0.0038179077387375964,-0.036193765363232405,0.15022000000000002,0.23366000000000003,-0.43834,7.5,1,8863,8495,13390,32319,14.4876171875,220981,22.58419729201238,1027.4026580988063,0,40.689303,-73.99182,0.06,19:24:46,
2024-03-25T15:24:46,-3.2380871834499994,1.5810575329499996,9.559326287,0.03405573702953936,0.0027488935718910697,-0.03588833274413341,0.15414000000000003,0.22610000000000002,-0.43624000000000007,7.5,1,8863,8495,13390,32319,14.4876171875,220981,22.58419729201238,1027.4026580988063,0,40.689303,-73.99182,0.06,19:24:46,
2024-03-25T15:24:46,-3.2524441190499997,1.5643077747499998,9.58265630735,0.036804630601430424,0.003970624048287101,-0.03802636107782646,0.16478000000000004,0.22582000000000002,-0.44408000000000003,7.5,1,8863,8495,13390,32319,14.4876171875,220981,22.58419729201238,1027.4026580988063,0,40.689303,-73.99182,0.06,19:24:46,
2024-03-25T15:24:46,-3.242274623,1.5852449725,9.5928258034,0.04123340357836604,0.004123340357836604,-0.03359758810089085,0.16394000000000003,0.2233,-0.42980000000000007,7.5,1,8863,8495,13390,32319,14.4876171875,220981,22.58419729201238,1027.4026580988063,0,40.689303,-73.99182,0.06,19:24:46,
2024-03-25T15:24:46,-3.2368907721499993,1.5816557385999996,9.571290399999999,0.03481931857728687,0.00473420559603462,-0.03451388595818787,0.16338000000000003,0.22386,-0.44170000000000004,7.5,1,8863,8495,13390,32319,14.3176953125,208484,22.51174778590243,1027.4251036293592,0,40.689305,-73.991816,0.06,19:24:47,
2024-03-25T15:24:47,-3.22253383655,1.5816557385999996,9.54197832315,0.036499197982331415,0.0003054326190990077,-0.036804630601430424,0.16058,0.23338000000000003,-0.43596,7.5,0,8860,8493,13386,32296,14.399140625,220981,22.578824679777732,1027.4000621286007,0,40.689305,-73.991816,0.06,19:24:47,
2024-03-25T15:24:47,-3.2446674455999998,1.5744772707999999,9.56829937175,0.03344487179134134,0.0022907446432425577,-0.03665191429188092,0.1589,0.23338000000000003,-0.43806000000000006,7.5,0,8860,8493,13386,32296,14.399140625,220981,22.578824679777732,1027.4000621286007,0,40.689305,-73.991816,0.06,19:24:47,
2024-03-25T15:24:47,-3.2554351472999996,1.5637095691,9.5246303593,0.03375030441044035,0.00015271630954950385,-0.038637226316024474,0.15358000000000002,0.23282000000000003,-0.45304,7.5,0,8860,8493,13386,32296,14.399140625,220981,22.578824679777732,1027.4000621286007,0,40.689305,-73.991816,0.07,19:24:47,
2024-03-25T15:24:47,-3.2273194817499995,1.5637095691,9.54556755705,0.03344487179134134,0.0036651914291880926,-0.03466660226773738,0.16086,0.22582000000000002,-0.43988000000000005,7.5,0,8860,8493,13386,32296,14.399140625,220981,22.578824679777732,1027.4000621286007,0,40.689305,-73.991816,0.07,19:24:47,
2024-03-25T15:24:47,-3.20578407835,1.5720844482,9.559326287,0.03436116964863837,0.0036651914291880926,-0.03405573702953936,0.16618,0.22890000000000005,-0.44198000000000004,7.5,0,8860,8493,13386,32296,14.2512890625,208353,22.5077326655502,1027.4247765312755,0,40.689303,-73.991816,0.07,19:24:48,
2024-03-25T15:24:48,-3.2350961551999995,1.5696916255999998,9.55633525875,0.03313943917224234,0.0036651914291880926,-0.03604104905368291,0.16198,0.2303,-0.44744000000000006,7.5,0,8860,8490,13382,32274,14.3489453125,218363,22.58095904940486,1027.4009293555298,0,40.689303,-73.991816,0.07,19:24:48,
2024-03-25T15:24:48,-3.1800612353999997,1.5696916255999998,9.59222759775,0.03313943917224234,-0.0024434609527920616,-0.03756821214917795,0.16898000000000002,0.22666000000000003,-0.44492000000000004,7.5,0,8860,8490,13382,32274,14.3489453125,218363,22.58095904940486,1027.4009293555298,0,40.689303,-73.991816,0.07,19:24:48,
2024-03-25T15:24:48,-3.2045876670499998,1.567298803,9.582058101699998,0.03298672286269283,0.0036651914291880926,-0.03527746750593539,0.16086,0.22638000000000003,-0.4461800000000001,7.5,0,8860,8490,13382,32274,14.3489453125,218363,22.58095904940486,1027.4009293555298,0,40.689303,-73.991816,0.07,19:24:48,
2024-03-25T15:24:48,-3.2159535744,1.5840485612,9.56351372655,0.03344487179134134,0.005803219762881146,-0.03451388595818787,0.15974000000000002,0.22974,-0.44534,7.5,0,8860,8490,13382,32274,14.3489453125,218363,22.58095904940486,1027.4009293555298,0,40.689303,-73.991816,0.07,19:24:48,
2024-03-25T15:24:48,-3.22253383655,1.5661023916999999,9.53121062145,0.03481931857728687,0.0003054326190990077,-0.03802636107782646,0.16198,0.22078000000000003,-0.43862000000000007,7.5,0,8860,8490,13382,32274,14.2071484375,209009,22.50506558144746,1027.4165939754682,0,40.689303,-73.991816,0.07,19:24:48,
2024-03-25T15:24:48,-3.2506495021,1.5858431781499998,9.63051275935,0.03665191429188092,0.005803219762881146,-0.03527746750593539,0.16002000000000002,0.22694000000000003,-0.44142000000000003,7.5,0,8860,8490,13382,32274,14.2071484375,209009,22.50506558144746,1027.4165939754682,0,40.689303,-73.991816,0.07,19:24:48,
2024-03-25T15:24:48,-3.2380871834499994,1.5619149521499998,9.583254513,0.03695734691097993,0.0016798794050445422,-0.036499197982331415,0.1547,0.22218000000000004,-0.45150000000000007,7.5,0,8860,8490,13382,32274,14.2071484375,209009,22.50506558144746,1027.4165939754682,0,40.689303,-73.991816,0.07,19:24:48,
2024-03-25T15:24:48,-3.2374889777999996,1.5780665047,9.57787066215,0.039095375244672985,0.005803219762881146,-0.03756821214917795,0.16198,0.22134000000000004,-0.43946,7.5,0,8860,8490,13382,32274,14.2071484375,209009,22.50506558144746,1027.4165939754682,0,40.689303,-73.991816,0.07,19:24:48,
2024-03-25T15:24:48,-3.25364053035,1.5625131578,9.59222759775,0.03375030441044035,-0.0013744467859455349,-0.03451388595818787,0.16366000000000003,0.22722000000000003,-0.44716,7.5,0,8860,8490,13382,32274,14.31125,218076,22.589032207108392,1027.4001757026824,0,40.689303,-73.991816,0.07,19:24:48,
2024-03-25T15:24:48,-3.22492665915,1.57746829905,9.5425765288,0.038179077387375956,0.007635815477475193,-0.03329215548179184,0.16366000000000003,0.22218000000000004,-0.44464000000000004,7.5,1,8856,8488,13371,32248,14.31125,218076,22.589032207108392,1027.4001757026824,0,40.689303,-73.991816,0.07,19:24:48,
2024-03-25T15:24:48,-3.2542387359999996,1.5756736821,9.5904329808,0.03527746750593539,-0.0012217304763960308,-0.03451388595818787,0.16814,0.23506000000000002,-0.43736,7.5,1,8856,8488,13371,32248,14.31125,218076,22.589032207108392,1027.4001757026824,0,40.689301,-73.991816,0.07,19:24:49,
2024-03-25T15:24:49,-3.2321051269499996,1.5708880368999998,9.55633525875,0.038789942625573975,0.004581489286485115,-0.03420845333908886,0.15974000000000002,0.22750000000000004,-0.44520000000000004,7.5,1,8856,8488,13371,32248,14.5915234375,226100,22.657907480394936,1027.4032950719502,0,40.689301,-73.991816,0.07,19:24:49,
2024-03-25T15:24:49,-3.22253383655,1.5798611216499998,9.60060247685,0.03741549583962844,0.004123340357836604,-0.036804630601430424,0.15806,0.2247,-0.43582000000000004,7.5,1,8856,8488,13371,32248,14.5915234375,226100,22.657907480394936,1027.4032950719502,0,40.689301,-73.991816,0.07,19:24:49,
2024-03-25T15:24:49,-3.2243284535,1.5637095691,9.5425765288,0.03405573702953936,0.0019853120241435504,-0.036499197982331415,0.16450000000000004,0.22974,-0.45108000000000004,7.5,1,8855,8485,13367,32239,14.5915234375,226100,22.657907480394936,1027.4032950719502,0,40.689301,-73.991816,0.05,19:24:49,
2024-03-25T15:24:49,-3.20578407835,1.5667005973499997,9.53240703275,0.03466660226773738,0.002138028333693054,-0.03588833274413341,0.1617,0.22918000000000002,-0.4443600000000001,7.5,1,8855,8485,13367,32239,14.5915234375,226100,22.657907480394936,1027.4032950719502,0,40.689301,-73.991816,0.05,19:24:49,
2024-03-25T15:24:49,-3.2099715178999992,1.58703958945,9.579665279099999,0.03359758810089085,0.0025961772623415654,-0.03451388595818787,0.1603,0.22218000000000004,-0.44366,7.5,1,8855,8485,13367,32239,14.508515625,214273,22.569923200371043,1027.4275212962439,0,40.689305,-73.99182,0.05,19:24:50,
2024-03-25T15:24:50,-3.2333015382499997,1.5684952143,9.561120903949998,0.03741549583962844,0.0007635815477475193,-0.03512475119638588,0.16534000000000001,0.22694000000000003,-0.4461800000000001,7.5,1,8855,8485,13370,32237,14.620625,223964,22.62338683949718,1027.4087361103122,0,40.689305,-73.99182,0.05,19:24:50,
2024-03-25T15:24:50,-3.2488548851499996,1.5840485612,9.53838908925,0.030085112981252257,0.00045814892864851157,-0.03695734691097993,0.15862,0.22750000000000004,-0.43918000000000007,7.5,1,8855,8485,13370,32237,14.620625,223964,22.62338683949718,1027.4087361103122,0,40.689305,-73.99182,0.05,19:24:50,
2024-03-25T15:24:50,-3.2386853890999996,1.5732808595,9.5641119322,0.03313943917224234,-0.004123340357836604,-0.03665191429188092,0.16282000000000002,0.22806000000000004,-0.45276000000000005,7.5,1,8855,8485,13370,32237,14.620625,223964,22.62338683949718,1027.4087361103122,0,40.689305,-73.99182,1.13,19:24:50,
2024-03-25T15:24:50,-3.2350961551999995,1.5762718877499997,9.5928258034,0.03787364476827696,-0.0003054326190990077,-0.038637226316024474,0.16702,0.23338000000000003,-0.45108000000000004,7.5,1,8855,8485,13370,32237,14.620625,223964,22.62338683949718,1027.4087361103122,0,40.689305,-73.99182,1.13,19:24:50,
2024-03-25T15:24:50,-3.2243284535,1.5780665047,9.549754996599999,0.03512475119638588,0.0015271630954950385,-0.03695734691097993,0.16478000000000004,0.22498,-0.44688000000000005,7.5,1,8855,8485,13370,32237,14.43625,210735,22.544817348049946,1027.4313486993976,0,40.689308,-73.991823,1.13,19:24:51,
2024-03-25T15:24:51,-3.2470602682,1.5834503555499997,9.5928258034,0.03436116964863837,0.0016798794050445422,-0.03375030441044035,0.16506,0.23394000000000004,-0.43064,7.5,0,8857,8489,13378,32273,14.501484375,222164,22.605767937255337,1027.4033519828201,0,40.689308,-73.991823,1.13,19:24:51,
2024-03-25T15:24:51,-3.3529426682499994,1.5601203352,9.511469835,0.0355829001250344,0.006414085001079162,-0.036193765363232405,0.1547,0.22834000000000004,-0.4333000000000001,7.5,0,8857,8489,13378,32273,14.501484375,222164,22.605767937255337,1027.4033519828201,0,40.689308,-73.991823,1.13,19:24:51,
2024-03-25T15:24:51,-3.24406923995,1.5702898312499998,9.608977355949998,0.03512475119638588,-0.0024434609527920616,-0.04016438941151951,0.16450000000000004,0.22974,-0.44744000000000006,7.5,0,8857,8489,13378,32273,14.501484375,222164,22.605767937255337,1027.4033519828201,0,40.689308,-73.991823,1.17,19:24:51,
2024-03-25T15:24:51,-3.2560333529499994,1.5744772707999999,9.5641119322,0.038637226316024474,0.003207042500539581,-0.03695734691097993,0.16758,0.23366000000000003,-0.44100000000000006,7.5,0,8857,8489,13378,32273,14.501484375,222164,22.605767937255337,1027.4033519828201,0,40.689308,-73.991823,1.17,19:24:51,
2024-03-25T15:24:51,-3.2303105099999994,1.5714862425499996,9.602995299449999,0.03634648167278191,0.0013744467859455349,-0.03787364476827696,0.15918000000000002,0.2233,-0.44744000000000006,7.5,0,8857,8489,13378,32273,14.333125,210201,22.538568338410133,1027.4284539336918,0,40.689315,-73.991825,1.17,19:24:52,
2024-03-25T15:24:52,-3.2219356309,1.5882360007499998,9.562915520899999,0.03543018381548489,0.0006108652381980154,-0.03390302071998985,0.16254000000000002,0.22190000000000004,-0.4578000000000001,7.5,1,8850,8481,13368,32238,14.4161328125,219955,22.600580019472858,1027.4095561645856,0,40.689315,-73.991825,1.17,19:24:52,
2024-03-25T15:24:52,-3.2177481913499997,1.5738790651499999,9.547362174,0.03436116964863837,0.0033597588100890844,-0.03634648167278191,0.17682000000000003,0.23366000000000003,-0.43848000000000004,7.5,1,8850,8481,13368,32238,14.4161328125,219955,22.600580019472858,1027.4095561645856,0,40.689315,-73.991825,1.17,19:24:52,
2024-03-25T15:24:52,-3.20698048965,1.5547364843499998,9.567701166099999,0.038179077387375956,0.002901609881440573,-0.03405573702953936,0.16562000000000002,0.22246000000000002,-0.4467400000000001,7.5,1,8850,8481,13368,32238,14.4161328125,219955,22.600580019472858,1027.4095561645856,0,40.689315,-73.991825,0.57,19:24:52,
2024-03-25T15:24:52,-3.2464620625499996,1.5732808595,9.560522698299998,0.037110063220529434,0.0022907446432425577,-0.03756821214917795,0.16338000000000003,0.22498,-0.44142000000000003,7.5,1,8850,8481,13368,32238,14.4161328125,219955,22.600580019472858,1027.4095561645856,0,40.689315,-73.991825,0.57,19:24:52,
2024-03-25T15:24:52,-3.22014101395,1.5655041860499999,9.553942436149999,0.0357356164345839,0.004581489286485115,-0.03130684345764829,0.15946000000000002,0.22918000000000002,-0.45304,7.5,1,8850,8481,13368,32238,14.2606640625,207701,22.544536820964826,1027.4336443542652,0,40.689318,-73.991823,0.57,19:24:53,
2024-03-25T15:24:53,-3.24167641735,1.5702898312499998,9.59222759775,0.03222314131494531,0.0036651914291880926,-0.03543018381548489,0.16086,0.23702,-0.43008,7.5,1,8848,8479,13364,32230,14.3536328125,219955,22.607146301996018,1027.4158735852375,0,40.689318,-73.991823,0.57,19:24:53,
2024-03-25T15:24:53,-3.2285158930499995,1.5661023916999999,9.56949578305,0.03420845333908886,0.0019853120241435504,-0.03741549583962844,0.15722000000000003,0.21938000000000002,-0.44492000000000004,7.5,1,8848,8479,13364,32230,14.3536328125,219955,22.607146301996018,1027.4158735852375,0,40.689318,-73.991823,0.57,19:24:53,
2024-03-25T15:24:53,-3.22492665915,1.6043875532999998,9.558728081349999,0.039095375244672985,0.003207042500539581,-0.0357356164345839,0.15246,0.22890000000000005,-0.44464000000000004,7.5,1,8848,8479,13364,32230,14.3536328125,219955,22.607146301996018,1027.4158735852375,0,40.689318,-73.991823,0.57,19:24:53,
2024-03-25T15:24:53,-3.0729824240499997,1.5702898312499998,9.60060247685,0.03512475119638588,0.0033597588100890844,-0.03726277953007894,0.16086,0.22666000000000003,-0.44450000000000006,7.5,1,8848,8479,13364,32230,14.3536328125,219955,22.607146301996018,1027.4158735852375,0,40.689318,-73.991823,0.57,19:24:53,
2024-03-25T15:24:53,-3.2219356309,1.5810575329499996,9.593424009049999,0.036499197982331415,0.006261368691529657,-0.03375030441044035,0.15834,0.23562000000000002,-0.43708,7.5,1,8848,8479,13364,32230,14.2102734375,209009,22.546664716859674,1027.4306436950228,0,40.689318,-73.991823,0.57,19:24:53,
2024-03-25T15:24:53,-3.2374889777999996,1.5613167465000002,9.551549613549998,0.038484510006474966,0.004886921905584123,-0.03390302071998985,0.15694000000000002,0.23002,-0.43820000000000003,7.5,1,8848,8479,13364,32230,14.2102734375,209009,22.546664716859674,1027.4306436950228,0,40.689318,-73.991823,0.57,19:24:53,
2024-03-25T15:24:53,-3.23090871565,1.5649059803999998,9.57906707345,0.03466660226773738,0.0070249502392771765,-0.03329215548179184,0.1617,0.23198000000000002,-0.43708,7.5,0,8846,8477,13364,32231,14.2102734375,209009,22.546664716859674,1027.4306436950228,0,40.689318,-73.991823,0.57,19:24:53,
2024-03-25T15:24:53,-3.2530423247,1.5684952143,9.576076045199999,0.03481931857728687,-0.001069014166846527,-0.0357356164345839,0.15750000000000003,0.22582000000000002,-0.44338000000000005,7.5,0,8846,8477,13364,32231,14.2102734375,209009,22.546664716859674,1027.4306436950228,0,40.689318,-73.991823,0.57,19:24:53,
2024-03-25T15:24:53,-3.2374889777999996,1.5708880368999998,9.53838908925,0.03665191429188092,0.0006108652381980154,-0.03222314131494531,0.16282000000000002,0.22610000000000002,-0.44366,7.5,0,8846,8477,13364,32231,14.313984375,218651,22.604739049234805,1027.4118128848838,0,40.689318,-73.991823,0.55,19:24:53,
2024-03-25T15:24:53,-3.22612307045,1.5756736821,9.580861690399999,0.031154127148098783,0.002138028333693054,-0.03726277953007894,0.16758,0.23002,-0.44156000000000006,7.5,0,8846,8477,13364,32231,14.313984375,218651,22.604739049234805,1027.4118128848838,0,40.689318,-73.991823,0.55,19:24:53,
