Timestamp,Accel_X,Accel_Y,Accel_Z,Gyro_X,Gyro_Y,Gyro_Z,Mag_X,Mag_Y,Mag_Z,LSM9DS1_Temp,Proximity,Color_R,Color_G,Color_B,Color_C,BME680_Temp,Gas,Humidity,Pressure,Switch_Pressed,GPS_Latitude,GPS_Longitude,GPS_Speed,GPS_Timestamp,Pad_press
2024-03-25T15:21:57,-3.2333015382499997,1.5816557385999996,9.55035320225,0.03252857393404432,0.007177666548826681,-0.03527746750593539,0.15330000000000002,0.22358,-0.43596,7.5,1,0,0,0,0,33.574921875,1446945,100,695.662002676745,0,,,,N/A,
2024-03-25T15:21:57,-3.2147571630999994,1.5810575329499996,9.560522698299998,0.036804630601430424,0.0036651914291880926,-0.03436116964863837,0.15554,0.23058,-0.43904000000000004,7.5,1,0,0,0,0,33.574921875,1446945,100,695.662002676745,0,,,,N/A,
2024-03-25T15:21:57,-3.212962546149999,1.6031911419999998,9.53360344405,0.03466660226773738,0.00045814892864851157,-0.03420845333908886,0.15442000000000003,0.22302000000000002,-0.44856000000000007,7.5,0,9113,8731,13714,33049,33.574921875,1446945,100,695.662002676745,0,40.689235,-73.991728,0.4,19:21:32,
2024-03-25T15:21:57,-3.22133742525,1.5457633995999998,9.5389872949,0.039400807863771994,0.006108652381980154,-0.0357356164345839,0.15806,0.22414,-0.4473000000000001,7.5,0,9113,8731,13714,33049,33.574921875,1446945,100,695.662002676745,0,40.689235,-73.991728,0.4,19:21:32,
2024-03-25T15:21:57,-3.212962546149999,1.5667005973499997,9.549156790949999,0.03313943917224234,0.006566801310628666,-0.03207042500539581,0.16478000000000004,0.22358,-0.44982000000000005,7.5,0,9113,8731,13714,33049,12.9130078125,112126,23.365120985736837,1027.496521752862,0,40.689236,-73.99173,0.4,19:21:33,
2024-03-25T15:21:57,-3.2488548851499996,1.5948162628999998,9.567102960449999,0.0355829001250344,0.0024434609527920616,-0.03604104905368291,0.15638000000000002,0.22106000000000003,-0.43960000000000005,7.5,0,9113,8731,13714,33049,12.9130078125,112126,23.365120985736837,1027.496521752862,0,40.689236,-73.99173,0.4,19:21:33,
2024-03-25T15:21:57,-3.2338997439,1.5816557385999996,9.56829937175,0.036193765363232405,0.00473420559603462,-0.038637226316024474,0.15386000000000002,0.21882000000000001,-0.43442000000000003,7.5,0,9113,8731,13714,33049,12.9130078125,112126,23.365120985736837,1027.496521752862,0,40.689236,-73.99173,0.4,19:21:33,
2024-03-25T15:21:58,-3.2135607518,1.5655041860499999,9.557531670049999,0.03741549583962844,0.0025961772623415654,-0.03665191429188092,0.14994000000000002,0.21602000000000002,-0.43050000000000005,7.5,0,9113,8731,13714,33049,12.9130078125,112126,23.365120985736837,1027.496521752862,0,40.689236,-73.99173,0.4,19:21:33,
2024-03-25T15:21:58,-3.22373024785,1.5804593272999998,9.551549613549998,0.03756821214917795,0.00045814892864851157,-0.03695734691097993,0.15442000000000003,0.22274000000000002,-0.43876000000000004,7.5,0,9113,8731,13714,33049,13.1473828125,118255,23.436822980636105,1027.470831359277,0,40.689236,-73.99173,0.4,19:21:33,
2024-03-25T15:21:58,-3.24287282865,1.56071854085,9.606584533349999,0.03512475119638588,0.002901609881440573,-0.037110063220529434,0.15722000000000003,0.22638000000000003,-0.4389,7.5,0,9113,8731,13714,33049,13.1473828125,118255,23.436822980636105,1027.470831359277,0,40.689236,-73.99173,0.4,19:21:33,
2024-03-25T15:21:58,-3.2081769009499994,1.5864413838,9.556933464399998,0.037110063220529434,0.0018325957145940463,-0.03695734691097993,0.16142,0.22526000000000002,-0.43960000000000005,7.5,0,9113,8731,13714,33049,13.1473828125,118255,23.436822980636105,1027.470831359277,0,40.689236,-73.99173,0.4,19:21:33,
2024-03-25T15:21:58,-3.2291140986999998,1.5744772707999999,9.57308501695,0.036499197982331415,0.0024434609527920616,-0.03420845333908886,0.15722000000000003,0.22358,-0.42896000000000006,7.5,0,9113,8731,13714,33049,13.1473828125,118255,23.436822980636105,1027.470831359277,0,40.689236,-73.99173,0.4,19:21:33,
2024-03-25T15:21:58,-3.2458638569,1.5900306176999999,9.53838908925,0.036193765363232405,0.00473420559603462,-0.03772092845872745,0.15582000000000001,0.22386,-0.43386,7.5,0,9113,8731,13714,33049,13.5423046875,126121,23.5082257130156,1027.4527882376274,0,40.689236,-73.99173,0.4,19:21:33,
2024-03-25T15:21:58,-3.2303105099999994,1.5768700934,9.5545406418,0.03634648167278191,0.0027488935718910697,-0.031154127148098783,0.15050000000000002,0.23002,-0.44254000000000004,7.5,0,9113,8731,13714,33049,13.5423046875,126121,23.5082257130156,1027.4527882376274,0,40.689236,-73.99173,0.29,19:21:33,
2024-03-25T15:21:58,-3.2285158930499995,1.5834503555499997,9.56590654915,0.03543018381548489,0.002138028333693054,-0.03466660226773738,0.16086,0.22946,-0.43918000000000007,7.5,0,9113,8731,13714,33049,13.5423046875,126121,23.5082257130156,1027.4527882376274,0,40.689236,-73.99173,0.29,19:21:33,
2024-03-25T15:21:58,-3.2075786952999996,1.5684952143,9.5856473356,0.03344487179134134,0.00473420559603462,-0.03405573702953936,0.15918000000000002,0.22694000000000003,-0.43456000000000006,7.5,0,9113,8731,13714,33049,13.5423046875,126121,23.5082257130156,1027.4527882376274,0,40.689236,-73.991733,0.29,19:21:34,
2024-03-25T15:21:58,-3.2231320422,1.56311136345,9.55633525875,0.036804630601430424,0.003054326190990077,-0.03726277953007894,0.15386000000000002,0.22526000000000002,-0.42896000000000006,7.5,0,9113,8731,13714,33049,13.9815625,133189,23.577411877201822,1027.4513432880394,0,40.689236,-73.991733,0.29,19:21:34,
2024-03-25T15:21:58,-3.190828937099999,1.5637095691,9.558728081349999,0.03588833274413341,0.004276056667386108,-0.03466660226773738,0.15638000000000002,0.2247,-0.43162000000000006,7.5,0,9115,8734,13716,33045,13.9815625,133189,23.577411877201822,1027.4513432880394,0,40.689236,-73.991733,0.29,19:21:34,
2024-03-25T15:21:58,-3.22133742525,1.57746829905,9.53360344405,0.03252857393404432,0.007635815477475193,-0.03283400655314333,0.15750000000000003,0.22722000000000003,-0.4354,7.5,0,9115,8734,13716,33045,13.9815625,133189,23.577411877201822,1027.4513432880394,0,40.689236,-73.991733,0.3,19:21:34,
2024-03-25T15:21:58,-3.21176613485,1.5834503555499997,9.5389872949,0.03588833274413341,0.00595593607243065,-0.03359758810089085,0.15582000000000001,0.22806000000000004,-0.4403000000000001,7.5,0,9115,8734,13716,33045,14.4040234375,140860,23.6301058055928,1027.4573878838255,0,40.689236,-73.991733,0.3,19:21:34,
2024-03-25T15:21:58,-3.21655178005,1.567298803,9.551549613549998,0.0357356164345839,0.002901609881440573,-0.03787364476827696,0.16058,0.23114,-0.42882000000000003,7.5,0,9115,8734,13716,33045,14.4040234375,140860,23.6301058055928,1027.4573878838255,0,40.689236,-73.991733,0.3,19:21:35,
2024-03-25T15:21:58,-3.2207392195999995,1.5649059803999998,9.6263253198,0.03741549583962844,0.004123340357836604,-0.0357356164345839,0.16422000000000003,0.23170000000000002,-0.43036,7.5,0,9115,8734,13716,33045,14.4040234375,140860,23.6301058055928,1027.4573878838255,0,40.689236,-73.991733,0.3,19:21:35,
2024-03-25T15:21:58,-3.2039894614,1.56071854085,9.553344230499999,0.03634648167278191,-0.0003054326190990077,-0.03543018381548489,0.15694000000000002,0.23170000000000002,-0.44842000000000004,7.5,0,9115,8734,13716,33045,14.4040234375,140860,23.6301058055928,1027.4573878838255,0,40.689236,-73.991733,0.3,19:21:35,
2024-03-25T15:21:58,-3.24287282865,1.5972090855,9.49771110505,0.03497203488683638,0.00473420559603462,-0.03604104905368291,0.15442000000000003,0.22946,-0.42938000000000004,7.5,0,9115,8734,13716,33045,14.78703125,146484,23.680487908446878,1027.4677532277547,0,40.689236,-73.991733,0.55,19:21:35,
2024-03-25T15:21:58,-3.2350961551999995,1.57268265385,9.531808827099999,0.03344487179134134,0.0024434609527920616,-0.03222314131494531,0.16534000000000001,0.23114,-0.44492000000000004,7.5,0,9115,8734,13716,33045,14.78703125,146484,23.680487908446878,1027.4677532277547,0,40.689236,-73.991733,0.55,19:21:35,
2024-03-25T15:21:58,-3.2081769009499994,1.57746829905,9.54676396835,0.03466660226773738,0.005803219762881146,-0.03604104905368291,0.16646,0.23086,-0.44114000000000003,7.5,0,9115,8734,13716,33045,14.78703125,146484,23.680487908446878,1027.4677532277547,0,40.689238,-73.991735,0.55,19:21:36,
2024-03-25T15:21:58,-3.2177481913499997,1.57746829905,9.571290399999999,0.036804630601430424,0.0024434609527920616,-0.03329215548179184,0.15834,0.22918000000000002,-0.4368000000000001,7.5,0,9115,8734,13716,33045,15.12453125,152301,23.7124224759882,1027.4706515749867,0,40.689238,-73.991735,0.55,19:21:36,
2024-03-25T15:21:59,-3.2350961551999995,1.5559328956499998,9.543174734449998,0.0355829001250344,0.007177666548826681,-0.03665191429188092,0.16674,0.22974,-0.44450000000000006,7.5,0,9115,8734,13716,33045,15.12453125,152301,23.7124224759882,1027.4706515749867,0,40.689238,-73.991735,0.55,19:21:36,
2024-03-25T15:21:59,-3.24167641735,1.5912270289999997,9.5688975774,0.04153883619746505,0.0003054326190990077,-0.03802636107782646,0.16310000000000002,0.23674,-0.4491200000000001,7.5,0,9115,8734,13716,33045,15.12453125,152301,23.7124224759882,1027.4706515749867,0,40.689238,-73.991735,0.77,19:21:36,
2024-03-25T15:21:59,-3.24526565125,1.56311136345,9.556933464399998,0.03313943917224234,0.0044287729769356115,-0.03481931857728687,0.16366000000000003,0.22554000000000002,-0.44352,7.5,0,9115,8734,13716,33045,15.12453125,152301,23.7124224759882,1027.4706515749867,0,40.689238,-73.991735,0.77,19:21:36,
2024-03-25T15:21:59,-3.2177481913499997,1.5786647103499998,9.558728081349999,0.036193765363232405,0.0018325957145940463,-0.036804630601430424,0.1547,0.22358,-0.42168000000000005,7.5,0,9115,8734,13716,33045,15.416328125,158302,23.725817888637053,1027.4641923998686,0,40.689236,-73.991735,0.77,19:21:37,
2024-03-25T15:21:59,-3.22373024785,1.5732808595,9.5724868113,0.036499197982331415,0.0054977871437821395,-0.03436116964863837,0.15274000000000001,0.22946,-0.43862000000000007,7.5,0,9111,8732,13713,33028,15.416328125,158302,23.725817888637053,1027.4641923998686,0,40.689236,-73.991735,0.77,19:21:37,
2024-03-25T15:21:59,-3.23090871565,1.5816557385999996,9.628718142399999,0.03543018381548489,0.007330382858376185,-0.03588833274413341,0.15582000000000001,0.22610000000000002,-0.44212000000000007,7.5,0,9111,8732,13713,33028,15.416328125,158302,23.725817888637053,1027.4641923998686,0,40.689236,-73.991735,0.77,19:21:37,
2024-03-25T15:21:59,-3.212962546149999,1.5684952143,9.574879633899998,0.03313943917224234,0.005803219762881146,-0.03497203488683638,0.16226000000000002,0.22722000000000003,-0.44212000000000007,7.5,0,9111,8732,13713,33028,15.416328125,158302,23.725817888637053,1027.4641923998686,0,40.689236,-73.991735,0.96,19:21:37,
2024-03-25T15:21:59,-3.2267212760999997,1.5978072911499999,9.574879633899998,0.03207042500539581,0.00473420559603462,-0.03451388595818787,0.15666000000000002,0.22750000000000004,-0.4432400000000001,7.5,0,9111,8732,13713,33028,15.6675,162416,23.736665109328026,1027.4746853488743,0,40.689236,-73.991735,0.96,19:21:37,
2024-03-25T15:21:59,-3.2291140986999998,1.5792629159999998,9.56949578305,0.0316122760767473,0.0024434609527920616,-0.03375030441044035,0.15946000000000002,0.23534000000000002,-0.43750000000000006,7.5,0,9111,8732,13713,33028,15.6675,162416,23.736665109328026,1027.4746853488743,0,40.689233,-73.991735,0.96,19:21:38,
2024-03-25T15:21:59,-3.2123643404999997,1.5565311012999998,9.51685368585,0.03527746750593539,0.005803219762881146,-0.03466660226773738,0.15974000000000002,0.23282000000000003,-0.43624000000000007,7.5,0,9111,8732,13713,33028,15.6675,162416,23.736665109328026,1027.4746853488743,0,40.689233,-73.991735,0.96,19:21:38,
2024-03-25T15:21:59,-3.212962546149999,1.58703958945,9.5330052384,0.03512475119638588,0.007941248096574201,-0.03741549583962844,0.16870000000000002,0.22554000000000002,-0.45248,7.5,0,9111,8732,13713,33028,15.6675,162416,23.736665109328026,1027.4746853488743,0,40.689233,-73.991735,0.96,19:21:38,
2024-03-25T15:21:59,-3.2207392195999995,1.52841543575,9.5545406418,0.03237585762449482,0.005039638215133627,-0.03283400655314333,0.15862,0.22694000000000003,-0.43050000000000005,7.5,0,9111,8732,13713,33028,15.87921875,166420,23.750261726201195,1027.477924854779,0,40.689233,-73.991735,0.96,19:21:38,
2024-03-25T15:21:59,-3.20578407835,1.5876377951,9.6035935051,0.03726277953007894,0.003054326190990077,-0.03237585762449482,0.15806,0.23114,-0.4478600000000001,7.5,0,9111,8732,13713,33028,15.87921875,166420,23.750261726201195,1027.477924854779,0,40.689233,-73.991735,0.96,19:21:38,
2024-03-25T15:21:59,-3.2297123043499996,1.5840485612,9.59581683165,0.037110063220529434,0.003970624048287101,-0.0006108652381980154,0.15862,0.23394000000000004,-0.42938000000000004,7.5,0,9111,8732,13713,33028,15.87921875,166420,23.750261726201195,1027.477924854779,0,40.689233,-73.991735,0.96,19:21:38,
2024-03-25T15:21:59,-3.2243284535,1.57268265385,9.56351372655,0.03436116964863837,0.0054977871437821395,-0.03512475119638588,0.16142,0.22890000000000005,-0.4354,7.5,0,9111,8732,13713,33028,16.0606640625,171668,23.75669490884076,1027.473720116801,0,40.689233,-73.991735,0.96,19:21:38,
2024-03-25T15:21:59,-3.20219484445,1.5864413838,9.558728081349999,0.03634648167278191,0.005803219762881146,-0.036499197982331415,0.16058,0.22862000000000005,-0.44226000000000004,7.5,0,9111,8732,13713,33028,16.0606640625,171668,23.75669490884076,1027.473720116801,0,40.689233,-73.991735,0.96,19:21:38,
2024-03-25T15:21:59,-3.2051858726999995,1.5756736821,9.5724868113,0.0357356164345839,0.001069014166846527,-0.037110063220529434,0.1617,0.23002,-0.4426800000000001,7.5,0,9111,8732,13713,33028,16.0606640625,171668,23.75669490884076,1027.473720116801,0,40.689233,-73.991735,0.96,19:21:38,
2024-03-25T15:21:59,-3.2297123043499996,1.5649059803999998,9.511469835,0.03283400655314333,0.0024434609527920616,-0.037110063220529434,0.16282000000000002,0.23338000000000003,-0.4403000000000001,7.5,0,9111,8732,13713,33028,16.0606640625,171668,23.75669490884076,1027.473720116801,0,40.689233,-73.991735,0.35,19:21:38,
2024-03-25T15:21:59,-3.2087751065999996,1.5798611216499998,9.39123049935,0.03527746750593539,0.002901609881440573,-0.0357356164345839,0.16310000000000002,0.22750000000000004,-0.44898000000000005,7.5,0,9111,8732,13713,33028,16.21515625,174329,23.74566640400269,1027.478292161819,0,40.689233,-73.991735,0.35,19:21:38,
2024-03-25T15:21:59,-3.2243284535,1.5858431781499998,9.5653083435,0.03726277953007894,0.0003054326190990077,-0.038179077387375956,0.15918000000000002,0.22442,-0.43722000000000005,7.5,1,9106,8727,13706,33016,16.21515625,174329,23.74566640400269,1027.478292161819,0,40.689231,-73.991735,0.35,19:21:39,
2024-03-25T15:21:59,-3.2015966387999995,1.5643077747499998,9.585049129949999,0.031459559767197796,0.0038179077387375964,-0.03512475119638588,0.15918000000000002,0.22078000000000003,-0.42308000000000007,7.5,1,9106,8727,13706,33016,16.21515625,174329,23.74566640400269,1027.478292161819,0,40.689231,-73.991735,0.35,19:21:39,
2024-03-25T15:21:59,-3.23090871565,1.567298803,9.57667425085,0.038789942625573975,-0.001069014166846527,-0.037110063220529434,0.15974000000000002,0.22582000000000002,-0.43876000000000004,7.5,1,9106,8727,13706,33016,16.21515625,174329,23.74566640400269,1027.478292161819,0,40.689231,-73.991735,0.35,19:21:39,
2024-03-25T15:22:00,-3.2027930501,1.5505490447999999,9.59581683165,0.03772092845872745,0.004886921905584123,-0.03756821214917795,0.15834,0.22582000000000002,-0.43400000000000005,7.5,1,9106,8727,13706,33016,16.3477734375,178571,23.7332323134009,1027.4791935514068,0,40.689231,-73.991735,0.51,19:21:39,
2024-03-25T15:22:00,-3.2315069213,1.55354007305,9.560522698299998,0.038942658935123484,0.0012217304763960308,-0.0355829001250344,0.16870000000000002,0.22862000000000005,-0.43386,7.5,1,9106,8727,13706,33016,16.3477734375,178571,23.7332323134009,1027.4791935514068,0,40.689231,-73.991735,0.51,19:21:39,
2024-03-25T15:22:00,-3.2321051269499996,1.56789700865,9.574879633899998,0.031001410838549282,-0.0003054326190990077,-0.037110063220529434,0.15666000000000002,0.23058,-0.43582000000000004,7.5,1,9106,8727,13706,33016,16.3477734375,178571,23.7332323134009,1027.4791935514068,0,40.689231,-73.991736,0.51,19:21:40,
2024-03-25T15:22:00,-3.2380871834499994,1.5589239239,9.571290399999999,0.03665191429188092,0.004886921905584123,-0.0357356164345839,0.1589,0.23086,-0.43722000000000005,7.5,1,9106,8727,13706,33016,16.3477734375,178571,23.7332323134009,1027.4791935514068,0,40.689231,-73.991736,0.51,19:21:40,
2024-03-25T15:22:00,-3.2111679291999993,1.5876377951,9.57787066215,0.0357356164345839,0.004886921905584123,-0.039095375244672985,0.15554,0.22218000000000004,-0.43498000000000003,7.5,1,9106,8727,13706,33016,16.4606640625,180675,23.735274542485232,1027.4783326422123,0,40.689231,-73.991736,0.51,19:21:40,
2024-03-25T15:22:00,-3.2494530907999994,1.57746829905,9.46540799995,0.03787364476827696,0.004276056667386108,-0.03497203488683638,0.16506,0.23058,-0.43470000000000003,7.5,1,9106,8727,13706,33016,16.4606640625,180675,23.735274542485232,1027.4783326422123,0,40.689231,-73.991736,0.5,19:21:40,
2024-03-25T15:22:00,-3.23090871565,1.5834503555499997,9.587441952549998,0.036499197982331415,0.003054326190990077,-0.03375030441044035,0.16086,0.23114,-0.45066,7.5,1,9106,8727,13706,33016,16.4606640625,180675,23.735274542485232,1027.4783326422123,0,40.689231,-73.991736,0.5,19:21:40,
2024-03-25T15:22:00,-3.2297123043499996,1.5876377951,9.55633525875,0.04001167310197001,0.0009162978572970231,-0.03756821214917795,0.1617,0.22302000000000002,-0.43582000000000004,7.5,1,9106,8727,13706,33016,16.4606640625,180675,23.735274542485232,1027.4783326422123,0,40.68923,-73.991738,0.5,19:21:41,
2024-03-25T15:22:00,-3.2368907721499993,1.5565311012999998,9.5724868113,0.03375030441044035,0.004123340357836604,-0.0355829001250344,0.16058,0.22582000000000002,-0.4424,7.5,1,9106,8727,13706,33016,16.556953125,182432,23.71000197934992,1027.4757430943014,0,40.68923,-73.991738,0.5,19:21:41,
2024-03-25T15:22:00,-3.1878379088499997,1.5798611216499998,9.59222759775,0.03451388595818787,0.003970624048287101,-0.03543018381548489,0.15414000000000003,0.22666000000000003,-0.43652,7.5,1,9106,8727,13706,33016,16.556953125,182432,23.71000197934992,1027.4757430943014,0,40.68923,-73.991738,0.5,19:21:41,
2024-03-25T15:22:00,-3.2315069213,1.5810575329499996,9.57188860565,0.03420845333908886,0.0015271630954950385,-0.03726277953007894,0.16870000000000002,0.23898000000000003,-0.43288000000000004,7.5,1,9106,8727,13706,33016,16.556953125,182432,23.71000197934992,1027.4757430943014,0,40.68923,-73.991738,0.32,19:21:41,
2024-03-25T15:22:00,-3.2524441190499997,1.5619149521499998,9.567701166099999,0.036193765363232405,0.0016798794050445422,-0.03252857393404432,0.15778,0.2303,-0.44996,7.5,1,9106,8727,13706,33016,16.556953125,182432,23.71000197934992,1027.4757430943014,0,40.68923,-73.991738,0.32,19:21:41,
2024-03-25T15:22:00,-3.2410782117,1.57268265385,9.559326287,0.038484510006474966,0.0068722339297276735,-0.036499197982331415,0.16394000000000003,0.21938000000000002,-0.43288000000000004,7.5,1,9106,8727,13706,33016,16.64015625,185520,23.69963190561727,1027.4773835022947,0,40.689231,-73.991743,0.32,19:21:42,
2024-03-25T15:22:00,-3.2111679291999993,1.5565311012999998,9.567701166099999,0.03726277953007894,0.0035124751196385882,-0.038179077387375956,0.15078,0.23450000000000004,-0.42938000000000004,7.5,0,9106,8728,13703,33002,16.64015625,185520,23.69963190561727,1027.4773835022947,0,40.689231,-73.991743,0.32,19:21:42,
2024-03-25T15:22:00,-3.22253383655,1.5816557385999996,9.558728081349999,0.03512475119638588,0.0025961772623415654,-0.03665191429188092,0.15330000000000002,0.22918000000000002,-0.43372000000000005,7.5,0,9106,8728,13703,33002,16.64015625,185520,23.69963190561727,1027.4773835022947,0,40.689231,-73.991743,0.32,19:21:42,
2024-03-25T15:22:00,-3.2171499857,1.5756736821,9.557531670049999,0.03329215548179184,0.007330382858376185,-0.04001167310197001,0.1547,0.23534000000000002,-0.42812000000000006,7.5,0,9106,8728,13703,33002,16.64015625,185520,23.69963190561727,1027.4773835022947,0,40.689231,-73.991743,0.36,19:21:42,
2024-03-25T15:22:00,-3.2362925664999995,1.5655041860499999,9.5437729401,0.038179077387375956,0.0018325957145940463,-0.038331793696925465,0.15498,0.23114,-0.43190000000000006,7.5,0,9106,8728,13703,33002,16.7130078125,187937,23.683343999090546,1027.4790959008064,0,40.689231,-73.991743,0.36,19:21:42,
2024-03-25T15:22:00,-3.2105697235499995,1.5547364843499998,9.567701166099999,0.038484510006474966,0.0018325957145940463,-0.03802636107782646,0.15218,0.23254000000000002,-0.4277,7.5,0,9106,8728,13703,33002,16.7130078125,187937,23.683343999090546,1027.4790959008064,0,40.68923,-73.991743,0.36,19:21:43,
2024-03-25T15:22:00,-3.24287282865,1.58464676685,9.567102960449999,0.038331793696925465,0.0022907446432425577,-0.03695734691097993,0.15386000000000002,0.23226000000000002,-0.42896000000000006,7.5,0,9106,8728,13703,33002,16.7130078125,187937,23.683343999090546,1027.4790959008064,0,40.68923,-73.991743,0.36,19:21:43,
2024-03-25T15:22:00,-3.20698048965,1.5978072911499999,9.49651469375,0.03741549583962844,0.0054977871437821395,-0.03436116964863837,0.16646,0.22890000000000005,-0.42826000000000003,7.5,0,9106,8728,13703,33002,16.7130078125,187937,23.683343999090546,1027.4790959008064,0,40.68923,-73.991743,0.36,19:21:43,
2024-03-25T15:22:00,-3.2333015382499997,1.5762718877499997,9.61495941245,0.03451388595818787,0.0013744467859455349,-0.07773260156069746,0.16058,0.22386,-0.45052000000000003,7.5,0,9106,8728,13703,33002,16.775703125,190090,23.661150671857076,1027.4829788042825,0,40.68923,-73.991743,0.36,19:21:43,
2024-03-25T15:22:01,-3.24406923995,1.567298803,9.549156790949999,0.038484510006474966,0.00473420559603462,-0.038942658935123484,0.15638000000000002,0.23786000000000002,-0.42462000000000005,7.5,0,9106,8728,13703,33002,16.775703125,190090,23.661150671857076,1027.4829788042825,0,40.68923,-73.991743,0.36,19:21:43,
2024-03-25T15:22:01,-3.2141589574499996,1.5714862425499996,9.59462042035,0.03344487179134134,0.003207042500539581,-0.039553524173321496,0.15694000000000002,0.22162000000000004,-0.42532000000000003,7.5,0,9106,8728,13703,33002,16.775703125,190090,23.661150671857076,1027.4829788042825,0,40.68923,-73.991743,0.36,19:21:43,
2024-03-25T15:22:01,-3.2171499857,1.59182523465,9.57308501695,0.03405573702953936,0.003207042500539581,-0.03451388595818787,0.16114,0.22918000000000002,-0.44002,7.5,0,9106,8728,13703,33002,16.775703125,190090,23.661150671857076,1027.4829788042825,0,40.68923,-73.991743,0.36,19:21:43,
2024-03-25T15:22:01,-3.2189446026499997,1.5744772707999999,9.57547783955,0.03313943917224234,0.004886921905584123,-0.03497203488683638,0.15582000000000001,0.2233,-0.43988000000000005,7.5,0,9106,8728,13703,33002,16.83,191296,23.63841544035302,1027.481457160244,0,40.68923,-73.991743,0.36,19:21:43,
2024-03-25T15:22:01,-3.2494530907999994,1.5822539442499999,9.53360344405,0.03741549583962844,0.0038179077387375964,-0.03543018381548489,0.16394000000000003,0.22386,-0.43876000000000004,7.5,0,9106,8728,13703,33002,16.83,191296,23.63841544035302,1027.481457160244,0,40.68923,-73.991743,0.36,19:21:43,
2024-03-25T15:22:01,-3.23090871565,1.5577275125999999,9.5617191096,0.038789942625573975,0.0016798794050445422,-0.03665191429188092,0.1617,0.23170000000000002,-0.43414,7.5,0,9106,8728,13703,33002,16.83,191296,23.63841544035302,1027.481457160244,0,40.68923,-73.991743,0.68,19:21:43,
2024-03-25T15:22:01,-3.212962546149999,1.5978072911499999,9.5425765288,0.036499197982331415,0.0015271630954950385,-0.038942658935123484,0.16086,0.22442,-0.42714,7.5,0,9106,8728,13703,33002,16.8798046875,194434,23.599647741744384,1027.4776136880078,0,40.68923,-73.991743,0.68,19:21:43,
2024-03-25T15:22:01,-3.2063822839999996,1.5798611216499998,9.5461657627,0.03787364476827696,0.0019853120241435504,-0.03741549583962844,0.15974000000000002,0.22834000000000004,-0.4426800000000001,7.5,1,9107,8728,13707,33025,16.8798046875,194434,23.599647741744384,1027.4776136880078,0,40.689226,-73.991745,0.68,19:21:44,
2024-03-25T15:22:01,-3.212962546149999,1.57746829905,9.53719267795,0.04230241774521256,0.0025961772623415654,-0.03527746750593539,0.16366000000000003,0.22862000000000005,-0.43176000000000003,7.5,1,9107,8728,13707,33025,16.8798046875,194434,23.599647741744384,1027.4776136880078,0,40.689226,-73.991745,0.68,19:21:44,
2024-03-25T15:22:01,-3.2362925664999995,1.5858431781499998,9.53719267795,0.03497203488683638,0.0038179077387375964,-0.03481931857728687,0.15694000000000002,0.22890000000000005,-0.42574000000000006,7.5,1,9107,8728,13707,33025,16.8798046875,194434,23.599647741744384,1027.4776136880078,0,40.689226,-73.991745,0.68,19:21:44,
2024-03-25T15:22:01,-3.0675985731999997,1.5858431781499998,9.522835742349999,0.03665191429188092,0.0035124751196385882,-0.038179077387375956,0.15918000000000002,0.22358,-0.44464000000000004,7.5,1,9107,8728,13707,33025,16.9221875,195581,23.570900514819595,1027.4752994125588,0,40.689226,-73.991745,0.54,19:21:44,
2024-03-25T15:22:01,-3.1878379088499997,1.5577275125999999,9.57787066215,0.03802636107782646,0.0013744467859455349,-0.03802636107782646,0.15974000000000002,0.22974,-0.43918000000000007,7.5,1,9107,8728,13707,33025,16.9221875,195581,23.570900514819595,1027.4752994125588,0,40.689226,-73.991745,0.54,19:21:44,
2024-03-25T15:22:01,-3.2344979495499997,1.5816557385999996,9.5641119322,0.03451388595818787,0.0038179077387375964,-0.03527746750593539,0.15750000000000003,0.22890000000000005,-0.44100000000000006,7.5,1,9107,8728,13707,33025,16.9221875,195581,23.570900514819595,1027.4752994125588,0,40.689225,-73.991746,0.54,19:21:45,
2024-03-25T15:22:01,-3.22014101395,1.5708880368999998,9.557531670049999,0.03466660226773738,0.0036651914291880926,-0.03924809155422249,0.15610000000000002,0.22946,-0.43848000000000004,7.5,1,9107,8728,13707,33025,16.9221875,195581,23.570900514819595,1027.4752994125588,0,40.689225,-73.991746,0.54,19:21:45,
2024-03-25T15:22:01,-3.2141589574499996,1.5768700934,9.597611448599999,0.03756821214917795,0.0019853120241435504,-0.07788531787024697,0.15610000000000002,0.23870000000000002,-0.43428000000000005,7.5,1,9107,8728,13707,33025,16.961640625,197560,23.54721339846928,1027.4768259509751,0,40.689225,-73.991746,0.54,19:21:45,
2024-03-25T15:22:01,-3.2303105099999994,1.5756736821,9.549156790949999,0.038789942625573975,0.003207042500539581,-0.03588833274413341,0.15666000000000002,0.22694000000000003,-0.43414,7.5,1,9107,8728,13707,33025,16.961640625,197560,23.54721339846928,1027.4768259509751,0,40.689225,-73.991746,0.66,19:21:45,
2024-03-25T15:22:01,-3.19501637665,1.5595221295499997,9.57308501695,0.03756821214917795,0.004886921905584123,-0.03436116964863837,0.16310000000000002,0.22918000000000002,-0.43428000000000005,7.5,1,9107,8728,13707,33025,16.961640625,197560,23.54721339846928,1027.4768259509751,0,40.689225,-73.991746,0.66,19:21:45,
2024-03-25T15:22:01,-3.24406923995,1.6019947307,9.530014210149998,0.03604104905368291,0.0007635815477475193,-0.0319177086958463,0.15806,0.23142000000000001,-0.44184,7.5,1,9107,8728,13707,33025,16.961640625,197560,23.54721339846928,1027.4768259509751,0,40.689225,-73.991746,0.66,19:21:46,
2024-03-25T15:22:01,-3.2039894614,1.5702898312499998,9.5485585853,0.036804630601430424,0.0038179077387375964,-0.03527746750593539,0.15078,0.23254000000000002,-0.4368000000000001,7.5,1,9107,8728,13707,33025,16.99796875,198625,23.51283645085536,1027.4818658130343,0,40.689225,-73.991746,0.66,19:21:46,
2024-03-25T15:22:01,-3.2159535744,1.5798611216499998,9.58145989605,0.038179077387375956,0.003970624048287101,-0.03497203488683638,0.15694000000000002,0.23198000000000002,-0.44100000000000006,7.5,1,9107,8728,13707,33025,16.99796875,198625,23.51283645085536,1027.4818658130343,0,40.689225,-73.991746,0.66,19:21:46,
2024-03-25T15:22:01,-3.24406923995,1.5852449725,9.54197832315,0.03344487179134134,0.007635815477475193,-0.03466660226773738,0.15918000000000002,0.23226000000000002,-0.43204000000000004,7.5,1,9107,8728,13707,33025,16.99796875,198625,23.51283645085536,1027.4818658130343,0,40.689225,-73.991746,0.46,19:21:46,
2024-03-25T15:22:01,-3.2327033326,1.5732808595,9.5282195932,0.0355829001250344,0.001069014166846527,-0.036499197982331415,0.1617,0.22946,-0.43596,7.5,1,9107,8728,13707,33025,16.99796875,198625,23.51283645085536,1027.4818658130343,0,40.689225,-73.991746,0.46,19:21:46,
2024-03-25T15:22:01,-3.218346397,1.57268265385,9.5521478192,0.03665191429188092,0.0016798794050445422,-0.03604104905368291,0.1589,0.22946,-0.44534,7.5,1,9107,8728,13707,33025,17.0315625,199580,23.473045439881613,1027.4840434395112,0,40.689228,-73.991745,0.46,19:21:47,
2024-03-25T15:22:02,-3.2177481913499997,1.5643077747499998,9.4971128994,0.036193765363232405,0.00473420559603462,-0.038179077387375956,0.15778,0.22694000000000003,-0.45108000000000004,7.5,0,9113,8732,13714,33056,17.0315625,199580,23.473045439881613,1027.4840434395112,0,40.689228,-73.991745,0.46,19:21:47,
2024-03-25T15:22:02,-3.2189446026499997,1.5744772707999999,9.593424009049999,0.03237585762449482,-0.0007635815477475193,-0.036193765363232405,0.15834,0.22414,-0.43302,7.5,0,9113,8732,13714,33056,17.0315625,199580,23.473045439881613,1027.4840434395112,0,40.689228,-73.991745,0.46,19:21:47,
2024-03-25T15:22:02,-3.21176613485,1.57268265385,9.5365944723,0.037110063220529434,0.0012217304763960308,-0.036804630601430424,0.16058,0.23058,-0.4461800000000001,7.5,0,9113,8732,13714,33056,17.0315625,199580,23.473045439881613,1027.4840434395112,0,40.689228,-73.991745,0.37,19:21:47,
2024-03-25T15:22:02,-3.2476584738499996,1.5858431781499998,9.5437729401,0.03252857393404432,0.00045814892864851157,-0.03344487179134134,0.16226000000000002,0.22666000000000003,-0.43918000000000007,7.5,0,9113,8732,13714,33056,17.0628125,202999,23.443596985207602,1027.4840190209175,0,40.689228,-73.991745,0.37,19:21:47,
2024-03-25T15:22:02,-3.2147571630999994,1.5768700934,9.5365944723,0.03405573702953936,-0.0012217304763960308,-0.036193765363232405,0.16142,0.21854,-0.43694000000000005,7.5,0,9113,8732,13714,33056,17.0628125,202999,23.443596985207602,1027.4840190209175,0,40.689226,-73.991743,0.37,19:21:48,
2024-03-25T15:22:02,-3.2243284535,1.6002001137499997,9.6263253198,0.03390302071998985,0.0,-0.038484510006474966,0.16618,0.22862000000000005,-0.43624000000000007,7.5,0,9113,8732,13714,33056,17.0628125,202999,23.443596985207602,1027.4840190209175,0,40.689226,-73.991743,0.37,19:21:48,
2024-03-25T15:22:02,-3.2297123043499996,1.5744772707999999,9.552746024849998,0.03329215548179184,0.0009162978572970231,-0.03802636107782646,0.16254000000000002,0.22442,-0.43806000000000006,7.5,0,9113,8732,13714,33056,17.0628125,202999,23.443596985207602,1027.4840190209175,0,40.689226,-73.991743,0.37,19:21:48,
2024-03-25T15:22:02,-3.2255248647999997,1.5840485612,9.58624554125,0.03313943917224234,0.006261368691529657,-0.0355829001250344,0.17178000000000002,0.2303,-0.44338000000000005,7.5,0,9113,8732,13714,33056,17.0934765625,204375,23.408873430060456,1027.491798274717,0,40.689226,-73.991743,0.37,19:21:48,
2024-03-25T15:22:02,-3.22612307045,1.5882360007499998,9.544371145749999,0.03543018381548489,0.001069014166846527,-0.03634648167278191,0.16226000000000002,0.23114,-0.42448,7.5,0,9113,8732,13714,33056,17.0934765625,204375,23.408873430060456,1027.491798274717,0,40.689226,-73.991743,0.37,19:21:48,
2024-03-25T15:22:02,-3.2015966387999995,1.5834503555499997,9.56351372655,0.03695734691097993,0.005192354524683131,-0.036804630601430424,0.16618,0.22582000000000002,-0.43904000000000004,7.5,0,9113,8732,13714,33056,17.0934765625,204375,23.408873430060456,1027.491798274717,0,40.689226,-73.991743,0.37,19:21:48,
2024-03-25T15:22:02,-3.2410782117,1.5523436617499997,9.549754996599999,0.030695978219450276,0.003970624048287101,-0.03665191429188092,0.16086,0.23086,-0.4426800000000001,7.5,0,9113,8732,13714,33056,17.0934765625,204375,23.408873430060456,1027.491798274717,0,40.689226,-73.991743,0.37,19:21:48,
2024-03-25T15:22:02,-3.2344979495499997,1.5690934199499997,9.49890751635,0.03772092845872745,-0.0019853120241435504,-0.040317105721069016,0.16506,0.23002,-0.44646,7.5,0,9113,8732,13714,33056,17.1223828125,205514,23.374043354530137,1027.491328244359,0,40.689226,-73.991743,0.37,19:21:48,
2024-03-25T15:22:02,-3.2171499857,1.5762718877499997,9.56949578305,0.03130684345764829,0.003054326190990077,-0.036499197982331415,0.1603,0.22974,-0.44100000000000006,7.5,0,9113,8732,13714,33056,17.1223828125,205514,23.374043354530137,1027.491328244359,0,40.689226,-73.991743,0.37,19:21:48,
2024-03-25T15:22:02,-3.2512477077499997,1.5696916255999998,9.5617191096,0.03527746750593539,0.0009162978572970231,-0.03436116964863837,0.15526,0.23086,-0.43960000000000005,7.5,0,9113,8732,13714,33056,17.1223828125,205514,23.374043354530137,1027.491328244359,0,40.689226,-73.991743,0.44,19:21:48,
2024-03-25T15:22:02,-3.22014101395,1.56311136345,9.562915520899999,0.0357356164345839,0.003970624048287101,-0.038331793696925465,0.16450000000000004,0.22666000000000003,-0.44422,7.5,0,9113,8732,13714,33056,17.1223828125,205514,23.374043354530137,1027.491328244359,0,40.689226,-73.991743,0.44,19:21:48,
2024-03-25T15:22:02,-3.3667013982,1.58703958945,9.56590654915,0.031764992386296806,0.003970624048287101,-0.03924809155422249,0.15162,0.22414,-0.43638000000000005,7.5,1,9114,8732,13712,33041,17.1516796875,204880,23.328767172582857,1027.5003117401875,0,40.689226,-73.991745,0.44,19:21:49,
2024-03-25T15:22:02,-3.22133742525,1.5469598108999998,9.57547783955,0.03497203488683638,0.0056505034533316425,-0.036499197982331415,0.15750000000000003,0.22666000000000003,-0.42994000000000004,7.5,1,9114,8732,13712,33041,17.1516796875,204880,23.328767172582857,1027.5003117401875,0,40.689226,-73.991745,0.44,19:21:49,
2024-03-25T15:22:02,-3.2063822839999996,1.5589239239,9.547362174,0.03726277953007894,0.006261368691529657,-0.03359758810089085,0.15974000000000002,0.23198000000000002,-0.43652,7.5,1,9114,8732,13712,33041,17.1516796875,204880,23.328767172582857,1027.5003117401875,0,40.689226,-73.991745,0.44,19:21:49,
2024-03-25T15:22:02,-3.2380871834499994,1.5661023916999999,9.52881779885,0.036499197982331415,0.003207042500539581,-0.03466660226773738,0.15638000000000002,0.22750000000000004,-0.4491200000000001,7.5,1,9114,8732,13712,33041,17.1516796875,204880,23.328767172582857,1027.5003117401875,0,40.689226,-73.991745,0.28,19:21:49,
2024-03-25T15:22:02,-3.2446674455999998,1.56789700865,9.54676396835,0.03313943917224234,0.005192354524683131,-0.038789942625573975,0.16450000000000004,0.22918000000000002,-0.4438000000000001,7.5,1,9114,8732,13712,33041,17.1794140625,207441,23.309590608256883,1027.4996160982691,0,40.689226,-73.991745,0.28,19:21:49,
2024-03-25T15:22:02,-3.2470602682,1.5475580165499996,9.540781911849999,0.03436116964863837,0.0027488935718910697,-0.03756821214917795,0.15666000000000002,0.22750000000000004,-0.43526000000000004,7.5,1,9114,8732,13712,33041,17.1794140625,207441,23.309590608256883,1027.4996160982691,0,40.689225,-73.991745,0.28,19:21:50,
2024-03-25T15:22:03,-3.2344979495499997,1.57746829905,9.556933464399998,0.03497203488683638,0.0068722339297276735,-0.03268129024359383,0.15946000000000002,0.22526000000000002,-0.43288000000000004,7.5,1,9114,8732,13712,33041,17.1794140625,207441,23.309590608256883,1027.4996160982691,0,40.689225,-73.991745,0.28,19:21:50,
2024-03-25T15:22:03,-3.242274623,1.5690934199499997,9.5282195932,0.03359758810089085,0.0033597588100890844,-0.03756821214917795,0.16226000000000002,0.23002,-0.43932000000000004,7.5,1,9114,8732,13712,33041,17.1794140625,207441,23.309590608256883,1027.4996160982691,0,40.689225,-73.991745,0.28,19:21:50,
2024-03-25T15:22:03,-3.2267212760999997,1.5762718877499997,9.561120903949998,0.039553524173321496,0.004886921905584123,-0.036804630601430424,0.16422000000000003,0.23170000000000002,-0.43358,7.5,1,9114,8732,13712,33041,17.2065625,207701,23.264193172943077,1027.5084864037601,0,40.689225,-73.991745,0.77,19:21:50,
2024-03-25T15:22:03,-3.19501637665,1.5625131578,9.5413801175,0.038331793696925465,0.0033597588100890844,-0.03527746750593539,0.16422000000000003,0.23282000000000003,-0.44366,7.5,1,9114,8732,13712,33041,17.2065625,207701,23.264193172943077,1027.5084864037601,0,40.689225,-73.991745,0.77,19:21:50,
2024-03-25T15:22:03,-3.2482566795,1.58703958945,9.562317315249999,0.039095375244672985,0.0044287729769356115,-0.039858956792420505,0.16058,0.22834000000000004,-0.44296,7.5,1,9114,8732,13712,33041,17.2065625,207701,23.264193172943077,1027.5084864037601,0,40.689223,-73.991741,0.77,19:21:51,
2024-03-25T15:22:03,-3.2219356309,1.56789700865,9.5330052384,0.03741549583962844,0.0022907446432425577,-0.038484510006474966,0.16422000000000003,0.23002,-0.44716,7.5,1,9114,8732,13712,33041,17.2065625,207701,23.264193172943077,1027.5084864037601,0,40.689223,-73.991741,0.77,19:21:51,
2024-03-25T15:22:03,-3.2386853890999996,1.5876377951,9.539585500549999,0.036804630601430424,0.005803219762881146,-0.0357356164345839,0.16142,0.22750000000000004,-0.4578000000000001,7.5,1,9114,8732,13712,33041,17.23234375,209935,23.22395572799589,1027.4974483814947,0,40.689223,-73.991741,0.77,19:21:51,
2024-03-25T15:22:03,-3.1854450862499997,1.5541382787,9.5772724565,0.03726277953007894,0.002901609881440573,-0.03466660226773738,0.15694000000000002,0.22778000000000004,-0.42924000000000007,7.5,1,9114,8732,13712,33041,17.23234375,209935,23.22395572799589,1027.4974483814947,0,40.689223,-73.991741,0.8,19:21:51,
2024-03-25T15:22:03,-3.25364053035,1.5810575329499996,9.57906707345,0.038637226316024474,0.0019853120241435504,-0.03634648167278191,0.16646,0.22694000000000003,-0.4354,7.5,1,9114,8732,13712,33041,17.23234375,209935,23.22395572799589,1027.4974483814947,0,40.689223,-73.991741,0.8,19:21:51,
2024-03-25T15:22:03,-3.212962546149999,1.5637095691,9.5641119322,0.03634648167278191,0.005192354524683131,-0.03634648167278191,0.16254000000000002,0.22498,-0.42672000000000004,7.5,1,9116,8735,13717,33054,17.23234375,209935,23.22395572799589,1027.4974483814947,0,40.689221,-73.99174,0.8,19:21:52,
2024-03-25T15:22:03,-3.2398818003999996,1.5714862425499996,9.56590654915,0.03313943917224234,0.005345070834232635,-0.03451388595818787,0.16142,0.22638000000000003,-0.43862000000000007,7.5,1,9116,8735,13717,33054,17.2565625,210201,23.20456379998248,1027.492568759578,0,40.689221,-73.99174,0.8,19:21:52,
2024-03-25T15:22:03,-3.1986056105499996,1.5667005973499997,9.561120903949998,0.04077525464971753,0.0013744467859455349,-0.03512475119638588,0.1617,0.22638000000000003,-0.43176000000000003,7.5,1,9116,8735,13717,33054,17.2565625,210201,23.20456379998248,1027.492568759578,0,40.689221,-73.99174,0.8,19:21:52,
2024-03-25T15:22:03,-3.2159535744,1.5978072911499999,9.5688975774,0.041844268816564056,0.005803219762881146,-0.03772092845872745,0.16114,0.22862000000000005,-0.4403000000000001,7.5,1,9116,8735,13717,33054,17.2565625,210201,23.20456379998248,1027.492568759578,0,40.689221,-73.99174,0.63,19:21:52,
2024-03-25T15:22:03,-3.1848468806,1.5696916255999998,9.47976493555,0.036499197982331415,0.0054977871437821395,-0.038484510006474966,0.16646,0.23366000000000003,-0.42938000000000004,7.5,1,9116,8735,13717,33054,17.2565625,210201,23.20456379998248,1027.492568759578,0,40.689221,-73.99174,0.63,19:21:52,
2024-03-25T15:22:03,-3.21535536875,1.57268265385,9.547960379649998,0.03497203488683638,0.004123340357836604,-0.03604104905368291,0.1617,0.23198000000000002,-0.44870000000000004,7.5,1,9116,8735,13717,33054,17.281171875,211272,23.153799807623596,1027.4918652872616,0,40.689221,-73.99174,0.63,19:21:53,
2024-03-25T15:22:03,-3.1854450862499997,1.58464676685,9.5294160045,0.03634648167278191,0.0015271630954950385,-0.039095375244672985,0.16086,0.2247,-0.43022000000000005,7.5,1,9116,8735,13717,33054,17.281171875,211272,23.153799807623596,1027.4918652872616,0,40.689221,-73.99174,0.63,19:21:53,
2024-03-25T15:22:03,-3.2171499857,1.5415759600499999,9.570093988699998,0.038331793696925465,0.0027488935718910697,-0.03359758810089085,0.1603,0.22050000000000003,-0.43078000000000005,7.5,1,9116,8735,13717,33054,17.281171875,211272,23.153799807623596,1027.4918652872616,0,40.689221,-73.99174,0.63,19:21:53,
2024-03-25T15:22:03,-3.2338997439,1.58703958945,9.55513884745,0.03543018381548489,0.003054326190990077,-0.03451388595818787,0.15386000000000002,0.22022000000000003,-0.43162000000000006,7.5,1,9116,8735,13717,33054,17.281171875,211272,23.153799807623596,1027.4918652872616,0,40.689221,-73.99174,0.63,19:21:53,
2024-03-25T15:22:03,-3.2356943608499997,1.6019947307,9.53838908925,0.03481931857728687,0.0035124751196385882,-0.041080687268816536,0.16338000000000003,0.23086,-0.43694000000000005,7.5,1,9116,8735,13717,33054,17.3032421875,213309,23.11335220978448,1027.4868739182305,0,40.689221,-73.99174,0.63,19:21:53,
2024-03-25T15:22:03,-3.1926235540500003,1.5798611216499998,9.549156790949999,0.03924809155422249,0.00595593607243065,-0.03634648167278191,0.15498,0.22554000000000002,-0.43470000000000003,7.5,1,9116,8735,13717,33054,17.3032421875,213309,23.11335220978448,1027.4868739182305,0,40.689221,-73.99174,0.63,19:21:53,
2024-03-25T15:22:03,-3.0687949844999998,1.5643077747499998,9.5557370531,0.03588833274413341,0.0044287729769356115,-0.036804630601430424,0.15358000000000002,0.23058,-0.43078000000000005,7.5,1,9116,8735,13717,33054,17.3032421875,213309,23.11335220978448,1027.4868739182305,0,40.689221,-73.99174,0.63,19:21:53,
2024-03-25T15:22:03,-3.2147571630999994,1.5625131578,9.576076045199999,0.036804630601430424,0.0009162978572970231,-0.039400807863771994,0.15582000000000001,0.23366000000000003,-0.42602000000000007,7.5,1,9116,8735,13717,33054,17.3032421875,213309,23.11335220978448,1027.4868739182305,0,40.689221,-73.99174,0.63,19:21:53,
2024-03-25T15:22:03,-3.2488548851499996,1.5786647103499998,9.530014210149998,0.03741549583962844,0.0018325957145940463,-0.03436116964863837,0.15302000000000002,0.22918000000000002,-0.43484,7.5,1,9116,8735,13717,33054,17.322578125,211947,23.088430140088906,1027.4843056512912,0,40.689221,-73.99174,0.63,19:21:53,
2024-03-25T15:22:04,-3.22253383655,1.5529418674,9.5389872949,0.039706240482871004,0.002901609881440573,-0.036804630601430424,0.1547,0.23086,-0.43204000000000004,7.5,1,9116,8735,13717,33054,17.322578125,211947,23.088430140088906,1027.4843056512912,0,40.689221,-73.99174,0.88,19:21:53,
2024-03-25T15:22:04,-3.2285158930499995,1.5810575329499996,9.5389872949,0.03512475119638588,0.0027488935718910697,-0.038484510006474966,0.16114,0.22890000000000005,-0.42378000000000005,7.5,1,9116,8735,13717,33054,17.322578125,211947,23.088430140088906,1027.4843056512912,0,40.689221,-73.99174,0.88,19:21:53,
2024-03-25T15:22:04,-3.2392835947500003,1.567298803,9.5437729401,0.039553524173321496,0.0018325957145940463,-0.036499197982331415,0.16254000000000002,0.23198000000000002,-0.43918000000000007,7.5,1,9118,8735,13722,33070,17.322578125,211947,23.088430140088906,1027.4843056512912,0,40.689223,-73.99174,0.88,19:21:54,
2024-03-25T15:22:04,-3.2255248647999997,1.5786647103499998,9.5557370531,0.03222314131494531,0.005345070834232635,-0.036804630601430424,0.16422000000000003,0.2303,-0.43932000000000004,7.5,1,9118,8735,13722,33070,17.3395703125,214412,23.031991595310792,1027.4830605655695,0,40.689223,-73.99174,0.88,19:21:54,
2024-03-25T15:22:04,-3.2344979495499997,1.5768700934,9.49651469375,0.03329215548179184,0.006261368691529657,-0.03451388595818787,0.16618,0.22610000000000002,-0.43638000000000005,7.5,1,9118,8735,13722,33070,17.3395703125,214412,23.031991595310792,1027.4830605655695,0,40.689223,-73.99174,0.88,19:21:54,
2024-03-25T15:22:04,-3.2099715178999992,1.5786647103499998,9.53360344405,0.03924809155422249,0.001069014166846527,-0.03772092845872745,0.15918000000000002,0.22358,-0.43204000000000004,7.5,1,9118,8735,13722,33070,17.3395703125,214412,23.031991595310792,1027.4830605655695,0,40.689223,-73.99174,0.59,19:21:54,
2024-03-25T15:22:04,-3.2398818003999996,1.5780665047,9.585049129949999,0.03543018381548489,0.0016798794050445422,-0.03497203488683638,0.16702,0.22778000000000004,-0.44744000000000006,7.5,1,9118,8735,13722,33070,17.3395703125,214412,23.031991595310792,1027.4830605655695,0,40.689223,-73.99174,0.59,19:21:54,
2024-03-25T15:22:04,-3.2267212760999997,1.5690934199499997,9.5102734237,0.030085112981252257,0.004886921905584123,-0.03634648167278191,0.16002000000000002,0.23422000000000004,-0.43442000000000003,7.5,1,9118,8735,13722,33070,17.35265625,215947,23.022366876244284,1027.4857829079058,0,40.689221,-73.991743,0.59,19:21:55,
2024-03-25T15:22:04,-3.2087751065999996,1.5762718877499997,9.561120903949998,0.03924809155422249,0.0070249502392771765,-0.037110063220529434,0.16422000000000003,0.22694000000000003,-0.43862000000000007,7.5,1,9118,8735,13722,33070,17.35265625,215947,23.022366876244284,1027.4857829079058,0,40.689221,-73.991743,0.59,19:21:55,
2024-03-25T15:22:04,-3.0807590974999997,1.5529418674,9.52403215365,0.03237585762449482,0.002901609881440573,-0.03420845333908886,0.1603,0.22694000000000003,-0.43204000000000004,7.5,1,9118,8735,13722,33070,17.35265625,215947,23.022366876244284,1027.4857829079058,0,40.689221,-73.991743,0.59,19:21:55,
2024-03-25T15:22:04,-3.2099715178999992,1.57507547645,9.597013242949998,0.03329215548179184,0.00916297857297023,-0.03604104905368291,0.15806,0.22638000000000003,-0.43344000000000005,7.5,1,9118,8735,13722,33070,17.35265625,215947,23.022366876244284,1027.4857829079058,0,40.689221,-73.991743,0.25,19:21:55,
2024-03-25T15:22:04,-3.2482566795,1.57507547645,9.5389872949,0.04001167310197001,0.003207042500539581,-0.03802636107782646,0.16870000000000002,0.22582000000000002,-0.43134000000000006,7.5,1,9118,8735,13722,33070,17.364765625,214828,22.965644327848327,1027.4868565826755,0,40.689221,-73.991743,0.25,19:21:55,
2024-03-25T15:22:04,-3.2398818003999996,1.5684952143,9.560522698299998,0.038331793696925465,0.0027488935718910697,-0.03756821214917795,0.16114,0.22358,-0.4333000000000001,7.5,1,9118,8735,13722,33070,17.364765625,214828,22.965644327848327,1027.4868565826755,0,40.689225,-73.991743,0.25,19:21:56,
2024-03-25T15:22:04,-3.2207392195999995,1.5840485612,9.56949578305,0.0355829001250344,0.004581489286485115,-0.0355829001250344,0.15918000000000002,0.22582000000000002,-0.43162000000000006,7.5,1,9118,8735,13722,33070,17.364765625,214828,22.965644327848327,1027.4868565826755,0,40.689225,-73.991743,0.25,19:21:56,
2024-03-25T15:22:04,-3.218346397,1.57746829905,9.56829937175,0.03512475119638588,0.0007635815477475193,-0.036804630601430424,0.16086,0.22582000000000002,-0.43470000000000003,7.5,1,9118,8735,13722,33070,17.364765625,214828,22.965644327848327,1027.4868565826755,0,40.689225,-73.991743,0.25,19:21:56,
2024-03-25T15:22:04,-3.2650064377,1.5948162628999998,9.594022214699999,0.03130684345764829,0.0022907446432425577,-0.03787364476827696,0.16450000000000004,0.22386,-0.44450000000000006,7.5,1,9118,8735,13722,33070,17.37609375,217077,22.919342404495413,1027.4936520673573,0,40.689225,-73.991743,0.53,19:21:56,
2024-03-25T15:22:04,-3.2027930501,1.5601203352,9.5736832226,0.036804630601430424,0.0038179077387375964,-0.03512475119638588,0.16506,0.22890000000000005,-0.43946,7.5,1,9118,8735,13722,33070,17.37609375,217077,22.919342404495413,1027.4936520673573,0,40.689225,-73.991743,0.53,19:21:56,
2024-03-25T15:22:04,-3.2338997439,1.5828521499,9.522835742349999,0.03527746750593539,0.0038179077387375964,-0.03512475119638588,0.15974000000000002,0.22974,-0.43526000000000004,7.5,1,9111,8729,13713,33042,17.37609375,217077,22.919342404495413,1027.4936520673573,0,40.689225,-73.991745,0.53,19:21:57,
2024-03-25T15:22:04,-3.19740919925,1.5768700934,9.5246303593,0.03787364476827696,0.003970624048287101,-0.0357356164345839,0.16562000000000002,0.23226000000000002,-0.43162000000000006,7.5,1,9111,8729,13713,33042,17.3860546875,216793,22.88863525970257,1027.4910991068991,0,40.689225,-73.991745,0.53,19:21:57,
2024-03-25T15:22:04,-3.2297123043499996,1.567298803,9.57547783955,0.037110063220529434,0.0056505034533316425,-0.03497203488683638,0.1603,0.22610000000000002,-0.44212000000000007,7.5,1,9111,8729,13713,33042,17.3860546875,216793,22.88863525970257,1027.4910991068991,0,40.689225,-73.991745,0.53,19:21:57,
2024-03-25T15:22:04,-3.2482566795,1.57507547645,9.5461657627,0.037110063220529434,0.0018325957145940463,-0.036499197982331415,0.16394000000000003,0.23058,-0.43694000000000005,7.5,1,9111,8729,13713,33042,17.3860546875,216793,22.88863525970257,1027.4910991068991,0,40.689225,-73.991745,0.91,19:21:57,
2024-03-25T15:22:05,-3.2297123043499996,1.5816557385999996,9.553942436149999,0.03787364476827696,0.0,-0.03665191429188092,0.16702,0.23590000000000003,-0.44058,7.5,1,9111,8729,13713,33042,17.3966015625,218795,22.837089535008168,1027.4877741310368,0,40.689225,-73.991745,0.91,19:21:57,
2024-03-25T15:22:05,-3.2207392195999995,1.57268265385,9.5282195932,0.036499197982331415,0.0025961772623415654,-0.03313943917224234,0.1547,0.22694000000000003,-0.44002,7.5,1,9111,8729,13713,33042,17.3966015625,218795,22.837089535008168,1027.4877741310368,0,40.689223,-73.991746,0.91,19:21:58,
2024-03-25T15:22:05,-3.2368907721499993,1.5756736821,9.5425765288,0.03329215548179184,0.0022907446432425577,-0.03283400655314333,0.1589,0.22722000000000003,-0.43484,7.5,1,9111,8729,13713,33042,17.3966015625,218795,22.837089535008168,1027.4877741310368,0,40.689223,-73.991746,0.91,19:21:58,
2024-03-25T15:22:05,-3.2362925664999995,1.54875442785,9.567102960449999,0.0357356164345839,0.0024434609527920616,-0.0357356164345839,0.16394000000000003,0.2303,-0.43638000000000005,7.5,1,9111,8729,13713,33042,17.3966015625,218795,22.837089535008168,1027.4877741310368,0,40.689223,-73.991746,0.91,19:21:58,
2024-03-25T15:22:05,-3.21176613485,1.5798611216499998,9.5545406418,0.03222314131494531,0.0003054326190990077,-0.039095375244672985,0.16366000000000003,0.23338000000000003,-0.4368000000000001,7.5,1,9111,8729,13713,33042,17.40734375,218507,22.80644955896336,1027.4830178411287,0,40.689223,-73.991746,0.91,19:21:58,
2024-03-25T15:22:05,-3.357728313449999,1.5547364843499998,9.55992449265,0.04260785036431157,0.006414085001079162,-0.036804630601430424,0.15582000000000001,0.22750000000000004,-0.41776,7.5,1,9111,8729,13713,33042,17.40734375,218507,22.80644955896336,1027.4830178411287,0,40.689223,-73.991746,0.91,19:21:58,
2024-03-25T15:22:05,-3.0957142387500003,1.5661023916999999,9.5521478192,0.038484510006474966,0.005039638215133627,-0.03405573702953936,0.16982000000000003,0.22582000000000002,-0.43204000000000004,7.5,1,9111,8729,13713,33042,17.40734375,218507,22.80644955896336,1027.4830178411287,0,40.689223,-73.991746,0.91,19:21:58,
2024-03-25T15:22:05,-3.22492665915,1.56071854085,9.5198447141,0.031154127148098783,0.003970624048287101,-0.03329215548179184,0.16114,0.22386,-0.43260000000000004,7.5,1,9111,8729,13713,33042,17.40734375,218507,22.80644955896336,1027.4830178411287,0,40.689223,-73.991746,0.91,19:21:58,
2024-03-25T15:22:05,-3.3427731722,1.5864413838,9.51924650845,0.03436116964863837,0.006414085001079162,-0.03543018381548489,0.17318,0.22554000000000002,-0.42154,7.5,1,9111,8729,13713,33042,17.41828125,219955,22.760176266407097,1027.4838714095185,0,40.689223,-73.991746,0.91,19:21:58,
2024-03-25T15:22:05,-3.2171499857,1.56311136345,9.5437729401,0.038484510006474966,0.009010262263420728,-0.038789942625573975,0.1589,0.22890000000000005,-0.42308000000000007,7.5,1,9111,8729,13713,33042,17.41828125,219955,22.760176266407097,1027.4838714095185,0,40.689223,-73.991746,0.91,19:21:58,
2024-03-25T15:22:05,-3.2177481913499997,1.5852449725,9.54556755705,0.03665191429188092,-0.00045814892864851157,-0.037110063220529434,0.16842000000000001,0.22554000000000002,-0.43470000000000003,7.5,1,9117,8730,13724,33075,17.41828125,219955,22.760176266407097,1027.4838714095185,0,40.689223,-73.991746,0.86,19:21:58,
2024-03-25T15:22:05,-3.2141589574499996,1.55114725045,9.5198447141,0.03604104905368291,0.003054326190990077,-0.03512475119638588,0.16898000000000002,0.22722000000000003,-0.43904000000000004,7.5,1,9117,8730,13724,33075,17.43,220687,22.724398440956346,1027.484282423418,0,40.689223,-73.991746,0.86,19:21:58,
2024-03-25T15:22:05,-3.2285158930499995,1.5720844482,9.514460863249997,0.03420845333908886,0.003054326190990077,-0.036499197982331415,0.16534000000000001,0.22554000000000002,-0.43652,7.5,1,9117,8730,13724,33075,17.43,220687,22.724398440956346,1027.484282423418,0,40.689223,-73.991745,0.86,19:21:59,
2024-03-25T15:22:05,-3.1860432918999995,1.5708880368999998,9.535996266649999,0.03588833274413341,0.002901609881440573,-0.03634648167278191,0.16814,0.22722000000000003,-0.44366,7.5,1,9117,8730,13724,33075,17.43,220687,22.724398440956346,1027.484282423418,0,40.689223,-73.991745,0.86,19:21:59,
2024-03-25T15:22:05,-3.2255248647999997,1.5882360007499998,9.517451891499999,0.04046982203061852,0.004123340357836604,-0.036804630601430424,0.16086,0.22610000000000002,-0.4333000000000001,7.5,1,9117,8730,13724,33075,17.43,220687,22.724398440956346,1027.484282423418,0,40.689223,-73.991745,0.86,19:21:59,
2024-03-25T15:22:05,-3.22492665915,1.5786647103499998,9.54676396835,0.0319177086958463,0.003054326190990077,-0.03420845333908886,0.16142,0.22582000000000002,-0.44016000000000005,7.5,1,9117,8730,13724,33075,17.442890625,221128,22.68348894962483,1027.4919514252178,0,40.689223,-73.991745,0.69,19:21:59,
2024-03-25T15:22:05,-3.2494530907999994,1.5655041860499999,9.5736832226,0.03436116964863837,0.0019853120241435504,-0.037110063220529434,0.16702,0.23142000000000001,-0.42966000000000004,7.5,1,9117,8730,13724,33075,17.442890625,221128,22.68348894962483,1027.4919514252178,0,40.689223,-73.991745,0.69,19:21:59,
2024-03-25T15:22:05,-3.1776684127999997,1.5864413838,9.61735223505,0.04001167310197001,0.00015271630954950385,-0.03726277953007894,0.16254000000000002,0.22414,-0.42756000000000005,7.5,1,9117,8730,13724,33075,17.442890625,221128,22.68348894962483,1027.4919514252178,0,40.689223,-73.991745,0.69,19:22:0,
2024-03-25T15:22:05,-3.2380871834499994,1.5637095691,9.55633525875,0.03359758810089085,0.002901609881440573,-0.03451388595818787,0.16254000000000002,0.22666000000000003,-0.43274000000000007,7.5,1,9117,8730,13724,33075,17.455390625,220687,22.64256676437495,1027.4883983186246,0,40.689223,-73.991745,0.69,19:22:0,
2024-03-25T15:22:06,-3.242274623,1.5589239239,9.561120903949998,0.03313943917224234,0.00595593607243065,-0.03466660226773738,0.1673,0.22778000000000004,-0.42728000000000005,7.5,1,9117,8730,13724,33075,17.455390625,220687,22.64256676437495,1027.4883983186246,0,40.689223,-73.991745,0.69,19:22:0,
2024-03-25T15:22:06,-3.34097855525,1.5583257182499999,9.4947200768,0.03695734691097993,0.003970624048287101,-0.03695734691097993,0.16562000000000002,0.21966000000000002,-0.44072,7.5,1,9117,8730,13724,33075,17.455390625,220687,22.64256676437495,1027.4883983186246,0,40.689223,-73.991745,0.68,19:22:0,
2024-03-25T15:22:06,-3.2368907721499993,1.5714862425499996,9.535996266649999,0.04077525464971753,0.0013744467859455349,-0.036193765363232405,0.16142,0.22498,-0.42868000000000006,7.5,1,9117,8730,13724,33075,17.4690625,222611,22.60694058084674,1027.4850612880016,0,40.689223,-73.991745,0.68,19:22:0,
2024-03-25T15:22:06,-3.2362925664999995,1.57268265385,9.5880401582,0.031459559767197796,0.0022907446432425577,-0.03543018381548489,0.16478000000000004,0.22610000000000002,-0.42280000000000006,7.5,0,9114,8730,13728,33097,17.4690625,222611,22.60694058084674,1027.4850612880016,0,40.689223,-73.991745,0.68,19:22:1,
2024-03-25T15:22:06,-3.2075786952999996,1.5517454561000001,9.5198447141,0.03359758810089085,0.010842857978014774,-0.03466660226773738,0.16562000000000002,0.22946,-0.42406000000000005,7.5,0,9114,8730,13728,33097,17.4690625,222611,22.60694058084674,1027.4850612880016,0,40.689223,-73.991745,0.68,19:22:1,
2024-03-25T15:22:06,-3.2219356309,1.5876377951,9.543174734449998,0.03772092845872745,0.005803219762881146,-0.03588833274413341,0.15694000000000002,0.23002,-0.44576000000000005,7.5,0,9114,8730,13728,33097,17.4690625,222611,22.60694058084674,1027.4850612880016,0,40.689223,-73.991745,0.68,19:22:1,
2024-03-25T15:22:06,-3.2159535744,1.5619149521499998,9.61854864635,0.03344487179134134,-0.001069014166846527,-0.03726277953007894,0.16058,0.22946,-0.44282000000000005,7.5,0,9114,8730,13728,33097,17.4815625,222611,22.56604034209567,1027.485027413395,0,40.689223,-73.991745,0.67,19:22:1,
2024-03-25T15:22:06,-3.2099715178999992,1.5690934199499997,9.580263484749999,0.036804630601430424,0.0018325957145940463,-0.03756821214917795,0.16198,0.22862000000000005,-0.4354,7.5,0,9114,8730,13728,33097,17.4815625,222611,22.56604034209567,1027.485027413395,0,40.689223,-73.991745,0.67,19:22:1,
2024-03-25T15:22:06,-3.2303105099999994,1.5583257182499999,9.55992449265,0.03604104905368291,0.003207042500539581,-0.036804630601430424,0.15918000000000002,0.22862000000000005,-0.43946,7.5,0,9114,8730,13728,33097,17.4815625,222611,22.56604034209567,1027.485027413395,0,40.689223,-73.99175,0.67,19:22:2,
2024-03-25T15:22:06,-3.2297123043499996,1.5852449725,9.57428142825,0.038637226316024474,0.0013744467859455349,-0.036499197982331415,0.15918000000000002,0.22386,-0.43372000000000005,7.5,0,9114,8730,13728,33097,17.4954296875,222313,22.530445083081652,1027.4855391735991,0,40.689223,-73.99175,0.67,19:22:2,
2024-03-25T15:22:06,-3.2380871834499994,1.60139652505,9.507282395449998,0.03252857393404432,0.0025961772623415654,-0.036499197982331415,0.16002000000000002,0.22750000000000004,-0.43834,7.5,0,9114,8730,13728,33097,17.4954296875,222313,22.530445083081652,1027.4855391735991,0,40.689223,-73.99175,0.67,19:22:2,
2024-03-25T15:22:06,-3.2255248647999997,1.56311136345,9.55633525875,0.03466660226773738,0.0018325957145940463,-0.03695734691097993,0.16142,0.22974,-0.44548000000000004,7.5,0,9114,8730,13728,33097,17.4954296875,222313,22.530445083081652,1027.4855391735991,0,40.689223,-73.99175,0.9,19:22:2,
2024-03-25T15:22:06,-3.1968109935999998,1.58464676685,9.5557370531,0.03588833274413341,-0.0018325957145940463,-0.038179077387375956,0.16702,0.22946,-0.43400000000000005,7.5,0,9114,8730,13728,33097,17.4954296875,222313,22.530445083081652,1027.4855391735991,0,40.689223,-73.99175,0.9,19:22:2,
2024-03-25T15:22:06,-3.3236305913999997,1.5834503555499997,9.5389872949,0.03497203488683638,0.00015271630954950385,-0.03420845333908886,0.16254000000000002,0.22638000000000003,-0.43666000000000005,7.5,0,9114,8730,13728,33097,17.5087109375,224418,22.48961543007138,1027.4903431436733,0,40.689221,-73.991755,0.9,19:22:3,
2024-03-25T15:22:06,-3.24406923995,1.5876377951,9.7639126193,0.03527746750593539,-0.0009162978572970231,-0.02977968036215325,0.16310000000000002,0.22666000000000003,-0.44842000000000004,7.5,0,9114,8730,13728,33097,17.5087109375,224418,22.48961543007138,1027.4903431436733,0,40.689221,-73.991755,0.9,19:22:3,
2024-03-25T15:22:07,-3.25364053035,1.6211373115,9.598209654249999,0.03359758810089085,-0.005192354524683131,-0.03604104905368291,0.16198,0.22750000000000004,-0.43442000000000003,7.5,0,9118,8732,13729,33085,17.520625,223813,22.448712435968247,1027.496360895576,0,40.689221,-73.991755,0.9,19:22:3,
2024-03-25T15:22:07,-3.2650064377,1.5613167465000002,9.551549613549998,0.03298672286269283,0.002901609881440573,-0.039706240482871004,0.16254000000000002,0.22442,-0.4207,7.5,0,9118,8732,13729,33085,17.520625,223813,22.448712435968247,1027.496360895576,0,40.689221,-73.991755,0.9,19:22:3,
2024-03-25T15:22:07,-3.2027930501,1.5547364843499998,9.458827737799998,0.031459559767197796,0.0013744467859455349,-0.03497203488683638,0.15750000000000003,0.21686000000000002,-0.44352,7.5,0,9118,8732,13729,33085,17.228046875,206537,22.274612854841394,1027.521872454333,0,40.689221,-73.991755,0.9,19:22:3,
2024-03-25T15:22:07,-3.2338997439,1.6002001137499997,9.6059863277,0.03665191429188092,0.001069014166846527,-0.039553524173321496,0.16226000000000002,0.22834000000000004,-0.43960000000000005,7.5,1,9112,8729,13715,33056,16.8528515625,198863,22.142609677060417,1027.530596332752,0,40.689221,-73.991755,0.9,19:22:3,
2024-03-25T15:22:07,-3.2123643404999997,1.6007983193999997,9.537790883599998,0.03054326190990077,-0.00473420559603462,-0.03481931857728687,0.16646,0.23478000000000002,-0.44198000000000004,7.5,1,9112,8729,13715,33056,16.8528515625,198863,22.142609677060417,1027.530596332752,0,40.689221,-73.991755,0.9,19:22:3,
2024-03-25T15:22:07,-3.2614172037999998,1.5708880368999998,9.54197832315,0.038484510006474966,0.0015271630954950385,-0.03543018381548489,0.15666000000000002,0.22974,-0.43442000000000003,7.5,1,9112,8729,13715,33056,16.8528515625,198863,22.142609677060417,1027.530596332752,0,40.689221,-73.991755,0.9,19:22:3,
2024-03-25T15:22:08,-3.2350961551999995,1.6133606380499999,9.561120903949998,0.03726277953007894,-0.005345070834232635,-0.0355829001250344,0.16534000000000001,0.22694000000000003,-0.44184,7.5,1,9112,8729,13715,33056,16.539375,195006,22.05098011581785,1027.540980634326,0,40.689221,-73.991755,0.9,19:22:3,
2024-03-25T15:22:08,-3.2333015382499997,1.5708880368999998,9.5425765288,0.038484510006474966,0.006566801310628666,-0.03527746750593539,0.15918000000000002,0.22862000000000005,-0.44548000000000004,7.5,1,9106,8722,13719,33068,16.539375,195006,22.05098011581785,1027.540980634326,0,40.689221,-73.991755,0.73,19:22:3,
2024-03-25T15:22:08,-3.19501637665,1.5912270289999997,9.5521478192,0.03451388595818787,0.00473420559603462,-0.036193765363232405,0.15666000000000002,0.22582000000000002,-0.43288000000000004,7.5,1,9106,8722,13719,33068,16.539375,195006,22.05098011581785,1027.540980634326,0,40.689221,-73.991755,0.73,19:22:3,
2024-03-25T15:22:08,-3.2380871834499994,1.6037893476499998,9.59222759775,0.03665191429188092,0.004123340357836604,-0.036193765363232405,0.16114,0.23226000000000002,-0.43834,7.5,1,9106,8722,13719,33068,16.2176953125,189439,21.94356536340652,1027.535294028005,0,40.689221,-73.991758,0.73,19:22:4,
2024-03-25T15:22:08,-3.190828937099999,1.63130680755,9.57906707345,0.0357356164345839,-0.0033597588100890844,-0.03772092845872745,0.16198,0.23366000000000003,-0.43386,7.5,1,9106,8722,13719,33068,16.2176953125,189439,21.94356536340652,1027.535294028005,0,40.689221,-73.991758,0.73,19:22:4,
2024-03-25T15:22:08,-3.1788648240999997,1.5882360007499998,9.6059863277,0.03436116964863837,0.0070249502392771765,-0.03481931857728687,0.15106,0.22806000000000004,-0.43036,7.5,1,9106,8722,13719,33068,16.2176953125,189439,21.94356536340652,1027.535294028005,0,40.689221,-73.991758,0.73,19:22:4,
2024-03-25T15:22:08,-3.21655178005,1.5756736821,9.5724868113,0.03359758810089085,0.008246680715673207,-0.03802636107782646,0.16702,0.23114,-0.43372000000000005,7.5,1,9106,8722,13719,33068,15.945625,187618,21.865210016817322,1027.5427557294456,0,40.689221,-73.991758,0.5,19:22:4,
2024-03-25T15:22:09,-3.2626136151,1.5780665047,9.556933464399998,0.03604104905368291,0.00595593607243065,-0.036193765363232405,0.16786,0.2247,-0.43372000000000005,7.5,0,9109,8721,13716,33066,15.8747265625,195350,21.87645556306228,1027.5195028239852,0,40.689221,-73.991758,0.5,19:22:4,
2024-03-25T15:22:09,-3.2392835947500003,1.5409777543999998,9.6012006825,0.03283400655314333,0.007330382858376185,-0.03634648167278191,0.16478000000000004,0.22526000000000002,-0.43260000000000004,7.5,0,9109,8721,13716,33066,15.8036328125,191185,21.81025521417163,1027.5362885654195,0,40.689221,-73.991758,0.5,19:22:5,
2024-03-25T15:22:09,-3.1734809732500002,1.58703958945,9.53121062145,0.0,0.0003054326190990077,-0.03466660226773738,0.16478000000000004,0.22554000000000002,-0.43470000000000003,7.5,0,9104,8717,13697,33021,15.7137890625,189007,21.763624983798447,1027.5389034599348,0,40.689221,-73.991758,0.5,19:22:5,
2024-03-25T15:22:10,-3.2045876670499998,1.6211373115,9.56949578305,0.03588833274413341,0.0070249502392771765,-0.03436116964863837,0.16534000000000001,0.22386,-0.43582000000000004,7.5,0,9104,8717,13697,33021,15.6130078125,188578,21.716382826344578,1027.5370301513271,0,40.689221,-73.991758,0.5,19:22:5,
2024-03-25T15:22:10,-3.26321182075,1.5619149521499998,9.495318282449999,0.038179077387375956,0.0054977871437821395,-0.038942658935123484,0.16366000000000003,0.2233,-0.43148000000000003,7.5,0,9104,8717,13697,33021,15.6130078125,188578,21.716382826344578,1027.5370301513271,0,40.689221,-73.991758,0.33,19:22:5,
2024-03-25T15:22:10,-3.2344979495499997,1.5541382787,9.530014210149998,0.038789942625573975,0.006566801310628666,-0.03527746750593539,0.16814,0.22022000000000003,-0.43358,7.5,1,9088,8705,13678,32957,15.6130078125,188578,21.716382826344578,1027.5370301513271,0,40.689221,-73.991758,0.33,19:22:5,
2024-03-25T15:22:10,-3.2482566795,1.57746829905,9.4947200768,0.03756821214917795,0.0022907446432425577,-0.038179077387375956,0.1617,0.22442,-0.42840000000000006,7.5,1,9088,8705,13678,32957,15.53,186773,21.680538471556787,1027.538841284756,0,40.689223,-73.99176,0.33,19:22:6,
2024-03-25T15:22:10,-3.17707020715,1.5553346899999998,9.5401837062,0.038637226316024474,0.0012217304763960308,-0.036193765363232405,0.15526,0.22610000000000002,-0.43092,7.5,1,9088,8705,13678,32957,15.53,186773,21.680538471556787,1027.538841284756,0,40.689223,-73.99176,0.33,19:22:6,
2024-03-25T15:22:10,-3.1956145822999997,1.5834503555499997,9.58624554125,0.03604104905368291,0.0035124751196385882,-0.03695734691097993,0.16394000000000003,0.21882000000000001,-0.43610000000000004,7.5,1,9088,8705,13678,32957,15.53,186773,21.680538471556787,1027.538841284756,0,40.689223,-73.99176,0.33,19:22:6,
2024-03-25T15:22:11,-3.2243284535,1.5804593272999998,9.652048162749999,0.03802636107782646,-0.002138028333693054,-0.03527746750593539,0.16702,0.22386,-0.42588000000000004,7.5,0,9085,8705,13675,32933,15.4040234375,186040,21.642179909582865,1027.5363892635407,0,40.689223,-73.99176,0.23,19:22:6,
2024-03-25T15:22:11,-3.2051858726999995,1.5541382787,9.547960379649998,0.03436116964863837,0.003207042500539581,-0.03695734691097993,0.16674,0.22358,-0.43960000000000005,7.5,0,9085,8705,13675,32933,15.4040234375,186040,21.642179909582865,1027.5363892635407,0,40.689223,-73.99176,0.23,19:22:6,
2024-03-25T15:22:11,-3.2243284535,1.5708880368999998,9.539585500549999,0.038331793696925465,-0.0027488935718910697,-0.03802636107782646,0.16982000000000003,0.22918000000000002,-0.43358,7.5,0,9085,8705,13675,32933,15.280390625,186258,21.58855797376811,1027.5343225040447,0,40.689225,-73.991763,0.23,19:22:7,
2024-03-25T15:22:11,-3.2554351472999996,1.56071854085,9.476773907299998,0.036804630601430424,-0.0012217304763960308,-0.03588833274413341,0.16758,0.22414,-0.42742,7.5,0,9085,8705,13675,32933,15.280390625,186258,21.58855797376811,1027.5343225040447,0,40.689225,-73.991763,0.23,19:22:7,
2024-03-25T15:22:12,-3.1088747630499998,1.52961184705,9.46540799995,0.03436116964863837,0.0022907446432425577,-0.03436116964863837,0.16646,0.22386,-0.44072,7.5,0,9087,8707,13680,32954,15.1981640625,185644,21.573429010398996,1027.5320678563794,0,40.689225,-73.991763,0.23,19:22:7,
2024-03-25T15:22:12,-3.2476584738499996,1.5134602945,9.61376300115,0.03543018381548489,0.003970624048287101,-0.03512475119638588,0.17262,0.22134000000000004,-0.44198000000000004,7.5,0,9087,8707,13680,32954,15.1981640625,185644,21.573429010398996,1027.5320678563794,0,40.689225,-73.991763,0.4,19:22:7,
2024-03-25T15:22:12,-3.2470602682,1.5690934199499997,9.691529735649999,0.03588833274413341,0.002901609881440573,-0.03329215548179184,0.16058,0.23198000000000002,-0.42462000000000005,7.5,0,9087,8707,13680,32954,15.1251171875,186670,21.5382775645179,1027.5295274536825,0,40.689225,-73.991763,0.4,19:22:7,
2024-03-25T15:22:12,-3.2009984331499997,1.60139652505,9.530612415799999,0.03222314131494531,0.004276056667386108,-0.03252857393404432,0.1603,0.22890000000000005,-0.44044000000000005,7.5,0,9085,8704,13676,32940,15.06515625,185236,21.50905519282178,1027.526303854285,0,40.689226,-73.991763,0.4,19:22:8,
2024-03-25T15:22:12,-3.2123643404999997,1.5595221295499997,9.522237536699999,0.0316122760767473,0.0012217304763960308,-0.03237585762449482,0.16114,0.23254000000000002,-0.42266000000000004,7.5,0,9085,8704,13676,32940,15.06515625,185236,21.50905519282178,1027.526303854285,0,40.689226,-73.991763,0.4,19:22:8,
2024-03-25T15:22:13,-3.1920253484,1.5744772707999999,9.644869694949998,0.03588833274413341,-0.010079276430267254,-0.03634648167278191,0.16086,0.21966000000000002,-0.43834,7.5,0,9085,8704,13676,32940,15.0633984375,185644,21.508952231453414,1027.5303453808247,0,40.689226,-73.991763,0.4,19:22:8,
2024-03-25T15:22:13,-3.2321051269499996,1.5816557385999996,9.5736832226,0.038331793696925465,0.004123340357836604,-0.03344487179134134,0.16702,0.22218000000000004,-0.44142000000000003,7.5,1,9092,8711,13685,32964,15.0407421875,186670,21.50248526987022,1027.5305969000271,0,40.689226,-73.991763,0.4,19:22:8,
2024-03-25T15:22:13,-3.1842486749499996,1.58464676685,9.51924650845,0.0355829001250344,0.0024434609527920616,-0.036193765363232405,0.16562000000000002,0.22918000000000002,-0.43358,7.5,1,9092,8711,13685,32964,15.0407421875,186670,21.50248526987022,1027.5305969000271,0,40.689226,-73.991763,0.4,19:22:8,
2024-03-25T15:22:13,-3.1878379088499997,1.5744772707999999,9.5904329808,0.03420845333908886,0.0018325957145940463,-0.03634648167278191,0.16450000000000004,0.22946,-0.43568000000000007,7.5,1,9097,8715,13695,32985,15.05265625,186670,21.508323070101333,1027.5297089407213,0,40.689226,-73.991763,0.4,19:22:8,
2024-03-25T15:22:13,-3.23090871565,1.5768700934,9.597611448599999,0.0355829001250344,0.004276056667386108,-0.036193765363232405,0.15078,0.22526000000000002,-0.42630000000000007,7.5,1,9097,8715,13695,32985,15.05265625,186670,21.508323070101333,1027.5297089407213,0,40.689226,-73.991763,0.4,19:22:8,
2024-03-25T15:22:14,-3.24406923995,1.5912270289999997,9.57069219435,0.03344487179134134,0.0068722339297276735,-0.03451388595818787,0.16898000000000002,0.22526000000000002,-0.43204000000000004,7.5,1,9097,8715,13695,32985,15.05265625,186670,21.508323070101333,1027.5297089407213,0,40.689226,-73.991763,0.4,19:22:8,
2024-03-25T15:22:14,-3.1914271427500003,1.5816557385999996,9.5066841898,0.03543018381548489,0.007483099167925688,-0.036499197982331415,0.1617,0.22694000000000003,-0.43624000000000007,7.5,1,9097,8715,13695,32985,15.0290234375,185440,21.481241648706963,1027.5283070232663,0,40.689226,-73.991763,0.4,19:22:8,
2024-03-25T15:22:14,-3.2099715178999992,1.5780665047,9.54197832315,0.03313943917224234,0.0036651914291880926,-0.03665191429188092,0.16058,0.22526000000000002,-0.43218000000000006,7.5,1,9110,8725,13711,33040,14.9930859375,185033,21.46372562902267,1027.5271271482256,0,40.689226,-73.991763,0.28,19:22:8,
2024-03-25T15:22:15,-3.26321182075,1.55354007305,9.593424009049999,0.03359758810089085,0.006414085001079162,-0.03588833274413341,0.16926000000000002,0.22078000000000003,-0.43582000000000004,7.5,1,9110,8725,13711,33040,15.0059765625,185848,21.459340948748718,1027.5278941424635,0,40.689226,-73.991763,0.28,19:22:8,
2024-03-25T15:22:15,-3.2315069213,1.5756736821,9.608977355949998,0.03481931857728687,0.0007635815477475193,-0.039706240482871004,0.15806,0.23142000000000001,-0.43568000000000007,7.5,0,9097,8715,13683,32975,15.0204296875,186258,21.46018542485206,1027.5330580277116,0,40.689225,-73.991764,0.28,19:22:9,
2024-03-25T15:22:16,-3.2560333529499994,1.5625131578,9.514460863249997,0.03741549583962844,0.003207042500539581,-0.03268129024359383,0.16506,0.22162000000000004,-0.42952,7.5,1,9091,8709,13682,32963,14.838984375,180868,21.403381599363442,1027.5258722539259,0,40.689225,-73.991764,0.28,19:22:9,
2024-03-25T15:22:16,-3.2554351472999996,1.57507547645,9.56590654915,0.038179077387375956,0.006414085001079162,-0.03527746750593539,0.1547,0.22358,-0.4368000000000001,7.5,1,9091,8709,13682,32963,14.8128125,182432,21.41212601559267,1027.5148914484437,0,40.689225,-73.991764,0.28,19:22:9,
2024-03-25T15:22:16,-3.2231320422,1.5690934199499997,9.57069219435,0.03802636107782646,0.005192354524683131,-0.03695734691097993,0.1589,0.22666000000000003,-0.42672000000000004,7.5,1,9091,8709,13682,32963,14.8128125,182432,21.41212601559267,1027.5148914484437,0,40.689225,-73.991764,0.39,19:22:9,
2024-03-25T15:22:16,-3.17228456195,1.57268265385,9.5042913672,0.03359758810089085,0.002901609881440573,-0.001069014166846527,0.16086,0.23002,-0.44156000000000006,7.5,1,9091,8709,13682,32963,14.8128125,182432,21.41212601559267,1027.5148914484437,0,40.689225,-73.991764,0.39,19:22:9,
2024-03-25T15:22:16,-3.22612307045,1.5708880368999998,9.562915520899999,0.03466660226773738,0.003970624048287101,-0.03390302071998985,0.16394000000000003,0.22358,-0.43848000000000004,7.5,1,9091,8709,13682,32963,14.8528515625,183824,21.424726182568424,1027.5160272584765,0,40.689225,-73.991761,0.39,19:22:10,
2024-03-25T15:22:17,-3.2231320422,1.5337992865999999,9.500103927649999,0.03726277953007894,0.0006108652381980154,-0.037110063220529434,0.15638000000000002,0.23282000000000003,-0.44926000000000005,7.5,1,9106,8719,13716,33028,15.00734375,190417,21.464558736813633,1027.4898710366379,0,40.689225,-73.991761,0.39,19:22:10,
2024-03-25T15:22:17,-3.2685956715999995,1.5601203352,9.6000042712,0.031459559767197796,0.0068722339297276735,-0.03405573702953936,0.16198,0.22778000000000004,-0.4502400000000001,7.5,1,9106,8719,13716,33028,15.00734375,190417,21.464558736813633,1027.4898710366379,0,40.689225,-73.991761,0.39,19:22:10,
2024-03-25T15:22:17,-3.2177481913499997,1.6037893476499998,9.547960379649998,0.03772092845872745,0.002901609881440573,-0.03497203488683638,0.16674,0.21826,-0.44688000000000005,7.5,1,9106,8719,13716,33028,15.00734375,190417,21.464558736813633,1027.4898710366379,0,40.689225,-73.991761,0.27,19:22:10,
2024-03-25T15:22:17,-3.2321051269499996,1.5882360007499998,9.55633525875,0.03924809155422249,0.004123340357836604,-0.03665191429188092,0.16422000000000003,0.22666000000000003,-0.43428000000000005,7.5,1,9106,8719,13716,33028,15.1169140625,185416,21.476105319795785,1027.5068788121152,0,40.689225,-73.991761,0.27,19:22:10,
2024-03-25T15:22:17,-3.2506495021,1.5643077747499998,9.5856473356,0.038942658935123484,0.0027488935718910697,-0.03543018381548489,0.16478000000000004,0.22274000000000002,-0.43302,7.5,0,9105,8720,13717,33027,15.2852734375,194891,21.516822266554428,1027.4881920855726,0,40.689221,-73.991758,0.27,19:22:11,
2024-03-25T15:22:17,-3.2554351472999996,1.54875442785,9.509675218049999,0.036499197982331415,0.0012217304763960308,-0.03604104905368291,0.16506,0.22442,-0.43596,7.5,0,9105,8720,13717,33027,15.36515625,188471,21.485512834085878,1027.5022378087078,0,40.689221,-73.991758,0.27,19:22:11,
2024-03-25T15:22:17,-3.2321051269499996,1.5804593272999998,9.5282195932,0.03634648167278191,0.003207042500539581,-0.03451388595818787,0.15862,0.22974,-0.43554000000000004,7.5,0,9105,8720,13717,33027,15.36515625,188471,21.485512834085878,1027.5022378087078,0,40.689221,-73.991758,0.27,19:22:11,
2024-03-25T15:22:18,-3.2093733122499994,1.5780665047,9.57667425085,0.038789942625573975,0.0019853120241435504,-0.03924809155422249,0.15806,0.22358,-0.43960000000000005,7.5,0,9105,8720,13717,33027,15.36515625,188471,21.485512834085878,1027.5022378087078,0,40.689221,-73.991758,0.92,19:22:11,
2024-03-25T15:22:18,-3.22133742525,1.5702898312499998,9.560522698299998,0.040622538340168025,0.0012217304763960308,-0.03512475119638588,0.15946000000000002,0.22554000000000002,-0.44366,7.5,0,9101,8714,13702,33003,15.356953125,185313,21.46960562431245,1027.5111747240237,0,40.689221,-73.991758,0.92,19:22:11,
2024-03-25T15:22:19,-3.0687949844999998,1.5667005973499997,9.5904329808,0.03497203488683638,0.004276056667386108,-0.03756821214917795,0.15610000000000002,0.22722000000000003,-0.44394000000000006,7.5,1,9106,8719,13717,33024,15.2848828125,182828,21.434540557731463,1027.5173580921794,0,40.689221,-73.991758,0.92,19:22:12,
2024-03-25T15:22:19,-3.24287282865,1.5595221295499997,9.63290558195,0.03313943917224234,0.001069014166846527,-0.07681630370340044,0.16142,0.22218000000000004,-0.4585000000000001,7.5,1,9106,8719,13717,33024,15.2848828125,182828,21.434540557731463,1027.5173580921794,0,40.689221,-73.991758,0.92,19:22:12,
2024-03-25T15:22:19,-3.2267212760999997,1.5852449725,9.59222759775,0.036804630601430424,0.00473420559603462,-0.03527746750593539,0.16058,0.22246000000000002,-0.44870000000000004,7.5,1,9106,8719,13717,33024,15.2848828125,182828,21.434540557731463,1027.5173580921794,0,40.689221,-73.991758,0.92,19:22:12,
2024-03-25T15:22:19,-3.2189446026499997,1.5840485612,9.607182738999999,0.03313943917224234,0.0027488935718910697,-0.0357356164345839,0.15442000000000003,0.2233,-0.43470000000000003,7.5,1,9106,8719,13717,33024,15.0618359375,175965,21.39068889703551,1027.5154243394645,0,40.689221,-73.991758,0.54,19:22:12,
2024-03-25T15:22:19,-3.1986056105499996,1.6007983193999997,9.61017376725,0.03344487179134134,-0.0007635815477475193,-0.036499197982331415,0.1603,0.22106000000000003,-0.4501,7.5,1,9106,8719,13717,33024,15.0618359375,175965,21.39068889703551,1027.5154243394645,0,40.689221,-73.991758,0.54,19:22:12,
2024-03-25T15:22:19,-3.2368907721499993,1.5738790651499999,9.57188860565,0.0316122760767473,0.00595593607243065,-0.03543018381548489,0.16534000000000001,0.21966000000000002,-0.43764000000000003,7.5,1,9106,8719,13717,33024,15.0618359375,175965,21.39068889703551,1027.5154243394645,0,40.689223,-73.991761,0.54,19:22:13,
2024-03-25T15:22:19,-3.2458638569,1.5792629159999998,9.559326287,0.03298672286269283,0.0056505034533316425,-0.037110063220529434,0.16478000000000004,0.22638000000000003,-0.44100000000000006,7.5,1,9106,8719,13717,33024,15.0618359375,175965,21.39068889703551,1027.5154243394645,0,40.689223,-73.991761,0.54,19:22:13,
2024-03-25T15:22:19,-3.2279176873999997,1.5714862425499996,9.602995299449999,0.03772092845872745,0.0007635815477475193,-0.039858956792420505,0.16114,0.2247,-0.43918000000000007,7.5,1,9106,8719,13717,33024,15.08703125,183824,21.453801658791246,1027.479124517332,0,40.689223,-73.991761,0.54,19:22:13,
2024-03-25T15:22:19,-3.23090871565,1.5840485612,9.559326287,0.03512475119638588,0.004123340357836604,-0.03466660226773738,0.16254000000000002,0.21798,-0.44702000000000003,7.5,1,9106,8719,13717,33024,15.08703125,183824,21.453801658791246,1027.479124517332,0,40.689223,-73.991761,0.54,19:22:13,
2024-03-25T15:22:19,-3.2338997439,1.5744772707999999,9.574879633899998,0.03756821214917795,0.003207042500539581,-0.03604104905368291,0.16814,0.22274000000000002,-0.44142000000000003,7.5,1,9106,8719,13717,33024,15.08703125,183824,21.453801658791246,1027.479124517332,0,40.689223,-73.991761,0.54,19:22:13,
2024-03-25T15:22:19,-3.22014101395,1.5798611216499998,9.598209654249999,0.03512475119638588,0.002901609881440573,-0.03359758810089085,0.16478000000000004,0.22134000000000004,-0.43554000000000004,7.5,1,9106,8719,13717,33024,15.08703125,183824,21.453801658791246,1027.479124517332,0,40.689223,-73.991761,0.54,19:22:13,
2024-03-25T15:22:19,-3.19501637665,1.5637095691,9.503693161549998,0.03329215548179184,0.0007635815477475193,-0.038789942625573975,0.16534000000000001,0.22386,-0.44282000000000005,7.5,0,9080,8702,13679,32940,15.2940625,188900,21.496767871035342,1027.4679678378714,0,40.689223,-73.991761,0.54,19:22:13,
2024-03-25T15:22:19,-3.218346397,1.5625131578,9.589834775149999,0.03604104905368291,0.0006108652381980154,-0.03634648167278191,0.16674,0.22274000000000002,-0.4473000000000001,7.5,0,9080,8702,13679,32940,15.2940625,188900,21.496767871035342,1027.4679678378714,0,40.689223,-73.991761,0.54,19:22:13,
2024-03-25T15:22:19,-3.2362925664999995,1.5834503555499997,9.5007021333,0.03375030441044035,0.0044287729769356115,-0.03359758810089085,0.16478000000000004,0.22498,-0.44562000000000007,7.5,0,9080,8702,13679,32940,15.2940625,188900,21.496767871035342,1027.4679678378714,0,40.689223,-73.991761,0.54,19:22:13,
2024-03-25T15:22:19,-3.2380871834499994,1.5804593272999998,9.578468867799998,0.03359758810089085,0.0019853120241435504,-0.03543018381548489,0.16142,0.22050000000000003,-0.44548000000000004,7.5,0,9080,8702,13679,32940,15.2940625,188900,21.496767871035342,1027.4679678378714,0,40.689223,-73.991761,0.51,19:22:13,
2024-03-25T15:22:19,-3.2123643404999997,1.5948162628999998,9.547960379649998,0.031001410838549282,0.003207042500539581,-0.03344487179134134,0.1659,0.22190000000000004,-0.45514000000000004,7.5,0,9080,8702,13679,32940,15.5684765625,193980,21.554066300503212,1027.4652418686028,0,40.689223,-73.991761,0.51,19:22:13,
2024-03-25T15:22:19,-3.242274623,1.5714862425499996,9.558129875699999,0.03527746750593539,0.0027488935718910697,-0.031459559767197796,0.15974000000000002,0.22610000000000002,-0.4438000000000001,7.5,0,9080,8702,13679,32940,15.5684765625,193980,21.554066300503212,1027.4652418686028,0,40.689225,-73.991761,0.51,19:22:14,
2024-03-25T15:22:19,-3.24167641735,1.5738790651499999,9.5545406418,0.03772092845872745,0.00473420559603462,-0.038942658935123484,0.15918000000000002,0.22386,-0.44212000000000007,7.5,0,9080,8702,13679,32940,15.5684765625,193980,21.554066300503212,1027.4652418686028,0,40.689225,-73.991761,0.51,19:22:14,
2024-03-25T15:22:19,-3.2033912557499997,1.5792629159999998,9.641280461049998,0.031459559767197796,0.0015271630954950385,-0.03512475119638588,0.16478000000000004,0.22610000000000002,-0.4473000000000001,7.5,0,9080,8702,13679,32940,15.5684765625,193980,21.554066300503212,1027.4652418686028,0,40.689225,-73.991761,0.51,19:22:14,
2024-03-25T15:22:19,-3.2063822839999996,1.5834503555499997,9.562317315249999,0.036804630601430424,0.0027488935718910697,-0.03588833274413341,0.15918000000000002,0.21854,-0.44086000000000003,7.5,0,9080,8702,13679,32940,15.84640625,199341,21.585933923706026,1027.4646057403731,0,40.689225,-73.991761,0.64,19:22:14,
2024-03-25T15:22:19,-3.2087751065999996,1.5816557385999996,9.55633525875,0.04123340357836604,0.0013744467859455349,-0.0355829001250344,0.15778,0.22050000000000003,-0.43568000000000007,7.5,0,9080,8702,13679,32940,15.84640625,199341,21.585933923706026,1027.4646057403731,0,40.689225,-73.991761,0.64,19:22:14,
2024-03-25T15:22:19,-3.2267212760999997,1.59900370245,9.551549613549998,0.03741549583962844,0.004123340357836604,-0.036499197982331415,0.15918000000000002,0.22442,-0.43134000000000006,7.5,0,9080,8702,13679,32940,15.84640625,199341,21.585933923706026,1027.4646057403731,0,40.689221,-73.99176,0.64,19:22:15,
2024-03-25T15:22:20,-3.2410782117,1.5655041860499999,9.584450924299999,0.031764992386296806,0.003970624048287101,-0.0319177086958463,0.16534000000000001,0.21658000000000002,-0.43190000000000006,7.5,0,9080,8702,13679,32940,15.84640625,199341,21.585933923706026,1027.4646057403731,0,40.689221,-73.99176,0.64,19:22:15,
2024-03-25T15:22:20,-3.2368907721499993,1.5655041860499999,9.650851751449999,0.03497203488683638,0.0022907446432425577,-0.03298672286269283,0.16422000000000003,0.21910000000000002,-0.44366,7.5,0,9080,8702,13679,32940,16.1067578125,203998,21.61167836019619,1027.4532413668055,0,40.689221,-73.99176,0.64,19:22:15,
2024-03-25T15:22:20,-3.2063822839999996,1.5690934199499997,9.560522698299998,0.03481931857728687,0.007330382858376185,-0.04001167310197001,0.16898000000000002,0.21630000000000002,-0.4426800000000001,7.5,0,9080,8702,13679,32940,16.1067578125,203998,21.61167836019619,1027.4532413668055,0,40.689221,-73.99176,1.23,19:22:15,
2024-03-25T15:22:20,-3.2063822839999996,1.5702898312499998,9.5509514079,0.03481931857728687,0.005039638215133627,-0.03481931857728687,0.16450000000000004,0.22274000000000002,-0.44156000000000006,7.5,0,9080,8702,13679,32940,16.1067578125,203998,21.61167836019619,1027.4532413668055,0,40.689221,-73.99176,1.23,19:22:15,
2024-03-25T15:22:20,-3.2177481913499997,1.58703958945,9.619146851999998,0.03756821214917795,0.0013744467859455349,-0.04230241774521256,0.16338000000000003,0.22666000000000003,-0.4459,7.5,1,9073,8695,13671,32924,16.1067578125,203998,21.61167836019619,1027.4532413668055,0,40.689221,-73.991756,1.23,19:22:16,
2024-03-25T15:22:20,-3.2051858726999995,1.58464676685,9.5772724565,0.036804630601430424,0.0013744467859455349,-0.03665191429188092,0.16506,0.21994000000000002,-0.44408000000000003,7.5,1,9073,8695,13671,32924,16.33859375,205514,21.630626175789246,1027.4496257757216,0,40.689221,-73.991756,1.23,19:22:16,
2024-03-25T15:22:20,-3.24167641735,1.58703958945,9.557531670049999,0.03390302071998985,0.005039638215133627,-0.036499197982331415,0.17094000000000004,0.21994000000000002,-0.44758000000000003,7.5,1,9073,8695,13671,32924,16.33859375,205514,21.630626175789246,1027.4496257757216,0,40.689221,-73.991756,1.23,19:22:16,
2024-03-25T15:22:20,-3.21176613485,1.5720844482,9.614361206799998,0.03756821214917795,0.0007635815477475193,-0.03451388595818787,0.1659,0.22862000000000005,-0.43372000000000005,7.5,1,9073,8695,13671,32924,16.33859375,205514,21.630626175789246,1027.4496257757216,0,40.689221,-73.991756,0.63,19:22:16,
2024-03-25T15:22:20,-3.2015966387999995,1.5888342063999998,9.608977355949998,0.038484510006474966,0.002901609881440573,-0.03375030441044035,0.16702,0.22162000000000004,-0.44310000000000005,7.5,1,9073,8695,13671,32924,16.33859375,205514,21.630626175789246,1027.4496257757216,0,40.689221,-73.991756,0.63,19:22:16,
2024-03-25T15:22:20,-3.2380871834499994,1.5613167465000002,9.5461657627,0.036499197982331415,0.008704829644321718,-0.03543018381548489,0.16478000000000004,0.21546,-0.42434000000000005,7.5,1,9073,8695,13671,32924,16.5407421875,209009,21.65300486674931,1027.4536356164404,0,40.689221,-73.991758,0.63,19:22:17,
2024-03-25T15:22:20,-3.2231320422,1.5475580165499996,9.57547783955,0.039858956792420505,0.004886921905584123,-0.03665191429188092,0.1603,0.22498,-0.44142000000000003,7.5,1,9073,8695,13671,32924,16.5407421875,209009,21.65300486674931,1027.4536356164404,0,40.689221,-73.991758,0.63,19:22:17,
2024-03-25T15:22:20,-3.2410782117,1.5684952143,9.56351372655,0.03695734691097993,-0.0009162978572970231,-0.038179077387375956,0.16254000000000002,0.22078000000000003,-0.43078000000000005,7.5,1,9073,8695,13671,32924,16.5407421875,209009,21.65300486674931,1027.4536356164404,0,40.689221,-73.991758,0.63,19:22:17,
2024-03-25T15:22:20,-3.218346397,1.5619149521499998,9.56351372655,0.0355829001250344,0.006719517620178169,-0.03772092845872745,0.16114,0.22918000000000002,-0.42630000000000007,7.5,1,9073,8695,13671,32924,16.5407421875,209009,21.65300486674931,1027.4536356164404,0,40.689221,-73.991758,0.28,19:22:17,
2024-03-25T15:22:20,-3.2285158930499995,1.5684952143,9.5545406418,0.03466660226773738,0.0036651914291880926,-0.036804630601430424,0.15554,0.22582000000000002,-0.42224000000000006,7.5,1,9073,8695,13671,32924,16.71359375,210334,21.653015515608956,1027.4537094239347,0,40.689221,-73.991758,0.28,19:22:17,
2024-03-25T15:22:20,-3.22133742525,1.5690934199499997,9.6083791503,0.03527746750593539,0.004123340357836604,-0.03283400655314333,0.15946000000000002,0.21742,-0.43484,7.5,1,9073,8695,13671,32924,16.71359375,210334,21.653015515608956,1027.4537094239347,0,40.689225,-73.991761,0.28,19:22:18,
2024-03-25T15:22:20,-3.21176613485,1.5762718877499997,9.5736832226,0.04077525464971753,0.001069014166846527,-0.03756821214917795,0.15582000000000001,0.22806000000000004,-0.43624000000000007,7.5,1,9073,8695,13671,32924,16.71359375,210334,21.653015515608956,1027.4537094239347,0,40.689225,-73.991761,0.28,19:22:18,
2024-03-25T15:22:20,-3.2255248647999997,1.5780665047,9.595218626,0.03543018381548489,0.0019853120241435504,-0.03298672286269283,0.1589,0.22414,-0.44058,7.5,1,9073,8695,13671,32924,16.71359375,210334,21.653015515608956,1027.4537094239347,0,40.689225,-73.991761,0.28,19:22:18,
2024-03-25T15:22:20,-3.22492665915,1.5768700934,9.580263484749999,0.03695734691097993,0.003970624048287101,-0.03741549583962844,0.16338000000000003,0.22162000000000004,-0.43932000000000004,7.5,1,9073,8695,13671,32924,16.8610546875,212899,21.667011147432515,1027.4565079842127,0,40.689225,-73.991761,0.28,19:22:18,
2024-03-25T15:22:20,-3.22014101395,1.5864413838,9.708877699499999,0.0319177086958463,0.0056505034533316425,-0.030848694528999777,0.16702,0.22862000000000005,-0.44114000000000003,7.5,1,9073,8695,13671,32924,16.8610546875,212899,21.667011147432515,1027.4565079842127,0,40.689225,-73.991761,0.28,19:22:18,
2024-03-25T15:22:20,-3.2291140986999998,1.5684952143,9.562915520899999,0.03481931857728687,0.006414085001079162,-0.0355829001250344,0.16198,0.2247,-0.44086000000000003,7.5,0,9083,8702,13695,32974,16.8610546875,212899,21.667011147432515,1027.4565079842127,0,40.689225,-73.991761,0.28,19:22:18,
2024-03-25T15:22:20,-3.2374889777999996,1.5858431781499998,9.562317315249999,0.03512475119638588,0.0022907446432425577,-0.03634648167278191,0.16366000000000003,0.22862000000000005,-0.43400000000000005,7.5,0,9083,8702,13695,32974,16.8610546875,212899,21.667011147432515,1027.4565079842127,0,40.689225,-73.991761,0.28,19:22:18,
2024-03-25T15:22:20,-3.2135607518,1.57746829905,9.56471013785,0.0357356164345839,0.003970624048287101,-0.03772092845872745,0.16310000000000002,0.22722000000000003,-0.43414,7.5,0,9083,8702,13695,32974,16.987421875,214412,21.690092511116315,1027.457023573638,0,40.689225,-73.991761,0.28,19:22:18,
2024-03-25T15:22:21,-3.24526565125,1.5655041860499999,9.57428142825,0.03344487179134134,0.002901609881440573,-0.03665191429188092,0.15498,0.22442,-0.44800000000000006,7.5,0,9083,8702,13695,32974,16.987421875,214412,21.690092511116315,1027.457023573638,0,40.689225,-73.991761,0.28,19:22:18,
2024-03-25T15:22:21,-3.2368907721499993,1.5912270289999997,9.4983093107,0.03451388595818787,0.008399397025222712,-0.03772092845872745,0.1603,0.22722000000000003,-0.44016000000000005,7.5,0,9083,8702,13695,32974,16.987421875,214412,21.690092511116315,1027.457023573638,0,40.689225,-73.991761,0.81,19:22:18,
2024-03-25T15:22:21,-3.2135607518,1.57507547645,9.5688975774,0.0355829001250344,0.00473420559603462,-0.03390302071998985,0.16254000000000002,0.22274000000000002,-0.43176000000000003,7.5,0,9083,8702,13695,32974,16.987421875,214412,21.690092511116315,1027.457023573638,0,40.689225,-73.991761,0.81,19:22:18,
2024-03-25T15:22:21,-3.2315069213,1.5649059803999998,9.607182738999999,0.0316122760767473,0.0044287729769356115,-0.03375030441044035,0.16254000000000002,0.22162000000000004,-0.43736,7.5,0,9083,8702,13695,32974,17.0958203125,216228,21.68110464933071,1027.460565897176,0,40.689226,-73.991766,0.81,19:22:19,
2024-03-25T15:22:21,-3.2177481913499997,1.5595221295499997,9.55992449265,0.03390302071998985,0.004123340357836604,-0.03756821214917795,0.16450000000000004,0.22190000000000004,-0.43750000000000006,7.5,0,9083,8702,13695,32974,17.0958203125,216228,21.68110464933071,1027.460565897176,0,40.689226,-73.991766,0.81,19:22:19,
2024-03-25T15:22:21,-3.21535536875,1.5744772707999999,9.5617191096,0.03756821214917795,0.0033597588100890844,-0.0357356164345839,0.16226000000000002,0.22190000000000004,-0.43638000000000005,7.5,0,9083,8702,13695,32974,17.0958203125,216228,21.68110464933071,1027.460565897176,0,40.689226,-73.991766,0.81,19:22:19,
2024-03-25T15:22:21,-3.2285158930499995,1.5786647103499998,9.597611448599999,0.038331793696925465,0.00595593607243065,-0.03756821214917795,0.16618,0.22218000000000004,-0.43792000000000003,7.5,0,9083,8702,13695,32974,17.0958203125,216228,21.68110464933071,1027.460565897176,0,40.689226,-73.991766,0.98,19:22:19,
2024-03-25T15:22:21,-3.1980074049,1.5840485612,9.69033332435,0.038331793696925465,0.00595593607243065,-0.03390302071998985,0.16814,0.22526000000000002,-0.43582000000000004,7.5,0,9083,8702,13695,32974,17.188203125,217504,21.67632386730987,1027.4616606617933,0,40.689226,-73.991766,0.98,19:22:19,
2024-03-25T15:22:21,-3.2207392195999995,1.567298803,9.579665279099999,0.0355829001250344,0.0006108652381980154,-0.03634648167278191,0.16114,0.22050000000000003,-0.42168000000000005,7.5,0,9083,8702,13695,32974,17.188203125,217504,21.67632386730987,1027.4616606617933,0,40.689228,-73.991763,0.98,19:22:20,
2024-03-25T15:22:21,-3.2392835947500003,1.57507547645,9.53240703275,0.03741549583962844,0.0036651914291880926,-0.036193765363232405,0.15722000000000003,0.22442,-0.42854000000000003,7.5,0,9083,8702,13695,32974,17.188203125,217504,21.67632386730987,1027.4616606617933,0,40.689228,-73.991763,0.98,19:22:20,
2024-03-25T15:22:21,-3.2350961551999995,1.5888342063999998,9.57787066215,0.0319177086958463,0.00595593607243065,-0.03329215548179184,0.16282000000000002,0.22358,-0.43400000000000005,7.5,0,9083,8702,13695,32974,17.188203125,217504,21.67632386730987,1027.4616606617933,0,40.689228,-73.991763,0.98,19:22:20,
2024-03-25T15:22:21,-3.242274623,1.5858431781499998,9.580263484749999,0.036499197982331415,0.0068722339297276735,-0.038942658935123484,0.16534000000000001,0.22582000000000002,-0.44450000000000006,7.5,0,9083,8702,13695,32974,17.2661328125,219373,21.67067540359523,1027.4664835833692,0,40.689228,-73.991763,0.23,19:22:20,
2024-03-25T15:22:21,-3.24167641735,1.5696916255999998,9.57188860565,0.00015271630954950385,0.005039638215133627,-0.03772092845872745,0.15582000000000001,0.22526000000000002,-0.43582000000000004,7.5,0,9083,8702,13695,32974,17.2661328125,219373,21.67067540359523,1027.4664835833692,0,40.689228,-73.991763,0.23,19:22:20,
2024-03-25T15:22:21,-3.2123643404999997,1.5589239239,9.5389872949,0.03527746750593539,0.0056505034533316425,-0.03497203488683638,0.15386000000000002,0.22526000000000002,-0.44114000000000003,7.5,0,9078,8700,13682,32936,17.2661328125,219373,21.67067540359523,1027.4664835833692,0,40.68923,-73.99177,0.23,19:22:21,
2024-03-25T15:22:21,-3.2207392195999995,1.5702898312499998,9.589834775149999,0.03481931857728687,0.002138028333693054,-0.03375030441044035,0.1617,0.22946,-0.44086000000000003,7.5,0,9078,8700,13682,32936,17.2661328125,219373,21.67067540359523,1027.4664835833692,0,40.68923,-73.99177,0.23,19:22:21,
2024-03-25T15:22:21,-3.2297123043499996,1.5864413838,9.531808827099999,0.03283400655314333,0.0027488935718910697,-0.03756821214917795,0.15722000000000003,0.22274000000000002,-0.44408000000000003,7.5,0,9078,8700,13682,32936,17.3313671875,219664,21.66943321174241,1027.4692170006176,0,40.68923,-73.99177,0.23,19:22:21,
2024-03-25T15:22:21,-3.2111679291999993,1.5762718877499997,9.598209654249999,0.03436116964863837,0.0024434609527920616,-0.03420845333908886,0.16366000000000003,0.22946,-0.4531800000000001,7.5,0,9078,8700,13682,32936,17.3313671875,219664,21.66943321174241,1027.4692170006176,0,40.68923,-73.99177,0.51,19:22:21,
2024-03-25T15:22:21,-3.2679974659499997,1.5655041860499999,9.558728081349999,0.03313943917224234,0.0007635815477475193,-0.03375030441044035,0.15974000000000002,0.22134000000000004,-0.4491200000000001,7.5,0,9078,8700,13682,32936,17.3313671875,219664,21.66943321174241,1027.4692170006176,0,40.68923,-73.99177,0.51,19:22:21,
2024-03-25T15:22:21,-3.2356943608499997,1.5816557385999996,9.5688975774,0.0357356164345839,0.003054326190990077,-0.036193765363232405,0.16506,0.22302000000000002,-0.44086000000000003,7.5,0,9078,8700,13682,32936,17.3313671875,219664,21.66943321174241,1027.4692170006176,0,40.689228,-73.991764,0.51,19:22:22,
2024-03-25T15:22:22,-3.24287282865,1.567298803,9.598209654249999,0.03787364476827696,0.00473420559603462,-0.03543018381548489,0.16422000000000003,0.22078000000000003,-0.43652,7.5,0,9078,8700,13682,32936,17.38703125,224875,21.652107048640612,1027.4751447400452,0,40.689228,-73.991764,0.51,19:22:22,
2024-03-25T15:22:22,-3.2350961551999995,1.5559328956499998,9.5509514079,0.07788531787024697,0.0036651914291880926,-0.036193765363232405,0.16786,0.23114,-0.43750000000000006,7.5,0,9078,8700,13682,32885,17.38703125,224875,21.652107048640612,1027.4751447400452,0,40.689228,-73.991764,0.51,19:22:22,
2024-03-25T15:22:22,-3.2219356309,1.5798611216499998,9.57428142825,0.04092797095926703,0.00473420559603462,-0.03588833274413341,0.16142,0.22498,-0.43862000000000007,7.5,1,9063,8691,13660,32885,17.38703125,224875,21.652107048640612,1027.4751447400452,0,40.689228,-73.991764,0.55,19:22:22,
2024-03-25T15:22:22,-3.2195428083000004,1.56071854085,9.5521478192,0.03390302071998985,0.0035124751196385882,-0.03634648167278191,0.16226000000000002,0.22582000000000002,-0.43638000000000005,7.5,1,9063,8691,13660,32885,17.38703125,224875,21.652107048640612,1027.4751447400452,0,40.689228,-73.991764,0.55,19:22:22,
2024-03-25T15:22:22,-3.2362925664999995,1.5954144685499996,9.57906707345,0.0357356164345839,0.0007635815477475193,-0.03527746750593539,0.16646,0.21798,-0.43666000000000005,7.5,1,9063,8691,13660,32885,16.95734375,203998,21.481798272419653,1027.495957483321,0,40.689228,-73.991764,0.55,19:22:23,
2024-03-25T15:22:23,-3.21535536875,1.57507547645,9.5401837062,0.03298672286269283,0.004123340357836604,-0.036193765363232405,0.17206,0.22050000000000003,-0.43652,7.5,1,9062,8689,13651,32875,16.7469921875,210869,21.49506391094869,1027.4802166850714,0,40.689228,-73.991764,0.55,19:22:23,
2024-03-25T15:22:23,-3.2015966387999995,1.5577275125999999,9.574879633899998,0.00015271630954950385,0.0044287729769356115,-0.03298672286269283,0.16310000000000002,0.22554000000000002,-0.42882000000000003,7.5,1,9062,8689,13651,32875,16.7469921875,210869,21.49506391094869,1027.4802166850714,0,40.689228,-73.991764,0.55,19:22:23,
2024-03-25T15:22:23,-3.1992038162,1.5637095691,9.6083791503,0.03924809155422249,0.006719517620178169,-0.038179077387375956,0.16814,0.21966000000000002,-0.44702000000000003,7.5,1,9062,8689,13651,32875,16.7469921875,210869,21.49506391094869,1027.4802166850714,0,40.689228,-73.991764,0.55,19:22:23,
2024-03-25T15:22:23,-3.2350961551999995,1.5942180572499998,9.583852718649998,0.03497203488683638,0.0018325957145940463,-0.03298672286269283,0.17178000000000002,0.2233,-0.42938000000000004,7.5,1,9062,8689,13651,32875,16.7469921875,210869,21.49506391094869,1027.4802166850714,0,40.689228,-73.991764,0.55,19:22:23,
2024-03-25T15:22:23,-3.2279176873999997,1.5499508391499999,9.486345197699999,0.036804630601430424,-0.001069014166846527,-0.03588833274413341,0.1729,0.2233,-0.42938000000000004,7.5,1,9062,8689,13651,32875,16.2192578125,195120,21.29395370079933,1027.4940079202117,0,40.689228,-73.991764,0.55,19:22:23,
2024-03-25T15:22:23,-3.2159535744,1.5684952143,9.53121062145,0.038942658935123484,0.00045814892864851157,-0.03390302071998985,0.15918000000000002,0.21882000000000001,-0.45122,7.5,1,9062,8689,13651,32875,16.2192578125,195120,21.29395370079933,1027.4940079202117,0,40.689228,-73.991764,0.55,19:22:23,
2024-03-25T15:22:23,-3.2303105099999994,1.5583257182499999,9.579665279099999,0.03268129024359383,0.002138028333693054,-0.03268129024359383,0.16870000000000002,0.22834000000000004,-0.42686,7.5,1,9062,8689,13651,32875,16.2192578125,195120,21.29395370079933,1027.4940079202117,0,40.689228,-73.991764,0.55,19:22:23,
2024-03-25T15:22:23,-3.2231320422,1.5547364843499998,9.561120903949998,0.036193765363232405,-0.039095375244672985,-0.03390302071998985,0.16842000000000001,0.22246000000000002,-0.43694000000000005,7.5,1,9062,8689,13651,32875,16.0165234375,203124,21.33347683247151,1027.4728963641053,0,40.689228,-73.991764,0.55,19:22:23,
2024-03-25T15:22:23,-3.07776806925,1.5529418674,9.53479985535,0.037110063220529434,0.0044287729769356115,-0.038179077387375956,0.16506,0.22246000000000002,-0.42322000000000004,7.5,1,9062,8689,13651,32875,16.0165234375,203124,21.33347683247151,1027.4728963641053,0,40.689228,-73.991764,0.47,19:22:23,
2024-03-25T15:22:23,-3.2327033326,1.5649059803999998,9.55035320225,0.03634648167278191,0.0015271630954950385,-0.03466660226773738,0.16254000000000002,0.22666000000000003,-0.45150000000000007,7.5,1,9062,8689,13651,32875,16.0165234375,203124,21.33347683247151,1027.4728963641053,0,40.689228,-73.991764,0.47,19:22:23,
2024-03-25T15:22:23,-3.218346397,1.55114725045,9.576076045199999,0.037110063220529434,0.0025961772623415654,-0.03787364476827696,0.16786,0.21602000000000002,-0.44254000000000004,7.5,1,9068,8692,13661,32897,16.0165234375,203124,21.33347683247151,1027.4728963641053,0,40.689228,-73.991763,0.47,19:22:24,
2024-03-25T15:22:24,-3.2362925664999995,1.5702898312499998,9.54676396835,0.03451388595818787,0.005192354524683131,-0.03512475119638588,0.16450000000000004,0.22918000000000002,-0.42686,7.5,1,9068,8692,13661,32897,16.052265625,208353,21.366434162043806,1027.4595267977033,0,40.689228,-73.991763,0.47,19:22:24,
2024-03-25T15:22:24,-3.26321182075,1.5499508391499999,9.5641119322,0.03695734691097993,0.005192354524683131,-0.039095375244672985,0.16366000000000003,0.22610000000000002,-0.44086000000000003,7.5,1,9068,8692,13661,32897,16.052265625,208353,21.366434162043806,1027.4595267977033,0,40.689228,-73.991763,0.47,19:22:24,
2024-03-25T15:22:24,-3.2763723450499995,1.5948162628999998,9.5772724565,0.037110063220529434,0.0024434609527920616,-0.038942658935123484,0.1617,0.22722000000000003,-0.43652,7.5,1,9068,8692,13661,32897,16.052265625,208353,21.366434162043806,1027.4595267977033,0,40.689228,-73.991763,0.25,19:22:24,
2024-03-25T15:22:24,-3.2177481913499997,1.5756736821,9.566504754799999,0.03375030441044035,0.0036651914291880926,-0.03252857393404432,0.16646,0.22498,-0.4438000000000001,7.5,1,9068,8692,13661,32897,16.052265625,208353,21.366434162043806,1027.4595267977033,0,40.689228,-73.991763,0.25,19:22:24,
2024-03-25T15:22:24,-3.2033912557499997,1.5984054967999999,9.513862657599999,0.03298672286269283,0.005803219762881146,-0.03436116964863837,0.16394000000000003,0.21042000000000002,-0.43148000000000003,7.5,1,9068,8692,13661,32897,15.7458203125,195581,21.230288351308854,1027.4701569880413,0,40.689226,-73.99176,0.25,19:22:25,
2024-03-25T15:22:25,-3.2344979495499997,1.54875442785,9.607182738999999,0.0357356164345839,0.00595593607243065,-0.03756821214917795,0.16394000000000003,0.2247,-0.4548600000000001,7.5,1,9073,8694,13676,32923,15.68703125,202011,21.26794412917116,1027.4567951355277,0,40.689226,-73.99176,0.25,19:22:25,
2024-03-25T15:22:25,-3.2668010546499997,1.5792629159999998,9.5772724565,0.030390545600351267,0.0044287729769356115,-0.038637226316024474,0.16254000000000002,0.22778000000000004,-0.43470000000000003,7.5,1,9073,8694,13676,32923,15.68703125,202011,21.26794412917116,1027.4567951355277,0,40.689226,-73.99176,0.25,19:22:25,
2024-03-25T15:22:25,-3.2075786952999996,1.5702898312499998,9.589834775149999,0.038942658935123484,0.0070249502392771765,-0.03787364476827696,0.17038000000000003,0.22918000000000002,-0.45444000000000007,7.5,1,9073,8694,13676,32923,15.68703125,202011,21.26794412917116,1027.4567951355277,0,40.689226,-73.99176,0.31,19:22:25,
2024-03-25T15:22:25,-3.2087751065999996,1.5732808595,9.560522698299998,0.036804630601430424,0.0012217304763960308,-0.04001167310197001,0.15778,0.2233,-0.44576000000000005,7.5,1,9073,8694,13676,32923,15.68703125,202011,21.26794412917116,1027.4567951355277,0,40.689226,-73.99176,0.31,19:22:25,
2024-03-25T15:22:25,-3.2207392195999995,1.57268265385,9.598209654249999,0.038179077387375956,0.0018325957145940463,-0.036193765363232405,0.16366000000000003,0.22638000000000003,-0.44534,7.5,1,9073,8694,13676,32923,15.3743359375,188578,21.152260150409973,1027.4738949682496,0,40.689226,-73.991756,0.31,19:22:26,
2024-03-25T15:22:26,-3.2392835947500003,1.5954144685499996,9.580263484749999,0.03405573702953936,0.00473420559603462,-0.03344487179134134,0.16366000000000003,0.22414,-0.44184,7.5,1,9067,8691,13668,32896,15.339765625,197443,21.201546040204192,1027.457539025461,0,40.689226,-73.991756,0.31,19:22:26,
2024-03-25T15:22:26,-3.2123643404999997,1.5613167465000002,9.547362174,0.036499197982331415,0.00595593607243065,-0.03359758810089085,0.16394000000000003,0.21322000000000002,-0.44296,7.5,1,9067,8691,13668,32896,15.339765625,197443,21.201546040204192,1027.457539025461,0,40.689226,-73.991756,0.31,19:22:26,
2024-03-25T15:22:26,-3.21655178005,1.5954144685499996,9.5653083435,0.038637226316024474,0.0015271630954950385,-0.0355829001250344,0.16758,0.22386,-0.43988000000000005,7.5,1,9067,8691,13668,32896,15.339765625,197443,21.201546040204192,1027.457539025461,0,40.689226,-73.991756,0.43,19:22:26,
2024-03-25T15:22:26,-3.2285158930499995,1.5643077747499998,9.549754996599999,0.03420845333908886,0.0033597588100890844,-0.03512475119638588,0.16702,0.21658000000000002,-0.4461800000000001,7.5,1,9067,8691,13668,32896,15.339765625,197443,21.201546040204192,1027.457539025461,0,40.689226,-73.991756,0.43,19:22:26,
2024-03-25T15:22:26,-3.2111679291999993,1.5858431781499998,9.518648302799999,0.03802636107782646,0.005345070834232635,-0.03436116964863837,0.16646,0.22162000000000004,-0.44016000000000005,7.5,1,9067,8691,13668,32896,15.0872265625,186563,21.10492164777216,1027.4741930279683,0,40.689228,-73.991756,0.43,19:22:27,
2024-03-25T15:22:27,-3.0711878070999994,1.5589239239,9.566504754799999,0.03390302071998985,0.004886921905584123,-0.03756821214917795,0.15974000000000002,0.21630000000000002,-0.4543000000000001,7.5,0,9053,8682,13640,32846,15.1040234375,195811,21.162260525489096,1027.448235843746,0,40.689228,-73.991756,0.43,19:22:27,
2024-03-25T15:22:27,-3.2141589574499996,1.5936198515999997,9.559326287,0.041080687268816536,0.006108652381980154,-0.039400807863771994,0.1603,0.21826,-0.4438000000000001,7.5,0,9053,8682,13640,32846,15.1040234375,195811,21.162260525489096,1027.448235843746,0,40.689228,-73.991756,0.43,19:22:27,
2024-03-25T15:22:27,-3.2506495021,1.5816557385999996,9.5617191096,0.031764992386296806,0.0024434609527920616,-0.03772092845872745,0.1673,0.22190000000000004,-0.44702000000000003,7.5,0,9053,8682,13640,32846,15.1040234375,195811,21.162260525489096,1027.448235843746,0,40.689228,-73.991756,0.28,19:22:27,
2024-03-25T15:22:27,-3.2009984331499997,1.5667005973499997,9.5545406418,0.03344487179134134,0.006108652381980154,-0.03695734691097993,0.16114,0.21826,-0.44772,7.5,0,9053,8682,13640,32846,14.89484375,187084,21.088726676516714,1027.4678576154652,0,40.689228,-73.991756,0.28,19:22:27,
2024-03-25T15:22:27,-3.2446674455999998,1.5720844482,9.52163933105,0.03741549583962844,0.005192354524683131,-0.038484510006474966,0.16450000000000004,0.2247,-0.43512000000000006,7.5,0,9053,8682,13640,32846,14.89484375,187084,21.088726676516714,1027.4678576154652,0,40.689226,-73.991755,0.28,19:22:28,
2024-03-25T15:22:28,-3.2297123043499996,1.5924234403,9.551549613549998,0.03527746750593539,0.0038179077387375964,-0.038942658935123484,0.16702,0.22638000000000003,-0.45402000000000003,7.5,0,9064,8689,13666,32900,14.94484375,195120,21.147948856502083,1027.4437447422722,0,40.689226,-73.991755,0.28,19:22:28,
2024-03-25T15:22:28,-3.1986056105499996,1.5930216459499997,9.56829937175,0.03222314131494531,0.001069014166846527,-0.03588833274413341,0.16758,0.21322000000000002,-0.44828,7.5,0,9064,8689,13666,32900,14.94484375,195120,21.147948856502083,1027.4437447422722,0,40.689226,-73.991755,0.28,19:22:28,
2024-03-25T15:22:28,-3.2255248647999997,1.5744772707999999,9.54676396835,0.03695734691097993,0.0025961772623415654,-0.03252857393404432,0.15918000000000002,0.22022000000000003,-0.44772,7.5,0,9064,8689,13666,32900,14.94484375,195120,21.147948856502083,1027.4437447422722,0,40.689226,-73.991755,0.28,19:22:28,
2024-03-25T15:22:28,-3.24167641735,1.5655041860499999,9.56351372655,0.03527746750593539,0.0056505034533316425,-0.03756821214917795,0.1729,0.22078000000000003,-0.44996,7.5,0,9064,8689,13666,32900,14.94484375,195120,21.147948856502083,1027.4437447422722,0,40.689226,-73.991755,0.28,19:22:28,
2024-03-25T15:22:28,-3.0723842184,1.5834503555499997,9.509675218049999,0.037110063220529434,0.0038179077387375964,-0.03436116964863837,0.16646,0.22274000000000002,-0.44128,7.5,0,9064,8689,13666,32900,14.7649609375,185644,21.086385318928546,1027.4672172856274,0,40.689226,-73.991755,0.28,19:22:28,
2024-03-25T15:22:28,-3.2087751065999996,1.5690934199499997,9.580263484749999,0.03634648167278191,0.0015271630954950385,-0.036193765363232405,0.15918000000000002,0.21854,-0.42980000000000007,7.5,0,9064,8689,13666,32900,14.7649609375,185644,21.086385318928546,1027.4672172856274,0,40.689226,-73.991755,0.28,19:22:28,
2024-03-25T15:22:28,-3.2273194817499995,1.5834503555499997,9.5449693514,0.036804630601430424,0.0027488935718910697,-0.03726277953007894,0.1617,0.21798,-0.43722000000000005,7.5,0,9064,8689,13666,32900,14.7649609375,185644,21.086385318928546,1027.4672172856274,0,40.689226,-73.991755,0.28,19:22:28,
2024-03-25T15:22:28,-3.2327033326,1.54875442785,9.549156790949999,0.04123340357836604,0.002901609881440573,-0.036193765363232405,0.16422000000000003,0.21882000000000001,-0.45304,7.5,0,9064,8689,13666,32900,14.7649609375,185644,21.086385318928546,1027.4672172856274,0,40.689226,-73.991755,0.28,19:22:28,
2024-03-25T15:22:28,-3.2177481913499997,1.5798611216499998,9.57428142825,0.03481931857728687,0.0019853120241435504,-0.031001410838549282,0.16310000000000002,0.22358,-0.43358,7.5,0,9064,8689,13666,32900,14.839375,194207,21.157240316314212,1027.4546479647238,0,40.689226,-73.991755,0.88,19:22:28,
2024-03-25T15:22:28,-3.2177481913499997,1.57746829905,9.5772724565,0.03588833274413341,0.0009162978572970231,-0.03634648167278191,0.17150000000000004,0.21602000000000002,-0.44114000000000003,7.5,0,9052,8678,13642,32855,14.839375,194207,21.157240316314212,1027.4546479647238,0,40.689226,-73.991755,0.88,19:22:28,
2024-03-25T15:22:28,-3.25005129645,1.5637095691,9.55513884745,0.041996985126113565,0.005039638215133627,-0.0355829001250344,0.16702,0.22218000000000004,-0.44464000000000004,7.5,0,9052,8678,13642,32855,14.839375,194207,21.157240316314212,1027.4546479647238,0,40.689223,-73.99175,0.88,19:22:29,
2024-03-25T15:22:29,-3.2560333529499994,1.5643077747499998,9.5724868113,0.03436116964863837,0.001069014166846527,-0.03787364476827696,0.15582000000000001,0.21378000000000003,-0.43470000000000003,7.5,0,9052,8678,13642,32855,15.0942578125,202134,21.197581856688405,1027.4492548111275,0,40.689223,-73.99175,0.88,19:22:29,
2024-03-25T15:22:29,-3.2524441190499997,1.5834503555499997,9.56590654915,0.0355829001250344,0.0027488935718910697,-0.03252857393404432,0.16086,0.22946,-0.44366,7.5,1,9042,8673,13620,32809,15.0942578125,202134,21.197581856688405,1027.4492548111275,0,40.689223,-73.99175,0.88,19:22:29,
2024-03-25T15:22:29,-3.2135607518,1.5625131578,9.547960379649998,0.03726277953007894,0.006108652381980154,-0.03787364476827696,0.1673,0.22554000000000002,-0.44422,7.5,1,9042,8673,13620,32809,15.0942578125,202134,21.197581856688405,1027.4492548111275,0,40.689223,-73.99175,1.13,19:22:29,
2024-03-25T15:22:29,-3.2111679291999993,1.5762718877499997,9.51565727455,0.03695734691097993,0.0025961772623415654,-0.03466660226773738,0.16422000000000003,0.22526000000000002,-0.45150000000000007,7.5,1,9042,8673,13620,32809,15.0942578125,202134,21.197581856688405,1027.4492548111275,0,40.689223,-73.99175,1.13,19:22:29,
2024-03-25T15:22:29,-3.21535536875,1.5834503555499997,9.5401837062,0.038637226316024474,0.004581489286485115,-0.038637226316024474,0.16366000000000003,0.22246000000000002,-0.4426800000000001,7.5,1,9042,8673,13620,32809,14.97453125,190746,21.13428960329656,1027.4659188458352,0,40.689223,-73.99175,1.13,19:22:30,
2024-03-25T15:22:30,-3.2075786952999996,1.5978072911499999,9.5485585853,0.038331793696925465,0.004581489286485115,-0.03405573702953936,0.16562000000000002,0.23058,-0.43344000000000005,7.5,0,9039,8669,13617,32794,15.0610546875,198863,21.19053455822055,1027.442192452985,0,40.689223,-73.99175,1.13,19:22:30,
2024-03-25T15:22:30,-3.19740919925,1.57746829905,9.5736832226,0.03375030441044035,0.002138028333693054,-0.0357356164345839,0.16394000000000003,0.22610000000000002,-0.4397400000000001,7.5,0,9039,8669,13617,32794,15.0610546875,198863,21.19053455822055,1027.442192452985,0,40.689223,-73.99175,1.13,19:22:30,
2024-03-25T15:22:30,-3.2063822839999996,1.58703958945,9.57188860565,0.03405573702953936,0.006261368691529657,-0.0357356164345839,0.16058,0.21966000000000002,-0.44394000000000006,7.5,0,9039,8669,13617,32794,15.0610546875,198863,21.19053455822055,1027.442192452985,0,40.689223,-73.99175,0.27,19:22:30,
2024-03-25T15:22:30,-3.2195428083000004,1.5601203352,9.5425765288,0.036499197982331415,0.0018325957145940463,-0.036804630601430424,0.16954000000000002,0.22442,-0.45402000000000003,7.5,0,9039,8669,13617,32794,15.0610546875,198863,21.19053455822055,1027.442192452985,0,40.689223,-73.99175,0.27,19:22:30,
2024-03-25T15:22:30,-3.1986056105499996,1.5780665047,9.549754996599999,0.03512475119638588,0.0038179077387375964,-0.03588833274413341,0.16198,0.22582000000000002,-0.44352,7.5,0,9039,8669,13617,32794,14.8723828125,189331,21.113040246039386,1027.4631644609722,0,40.689223,-73.991748,0.27,19:22:31,
2024-03-25T15:22:31,-3.2470602682,1.5595221295499997,9.59462042035,0.03527746750593539,0.002138028333693054,-0.038484510006474966,0.16002000000000002,0.22442,-0.43876000000000004,7.5,0,9042,8670,13614,32791,14.9341015625,198982,21.18319991028925,1027.43784347612,0,40.689223,-73.991748,0.27,19:22:31,
2024-03-25T15:22:31,-3.1824540579999994,1.5708880368999998,9.53360344405,0.03787364476827696,0.0015271630954950385,-0.03802636107782646,0.16394000000000003,0.22554000000000002,-0.43750000000000006,7.5,0,9042,8670,13614,32791,14.9341015625,198982,21.18319991028925,1027.43784347612,0,40.689223,-73.991748,0.27,19:22:31,
2024-03-25T15:22:31,-3.2051858726999995,1.5702898312499998,9.557531670049999,0.03695734691097993,0.003054326190990077,-0.039706240482871004,0.16758,0.22106000000000003,-0.44534,7.5,0,9042,8670,13614,32791,14.9341015625,198982,21.18319991028925,1027.43784347612,0,40.689223,-73.991748,0.13,19:22:31,
2024-03-25T15:22:31,-3.2333015382499997,1.5954144685499996,9.5246303593,0.03695734691097993,0.038789942625573975,-0.03665191429188092,0.1673,0.22414,-0.43246,7.5,0,9042,8670,13614,32791,14.9341015625,198982,21.18319991028925,1027.43784347612,0,40.689223,-73.991748,0.13,19:22:31,
2024-03-25T15:22:31,-3.19740919925,1.5984054967999999,9.54197832315,0.038331793696925465,0.005039638215133627,-0.03527746750593539,0.16898000000000002,0.22246000000000002,-0.43946,7.5,0,9042,8670,13614,32791,14.75421875,186984,21.106247044627867,1027.4578024610344,0,40.689225,-73.991751,0.13,19:22:32,
2024-03-25T15:22:32,-3.0646075449499994,1.5661023916999999,9.562915520899999,0.03665191429188092,0.0024434609527920616,-0.03375030441044035,0.15918000000000002,0.22246000000000002,-0.44114000000000003,7.5,1,9038,8669,13613,32788,14.827265625,196974,21.171912447862372,1027.4394156880614,0,40.689225,-73.991751,0.13,19:22:32,
2024-03-25T15:22:32,-3.2446674455999998,1.57268265385,9.547362174,0.04001167310197001,0.0003054326190990077,-0.03283400655314333,0.17150000000000004,0.22218000000000004,-0.43624000000000007,7.5,1,9038,8669,13613,32788,14.827265625,196974,21.171912447862372,1027.4394156880614,0,40.689225,-73.991751,0.13,19:22:32,
2024-03-25T15:22:32,-3.2386853890999996,1.5900306176999999,9.54197832315,0.03344487179134134,0.0019853120241435504,-0.03359758810089085,0.16870000000000002,0.22274000000000002,-0.43470000000000003,7.5,1,9038,8669,13613,32788,14.827265625,196974,21.171912447862372,1027.4394156880614,0,40.689225,-73.991751,0.15,19:22:32,
2024-03-25T15:22:32,-3.24287282865,1.5684952143,9.549156790949999,0.03695734691097993,0.004886921905584123,-0.03390302071998985,0.1659,0.23086,-0.4494,7.5,1,9038,8669,13613,32788,14.827265625,196974,21.171912447862372,1027.4394156880614,0,40.689225,-73.991751,0.15,19:22:32,
2024-03-25T15:22:32,-3.1914271427500003,1.5876377951,9.5880401582,0.036193765363232405,0.006261368691529657,-0.039706240482871004,0.16394000000000003,0.22274000000000002,-0.43638000000000005,7.5,1,9038,8669,13613,32788,14.6673046875,187089,21.101256539591336,1027.4561955119464,0,40.689226,-73.991753,0.15,19:22:33,
2024-03-25T15:22:33,-3.2303105099999994,1.5571293069499996,9.5545406418,0.03543018381548489,0.0024434609527920616,-0.03313943917224234,0.16702,0.21546,-0.4438000000000001,7.5,0,9053,8681,13651,32889,14.75578125,196159,21.17803942893858,1027.4394099983608,0,40.689226,-73.991753,0.15,19:22:33,
2024-03-25T15:22:33,-3.2321051269499996,1.5553346899999998,9.54197832315,0.03252857393404432,0.003207042500539581,-0.03604104905368291,0.16674,0.22050000000000003,-0.44100000000000006,7.5,0,9053,8681,13651,32889,14.75578125,196159,21.17803942893858,1027.4394099983608,0,40.689226,-73.991753,0.15,19:22:33,
2024-03-25T15:22:33,-3.2338997439,1.5840485612,9.553942436149999,0.03772092845872745,0.0007635815477475193,-0.03772092845872745,0.16478000000000004,0.22666000000000003,-0.44408000000000003,7.5,0,9053,8681,13651,32889,14.75578125,196159,21.17803942893858,1027.4394099983608,0,40.689226,-73.991753,0.15,19:22:33,
2024-03-25T15:22:33,-3.2027930501,1.5936198515999997,9.5401837062,0.03313943917224234,0.0027488935718910697,-0.031154127148098783,0.16058,0.22498,-0.44870000000000004,7.5,0,9053,8681,13651,32889,14.75578125,196159,21.17803942893858,1027.4394099983608,0,40.689226,-73.991753,0.15,19:22:33,
2024-03-25T15:22:33,-3.2081769009499994,1.5661023916999999,9.53240703275,0.03756821214917795,0.0056505034533316425,-0.03207042500539581,0.16954000000000002,0.22498,-0.4277,7.5,0,9053,8681,13651,32889,14.60265625,186773,21.118022482644246,1027.4571919960838,0,40.689226,-73.991753,0.15,19:22:33,
2024-03-25T15:22:33,-3.2392835947500003,1.5996019081,9.558129875699999,0.038179077387375956,0.005192354524683131,-0.03237585762449482,0.16618,0.22554000000000002,-0.43596,7.5,0,9053,8681,13651,32889,14.60265625,186773,21.118022482644246,1027.4571919960838,0,40.689226,-73.991753,0.15,19:22:33,
2024-03-25T15:22:33,-3.2147571630999994,1.5714862425499996,9.547362174,0.03405573702953936,0.0033597588100890844,-0.030695978219450276,0.16226000000000002,0.22582000000000002,-0.44212000000000007,7.5,1,9051,8680,13636,32842,14.60265625,186773,21.118022482644246,1027.4571919960838,0,40.689226,-73.991753,0.15,19:22:33,
2024-03-25T15:22:33,-3.2171499857,1.56311136345,9.547362174,0.03481931857728687,0.005803219762881146,-0.03436116964863837,0.1659,0.22414,-0.45192,7.5,1,9051,8680,13636,32842,14.60265625,186773,21.118022482644246,1027.4571919960838,0,40.689226,-73.991753,0.15,19:22:33,
2024-03-25T15:22:33,-3.19381996535,1.59900370245,9.5880401582,0.039400807863771994,-0.0003054326190990077,-0.03420845333908886,0.16646,0.21966000000000002,-0.4536,7.5,1,9051,8680,13636,32842,14.699140625,195120,21.185022363953575,1027.4399639345932,0,40.689226,-73.991753,0.13,19:22:33,
2024-03-25T15:22:33,-3.2315069213,1.5786647103499998,9.552746024849998,0.03588833274413341,0.006108652381980154,-0.03359758810089085,0.15582000000000001,0.22358,-0.4368000000000001,7.5,1,9051,8680,13636,32842,14.699140625,195120,21.185022363953575,1027.4399639345932,0,40.689226,-73.991753,0.13,19:22:33,
2024-03-25T15:22:33,-3.22373024785,1.57268265385,9.53360344405,0.03313943917224234,-0.0012217304763960308,-0.03420845333908886,0.16310000000000002,0.22358,-0.44744000000000006,7.5,1,9051,8680,13636,32842,14.699140625,195120,21.185022363953575,1027.4399639345932,0,40.689226,-73.991751,0.13,19:22:34,
2024-03-25T15:22:34,-3.1980074049,1.5696916255999998,9.5389872949,0.03375030441044035,0.0054977871437821395,-0.028405233576207715,0.16058,0.22582000000000002,-0.45472,7.5,1,9055,8683,13644,32866,14.971015625,203248,21.246854207521434,1027.4336654833814,0,40.689226,-73.991751,0.13,19:22:34,
2024-03-25T15:22:34,-3.2303105099999994,1.5655041860499999,9.5653083435,0.03497203488683638,0.00045814892864851157,-0.036804630601430424,0.16226000000000002,0.21826,-0.4459,7.5,1,9055,8683,13644,32866,14.971015625,203248,21.246854207521434,1027.4336654833814,0,40.689226,-73.991751,0.13,19:22:34,
2024-03-25T15:22:34,-3.2488548851499996,1.5661023916999999,9.54197832315,0.036499197982331415,0.0035124751196385882,-0.03466660226773738,0.16338000000000003,0.22582000000000002,-0.43652,7.5,1,9055,8683,13644,32866,14.971015625,203248,21.246854207521434,1027.4336654833814,0,40.689226,-73.991751,0.45,19:22:34,
2024-03-25T15:22:34,-3.19381996535,1.5708880368999998,9.59462042035,0.03252857393404432,0.0038179077387375964,-0.0357356164345839,0.15918000000000002,0.21882000000000001,-0.43806000000000006,7.5,1,9055,8683,13644,32866,14.971015625,203248,21.246854207521434,1027.4336654833814,0,40.689226,-73.991751,0.45,19:22:34,
2024-03-25T15:22:34,-3.25364053035,1.5696916255999998,9.628718142399999,0.03466660226773738,0.0018325957145940463,-0.03512475119638588,0.16086,0.21798,-0.43414,7.5,1,9055,8683,13644,32866,14.8817578125,193527,21.18530361082901,1027.4562345248548,0,40.689223,-73.991748,0.45,19:22:35,
2024-03-25T15:22:35,-3.2063822839999996,1.5804593272999998,9.57428142825,0.038637226316024474,0.0033597588100890844,-0.037110063220529434,0.16366000000000003,0.22134000000000004,-0.42658,7.5,1,9043,8675,13625,32813,14.985859375,201520,21.22720189503722,1027.4447512429701,0,40.689223,-73.991748,0.45,19:22:35,
