Timestamp,Accel_X,Accel_Y,Accel_Z,Gyro_X,Gyro_Y,Gyro_Z,Mag_X,Mag_Y,Mag_Z,Lux,IR,Full_Spectrum,Temp,Switch_Pressed
2024-03-10T11:44:21,-0.39720855159999996,-0.51385865335,9.77767134925,-0.009315694882519735,0.0013744467859455349,-0.0038179077387375964,-0.72618,0.42434000000000005,-1.6828,22.240896,148,9699707,11.5,0
2024-03-10T11:44:21,-0.40438701939999994,-0.52223353245,9.789635462249999,-0.026725354171163174,-0.0016798794050445422,-0.01466076571675237,-0.7222600000000001,0.42686,-1.6849,22.240896,148,9699707,11.5,0
2024-03-10T11:44:21,-0.40618163634999993,-0.50548377425,9.812965482600001,-0.03436116964863837,0.0016798794050445422,-0.015577063574049392,-0.7222600000000001,0.42686,-1.6849,22.240896,148,9699707,11.5,0
2024-03-10T11:44:21,-0.41276189849999995,-0.50548377425,9.816554716499999,-0.03787364476827696,0.0018325957145940463,-0.015882496193148403,-0.7256200000000002,0.43302,-1.6835000000000002,22.240896,148,9699707,11.5,0
2024-03-10T11:44:21,-0.41036907589999994,-0.50548377425,9.78604622835,-0.04321871560250959,0.003054326190990077,-0.015882496193148403,-0.7208600000000001,0.43022000000000005,-1.6822400000000002,22.240896,148,9699707,11.5,0
2024-03-10T11:44:21,-0.38344982164999997,-0.5192425042,9.800403163949998,-0.051312680008633295,0.004276056667386108,-0.01863138976503947,-0.7208600000000001,0.43022000000000005,-1.6822400000000002,22.240896,148,9699707,11.5,0
2024-03-10T11:44:21,-0.41455651544999994,-0.5347958510999999,9.816554716499999,-0.0514653963181828,0.006414085001079162,-0.018784106074588976,-0.7203,0.43134000000000006,-1.68868,22.240896,148,9699707,11.5,0
2024-03-10T11:44:21,-0.37686955949999995,-0.5324030285,9.784849817049999,-0.051770828937281806,0.004886921905584123,-0.018173240836390957,-0.71946,0.42882000000000003,-1.6770600000000002,22.240896,148,9699707,11.5,0
2024-03-10T11:44:22,-0.40438701939999994,-0.4989035121,9.8057870148,-0.04092797095926703,0.004886921905584123,-0.014813482026301873,-0.71946,0.42882000000000003,-1.6770600000000002,22.240896,148,9699707,11.5,0
2024-03-10T11:44:22,-0.42652062845,-0.51026941945,9.8045906035,-0.0316122760767473,0.006261368691529657,-0.018478673455489966,-0.7119000000000001,0.43106000000000005,-1.6784600000000003,22.240896,148,9699707,11.5,0
2024-03-10T11:44:22,-0.3978067572499999,-0.5252245607,9.6526463684,-0.029932396671702752,-0.001069014166846527,-0.01710422666954443,-0.7270200000000001,0.42602000000000007,-1.67412,22.240896,148,9699707,11.5,0
2024-03-10T11:44:22,-0.40319060809999996,-0.5144568589999999,9.7962157244,-0.02351831167062359,0.00015271630954950385,-0.013897184169004852,-0.7270200000000001,0.42602000000000007,-1.67412,22.240896,148,9699707,11.5,0
2024-03-10T11:44:22,-0.39421752335,-0.52821558895,9.83629550295,-0.022143864884678056,0.0009162978572970231,-0.015729779883598898,-0.7231000000000001,0.42910000000000004,-1.67216,22.240896,148,9699707,11.5,0
2024-03-10T11:44:22,-0.41874395499999995,-0.5060819798999999,9.79083187355,-0.02138028333693054,0.0013744467859455349,-0.013439035240356337,-0.7208600000000001,0.43582000000000004,-1.6742600000000003,22.240896,148,9699707,11.5,0
2024-03-10T11:44:22,-0.41635113239999993,-0.5324030285,9.812965482600001,-0.004123340357836604,0.0018325957145940463,-0.012217304763960308,-0.7208600000000001,0.43582000000000004,-1.6742600000000003,22.240896,148,9699707,11.5,0
2024-03-10T11:44:22,-0.40677984199999995,-0.5294120002499999,9.811769071299999,-0.013286318930806834,-0.0015271630954950385,-0.014813482026301873,-0.7177800000000001,0.42882000000000003,-1.6842000000000004,22.240896,148,9699707,11.5,0
2024-03-10T11:44:22,-0.3960121403,-0.50907300815,9.81715292215,-0.008399397025222712,-0.001069014166846527,-0.013133602621257331,-0.7116200000000001,0.42826000000000003,-1.6644600000000003,22.240896,148,9699707,11.5,0
2024-03-10T11:44:22,-0.4157529267499999,-0.5156532703,9.8727860476,-0.010079276430267254,0.00015271630954950385,-0.01145372321621279,-0.7116200000000001,0.42826000000000003,-1.6644600000000003,22.240896,148,9699707,11.5,0
2024-03-10T11:44:22,-0.37866417645,-0.4755734917499999,9.75135030065,-0.0027488935718910697,-0.0003054326190990077,-0.012217304763960308,-0.7233800000000001,0.42938000000000004,-1.6770600000000002,22.240896,148,9699707,11.5,0
2024-03-10T11:44:22,-0.42412780585,-0.5324030285,9.811769071299999,0.00045814892864851157,-0.001069014166846527,-0.010995574287564279,-0.7233800000000001,0.42630000000000007,-1.6679600000000003,22.240896,148,9699707,11.5,0
2024-03-10T11:44:22,-0.41156548719999997,-0.5072783912,9.808179837399999,-0.0016798794050445422,0.0018325957145940463,-0.011759155835311796,-0.7233800000000001,0.42630000000000007,-1.6679600000000003,22.240896,148,9699707,11.5,0
2024-03-10T11:44:22,-0.40857445894999994,-0.5168496816,9.816554716499999,-0.006261368691529657,-0.0022907446432425577,-0.0119118721448613,-0.72758,0.43918000000000007,-1.68938,22.240896,148,9699707,11.5,0
2024-03-10T11:44:22,-0.4247260115,-0.51984070985,9.799206752649999,-0.017715091907742446,0.0015271630954950385,-0.014508049407202865,-0.72758,0.43918000000000007,-1.6737000000000002,22.240896,148,9699707,11.5,0
2024-03-10T11:44:22,-0.38045879339999994,-0.5084748025,9.76690364755,-0.014049900478554353,-0.0027488935718910697,-0.013133602621257331,-0.7256200000000002,0.43106000000000005,-1.6737000000000002,22.240896,148,9699707,11.5,0
2024-03-10T11:44:22,-0.3900300838,-0.4971088951499999,9.803394192199999,-0.018784106074588976,0.0003054326190990077,-0.014813482026301873,-0.7197400000000002,0.43806000000000006,-1.68686,22.240896,148,9699707,11.5,0
2024-03-10T11:44:22,-0.39720855159999996,-0.52462635505,9.848857821599998,-0.018173240836390957,0.0033597588100890844,-0.012522737383059314,-0.7197400000000002,0.43806000000000006,-1.68686,22.240896,148,9699707,11.5,0
2024-03-10T11:44:22,-0.4073780476499999,-0.5120640364,9.7878408453,-0.012980886311707827,-0.0024434609527920616,-0.012980886311707827,-0.72282,0.43078000000000005,-1.6767800000000002,22.240896,148,9699707,11.5,0
2024-03-10T11:44:22,-0.4193421606499999,-0.5300102058999999,9.9505527821,-0.017256942979093935,-0.0007635815477475193,-0.012675453692608819,-0.71694,0.43722000000000005,-1.6830800000000001,22.240896,148,9699707,11.5,0
2024-03-10T11:44:22,-0.41694933804999995,-0.51625147595,9.888339394499999,-0.013439035240356337,0.004581489286485115,-0.012370021073509813,-0.71694,0.43722000000000005,-1.6830800000000001,22.240896,148,9699707,11.5,0
2024-03-10T11:44:22,-0.40019957984999993,-0.50428736295,9.81356368825,-0.019394971312786988,0.0007635815477475193,-0.014966198335851376,-0.73122,0.42966000000000004,-1.6697800000000003,22.240896,148,9699707,11.5,0
2024-03-10T11:44:22,-0.41036907589999994,-0.5144568589999999,9.769894675799998,-0.013591751549905842,0.00015271630954950385,-0.013897184169004852,-0.7172200000000001,0.43694000000000005,-1.6765000000000003,22.240896,148,9699707,11.5,0
2024-03-10T11:44:22,-0.39062828945,-0.51625147595,9.8069834261,-0.01664607774089592,0.0019853120241435504,-0.013133602621257331,-0.7172200000000001,0.43694000000000005,-1.6765000000000003,22.240896,148,9699707,11.5,0
2024-03-10T11:44:22,-0.40259240244999994,-0.49531427819999996,9.79561751875,-0.010079276430267254,0.00045814892864851157,-0.013133602621257331,-0.7189000000000001,0.43442000000000003,-1.6755200000000001,22.240896,148,9699707,11.5,0
2024-03-10T11:44:22,-0.39182470075,-0.51266224205,9.821938567349997,-0.012217304763960308,0.0006108652381980154,-0.015882496193148403,-0.72646,0.43246,-1.67916,22.240896,148,9699707,11.5,0
2024-03-10T11:44:22,-0.38225341035,-0.52701917765,9.8261260069,-0.012522737383059314,0.0,-0.014355333097653362,-0.72646,0.43246,-1.67916,22.240896,148,9699707,11.5,0
2024-03-10T11:44:22,-0.4013959911499999,-0.5294120002499999,9.803394192199999,-0.012522737383059314,0.0003054326190990077,-0.014813482026301873,-0.7256200000000002,0.42546000000000006,-1.6809800000000001,22.240896,148,9699707,11.5,0
2024-03-10T11:44:22,-0.41156548719999997,-0.5120640364,9.810572659999998,-0.016493361431346415,-0.00045814892864851157,-0.013133602621257331,-0.7278600000000001,0.43274000000000007,-1.6783200000000003,22.240896,148,9699707,11.5,0
2024-03-10T11:44:22,-0.41096728154999995,-0.50907300815,9.807581631749999,-0.014202616788103858,0.0027488935718910697,-0.013286318930806834,-0.7278600000000001,0.43274000000000007,-1.6783200000000003,22.240896,148,9699707,11.5,0
2024-03-10T11:44:22,-0.38823546685,-0.5036891573,9.815956510849999,-0.012828170002158324,0.0003054326190990077,-0.013897184169004852,-0.7203,0.42882000000000003,-1.68294,22.240896,148,9699707,11.5,0
2024-03-10T11:44:22,-0.41694933804999995,-0.53180482285,9.7974121357,-0.012675453692608819,0.0006108652381980154,-0.011606439525762293,-0.7259000000000001,0.43106000000000005,-1.6720200000000003,22.240896,148,9699707,11.5,0
2024-03-10T11:44:22,-0.39182470075,-0.5168496816,9.812965482600001,-0.014966198335851376,-0.0022907446432425577,-0.011759155835311796,-0.7259000000000001,0.43106000000000005,-1.6720200000000003,22.240896,148,9699707,11.5,0
2024-03-10T11:44:22,-0.40438701939999994,-0.52821558895,9.94277610865,-0.016340645121796914,0.002901609881440573,-0.012675453692608819,-0.7233800000000001,0.43162000000000006,-1.6833600000000002,22.240896,148,9699707,11.5,0
2024-03-10T11:44:22,-0.40079778549999995,-0.51026941945,9.829715240799999,-0.018173240836390957,-0.0018325957145940463,-0.01114829059711378,-0.7222600000000001,0.43106000000000005,-1.67636,22.240896,148,9699707,11.5,0
2024-03-10T11:44:22,-0.40618163634999993,-0.4935196612499999,9.7974121357,-0.012522737383059314,-0.0012217304763960308,-0.014508049407202865,-0.7222600000000001,0.43106000000000005,-1.67636,22.240896,148,9699707,11.5,0
2024-03-10T11:44:22,-0.37926238209999996,-0.5108676251,9.80159957525,-0.016798794050445424,0.0007635815477475193,-0.014508049407202865,-0.73122,0.43862000000000007,-1.6802800000000002,22.240896,148,9699707,11.5,0
2024-03-10T11:44:22,-0.42293139455,-0.4989035121,9.79083187355,-0.017409659288643436,0.0009162978572970231,-0.013897184169004852,-0.72394,0.42518000000000006,-1.6713200000000001,22.240896,148,9699707,11.5,0
2024-03-10T11:44:22,-0.40558343069999997,-0.5084748025,9.82792062385,-0.014049900478554353,-0.0009162978572970231,-0.012370021073509813,-0.72394,0.42518000000000006,-1.6713200000000001,22.240896,148,9699707,11.5,0
2024-03-10T11:44:22,-0.40618163634999993,-0.5306084115499999,9.834500885999999,-0.016340645121796914,0.0016798794050445422,-0.012828170002158324,-0.7267400000000002,0.43554000000000004,-1.69036,22.240896,148,9699707,11.5,0
2024-03-10T11:44:22,-0.38644084989999994,-0.52223353245,9.660423041849999,-0.015271630954950386,0.0015271630954950385,-0.012217304763960308,-0.7292600000000001,0.43218000000000006,-1.6766400000000001,22.240896,148,9699707,11.5,0
2024-03-10T11:44:22,-0.39661034595,-0.51744788725,9.807581631749999,-0.015424347264499889,-0.002138028333693054,-0.014202616788103858,-0.7292600000000001,0.43218000000000006,-1.6766400000000001,22.240896,148,9699707,11.5,0
2024-03-10T11:44:22,-0.41754754369999997,-0.5192425042,9.8452685877,-0.016951510359994926,0.00015271630954950385,-0.014355333097653362,-0.73458,0.42546000000000006,-1.6941400000000002,22.240896,148,9699707,11.5,0
2024-03-10T11:44:22,-0.38943187814999997,-0.50907300815,9.762716207999999,-0.016340645121796914,-0.0024434609527920616,-0.013897184169004852,-0.72394,0.43386,-1.6905000000000003,22.240896,148,9699707,11.5,0
2024-03-10T11:44:22,-0.41276189849999995,-0.4899304273499999,9.829715240799999,-0.009010262263420728,0.0003054326190990077,-0.012828170002158324,-0.72394,0.43386,-1.6905000000000003,22.240896,148,9699707,11.5,0
2024-03-10T11:44:22,-0.3613162126,-0.5168496816,9.8069834261,-0.01664607774089592,0.0038179077387375964,-0.014049900478554353,-0.7289800000000001,0.43526000000000004,-1.67412,22.240896,148,9699707,11.5,0
2024-03-10T11:44:22,-0.41694933804999995,-0.53539405675,9.822536773,-0.015882496193148403,0.0012217304763960308,-0.013744467859455347,-0.7306600000000001,0.43190000000000006,-1.6751,22.240896,148,9699707,11.5,0
2024-03-10T11:44:22,-0.39900316855,-0.50787659685,9.7938229018,-0.012522737383059314,0.0022907446432425577,-0.010995574287564279,-0.7306600000000001,0.43190000000000006,-1.6751,22.240896,148,9699707,11.5,0
2024-03-10T11:44:22,-0.4247260115,-0.49292145559999995,9.82433138995,-0.012675453692608819,-0.0012217304763960308,-0.013439035240356337,-0.7284200000000001,0.42742,-1.6737000000000002,22.240896,148,9699707,11.5,0
2024-03-10T11:44:22,-0.42771703974999997,-0.5204389155,9.78245699445,-0.016798794050445424,0.0012217304763960308,-0.012828170002158324,-0.7284200000000001,0.46326000000000006,-1.6878400000000002,22.240896,148,9699707,11.5,0
2024-03-10T11:44:22,-0.4073780476499999,-0.4875376047499999,9.83509909165,-0.016798794050445424,-0.00045814892864851157,-0.015424347264499889,-0.7287,0.43302,-1.6878400000000002,21.973248,149,9765243,11.5,0
2024-03-10T11:44:22,-0.41216369284999993,-0.5060819798999999,9.8153583052,-0.014966198335851376,0.00015271630954950385,-0.0119118721448613,-0.7259000000000001,0.4333000000000001,-1.68042,21.973248,149,9765243,11.5,0
2024-03-10T11:44:22,-0.40438701939999994,-0.5294120002499999,9.789037256599999,-0.008246680715673207,-0.0022907446432425577,-0.012828170002158324,-0.7259000000000001,0.4333000000000001,-1.68042,21.973248,149,9765243,11.5,0
2024-03-10T11:44:22,-0.4133601041499999,-0.5264209719999999,9.810572659999998,-0.015577063574049392,0.0,-0.01466076571675237,-0.71946,0.42910000000000004,-1.67314,21.973248,149,9765243,11.5,0
2024-03-10T11:44:22,-0.4193421606499999,-0.5036891573,9.821938567349997,-0.013744467859455347,0.00045814892864851157,-0.012064588454410803,-0.7270200000000001,0.43246,-1.6724400000000001,21.973248,149,9765243,11.5,0
2024-03-10T11:44:22,-0.39840496289999994,-0.4959124838499999,9.79561751875,-0.01664607774089592,0.00045814892864851157,-0.014049900478554353,-0.7270200000000001,0.43246,-1.6724400000000001,21.973248,149,9765243,11.5,0
2024-03-10T11:44:22,-0.38045879339999994,-0.5192425042,9.76451082495,-0.014049900478554353,-0.0003054326190990077,-0.012828170002158324,-0.7177800000000001,0.43218000000000006,-1.6748200000000002,21.973248,149,9765243,11.5,0
2024-03-10T11:44:22,-0.38943187814999997,-0.5347958510999999,9.816554716499999,-0.015882496193148403,0.0022907446432425577,-0.012370021073509813,-0.72282,0.43078000000000005,-1.6849,22.136448,149,9765244,11.5,0
2024-03-10T11:44:22,-0.39840496289999994,-0.5000999234,9.7974121357,-0.016340645121796914,0.0012217304763960308,-0.012675453692608819,-0.72282,0.43078000000000005,-1.6849,22.136448,149,9765244,11.5,0
2024-03-10T11:44:22,-0.4223331889,-0.4959124838499999,9.81117086565,-0.018020524526841455,-0.039095375244672985,-0.012828170002158324,-0.7217,0.42826000000000003,-1.6738400000000002,22.136448,149,9765244,11.5,0
2024-03-10T11:44:22,-0.4283152454,-0.5012963347,9.7794659662,-0.015424347264499889,0.001069014166846527,-0.01710422666954443,-0.7200200000000001,0.44002,-1.6877000000000002,22.136448,149,9765244,11.5,0
2024-03-10T11:44:22,-0.38703905555,-0.5120640364,9.8045906035,-0.02260201381332657,-0.0016798794050445422,-0.012675453692608819,-0.7200200000000001,0.44002,-1.6877000000000002,22.136448,149,9765244,11.5,0
2024-03-10T11:44:23,-0.37627135385,-0.5168496816,9.7878408453,-0.013744467859455347,0.0003054326190990077,-0.012370021073509813,-0.71806,0.42798,-1.66992,22.136448,149,9765244,11.5,0
2024-03-10T11:44:23,-0.39302111205,-0.50907300815,9.82911703515,-0.015271630954950386,-0.0036651914291880926,-0.017409659288643436,-0.7219800000000001,0.4389,-1.6878400000000002,21.973248,149,9765243,11.5,0
2024-03-10T11:44:23,-0.41814574934999993,-0.51984070985,9.803394192199999,-0.014508049407202865,0.0015271630954950385,-0.01114829059711378,-0.7219800000000001,0.4389,-1.6878400000000002,21.973248,149,9765243,11.5,0
2024-03-10T11:44:23,-0.39720855159999996,-0.50787659685,9.80877804305,-0.014049900478554353,-0.0018325957145940463,-0.011759155835311796,-0.73234,0.43582000000000004,-1.6833600000000002,21.973248,149,9765243,11.5,0
2024-03-10T11:44:23,-0.4283152454,-0.5264209719999999,9.78843905095,-0.012980886311707827,0.004886921905584123,-0.011606439525762293,-0.72394,0.42686,-1.68392,21.973248,149,9765243,11.5,0
2024-03-10T11:44:23,-0.4073780476499999,-0.52821558895,9.810572659999998,-0.01710422666954443,-0.004581489286485115,-0.013439035240356337,-0.72534,0.42210000000000003,-1.6704800000000002,21.973248,149,9765243,11.5,0
2024-03-10T11:44:23,-0.38285161599999995,-0.5048855686,9.819545744749998,-0.011759155835311796,-0.0006108652381980154,-0.012828170002158324,-0.72534,0.42210000000000003,-1.6704800000000002,21.973248,149,9765243,11.5,0
2024-03-10T11:44:23,-0.41754754369999997,-0.5395814963,9.7914300792,-0.012064588454410803,0.0012217304763960308,-0.014355333097653362,-0.7186200000000001,0.43134000000000006,-1.6877000000000002,21.973248,149,9765243,11.5,0
2024-03-10T11:44:23,-0.44027935839999993,-0.48454657649999994,9.82911703515,-0.014508049407202865,0.00015271630954950385,-0.0119118721448613,-0.7222600000000001,0.43078000000000005,-1.68504,21.973248,149,9765243,11.5,0
2024-03-10T11:44:23,-0.39242290639999994,-0.5240281494,9.8261260069,-0.011301006906663285,0.0009162978572970231,-0.013591751549905842,-0.7222600000000001,0.43078000000000005,-1.68504,21.973248,149,9765243,11.5,0
2024-03-10T11:44:23,-0.40677984199999995,-0.5144568589999999,9.92243711655,-0.00946841119206924,-0.003207042500539581,-0.013439035240356337,-0.71806,0.43498000000000003,-1.67692,21.973248,149,9765243,11.5,0
2024-03-10T11:44:23,-0.4157529267499999,-0.51266224205,9.8153583052,-0.014813482026301873,-0.0006108652381980154,-0.012064588454410803,-0.7203,0.43190000000000006,-1.6815400000000003,21.973248,149,9765243,11.5,0
2024-03-10T11:44:23,-0.40259240244999994,-0.5060819798999999,9.808179837399999,-0.01145372321621279,-0.0007635815477475193,-0.011759155835311796,-0.7200200000000001,0.43414,-1.6748200000000002,21.973248,149,9765243,11.5,0
2024-03-10T11:44:23,-0.4193421606499999,-0.52701917765,9.816554716499999,-0.016951510359994926,0.0025961772623415654,-0.013133602621257331,-0.7200200000000001,0.43414,-1.6748200000000002,22.136448,149,9765244,11.5,0
2024-03-10T11:44:23,-0.39122649509999996,-0.5341976454499999,9.8321080634,-0.01786780821729195,-0.0016798794050445422,-0.012064588454410803,-0.7203,0.43778,-1.6702000000000001,22.136448,149,9765244,11.5,0
2024-03-10T11:44:23,-0.38763726119999997,-0.52821558895,9.841679353799998,-0.018478673455489966,-0.03802636107782646,-0.015882496193148403,-0.72618,0.42882000000000003,-1.6910600000000002,22.136448,149,9765244,11.5,0
2024-03-10T11:44:23,-0.4019941968,-0.51146583075,9.790233667899999,-0.012370021073509813,-0.0013744467859455349,-0.01145372321621279,-0.71694,0.42882000000000003,-1.6653000000000002,22.136448,149,9765244,11.5,0
2024-03-10T11:44:23,-0.4193421606499999,-0.50548377425,9.7818587888,-0.014813482026301873,0.0003054326190990077,-0.014355333097653362,-0.71694,0.42882000000000003,-1.6653000000000002,22.136448,149,9765244,11.5,0
2024-03-10T11:44:23,-0.42771703974999997,-0.4911268386499999,9.8560362894,-0.01786780821729195,0.003970624048287101,-0.014355333097653362,-0.7161000000000001,0.42826000000000003,-1.68266,22.136448,149,9765244,11.5,0
2024-03-10T11:44:23,-0.39182470075,-0.53898329065,9.802197780899998,-0.007941248096574201,-0.0027488935718910697,-0.00916297857297023,-0.71946,0.43554000000000004,-1.6692200000000001,22.136448,149,9765244,11.5,0
2024-03-10T11:44:23,-0.38584264425,-0.51625147595,9.7938229018,-0.01664607774089592,0.0033597588100890844,-0.012828170002158324,-0.7197400000000002,0.43386,-1.66782,22.136448,149,9765244,11.5,0
2024-03-10T11:44:23,-0.40558343069999997,-0.52821558895,9.816554716499999,-0.016035212502697904,-0.0036651914291880926,-0.01114829059711378,-0.7197400000000002,0.43386,-1.66782,22.136448,149,9765244,11.5,0
2024-03-10T11:44:23,-0.3696910917,-0.49950171774999996,9.811769071299999,-0.012370021073509813,0.0033597588100890844,-0.013133602621257331,-0.73094,0.44002,-1.6833600000000002,22.136448,149,9765244,11.5,0
2024-03-10T11:44:23,-0.40438701939999994,-0.49232324994999993,9.812965482600001,-0.011301006906663285,-0.0012217304763960308,-0.012064588454410803,-0.7133,0.42826000000000003,-1.6648800000000001,22.136448,149,9765244,11.5,0
2024-03-10T11:44:23,-0.4199403663,-0.52342994375,9.80638522045,-0.017715091907742446,0.038637226316024474,-0.012828170002158324,-0.7133,0.42826000000000003,-1.6648800000000001,22.136448,149,9765244,11.5,0
2024-03-10T11:44:23,-0.38344982164999997,-0.5096712138,9.781260583149999,-0.012064588454410803,-0.0016798794050445422,-0.012675453692608819,-0.72534,0.43414,-1.6811200000000002,22.136448,149,9765244,11.5,0
2024-03-10T11:44:23,-0.40677984199999995,-0.5192425042,9.790233667899999,-0.011759155835311796,-0.003970624048287101,-0.012980886311707827,-0.7116200000000001,0.43666000000000005,-1.67412,22.136448,149,9765244,11.5,0
2024-03-10T11:44:23,-0.39481572899999995,-0.4941178668999999,9.839884736850001,-0.013744467859455347,0.0015271630954950385,-0.011301006906663285,-0.71386,0.43470000000000003,-1.6863000000000001,22.136448,149,9765244,11.5,0
2024-03-10T11:44:23,-0.42412780585,-0.5096712138,9.802197780899998,-0.0119118721448613,-0.00015271630954950385,-0.014813482026301873,-0.71442,0.42658,-1.6779000000000002,22.136448,149,9765244,11.5,0
2024-03-10T11:44:23,-0.4157529267499999,-0.52223353245,9.796813930049998,-0.012675453692608819,-0.0044287729769356115,-0.014508049407202865,-0.7231000000000001,0.43078000000000005,-1.6742600000000003,22.136448,149,9765244,11.5,0
2024-03-10T11:44:23,-0.40259240244999994,-0.49770710079999997,9.8069834261,-0.01832595714594046,0.0022907446432425577,-0.013897184169004852,-0.7231000000000001,0.43078000000000005,-1.6742600000000003,22.136448,149,9765244,11.5,0
2024-03-10T11:44:23,-0.40857445894999994,-0.5419743188999999,9.8189475391,-0.008857545953871223,-0.0012217304763960308,-0.012370021073509813,-0.7130200000000001,0.42742,-1.6688000000000003,22.136448,149,9765244,11.5,0
2024-03-10T11:44:23,-0.41036907589999994,-0.5264209719999999,9.796813930049998,-0.013591751549905842,-0.0006108652381980154,-0.013439035240356337,-0.7236600000000001,0.44114000000000003,-1.6786,22.136448,149,9765244,11.5,0
2024-03-10T11:44:23,-0.42053857194999994,-0.4875376047499999,9.78604622835,-0.016035212502697904,0.00045814892864851157,-0.014202616788103858,-0.7236600000000001,0.44114000000000003,-1.6786,22.136448,149,9765244,11.5,0
2024-03-10T11:44:23,-0.41754754369999997,-0.49950171774999996,9.798608546999999,-0.016340645121796914,0.001069014166846527,-0.014355333097653362,-0.71106,0.43134000000000006,-1.6809800000000001,22.136448,149,9765244,11.5,0
2024-03-10T11:44:23,-0.43489550755,-0.51385865335,9.7998049583,-0.012522737383059314,0.00045814892864851157,-0.0119118721448613,-0.7166600000000001,0.43218000000000006,-1.68042,22.136448,149,9765244,11.5,0
2024-03-10T11:44:23,-0.41754754369999997,-0.5204389155,9.7914300792,-0.015729779883598898,-0.0007635815477475193,-0.012217304763960308,-0.7166600000000001,0.43218000000000006,-1.68042,22.136448,149,9765244,11.5,0
2024-03-10T11:44:23,-0.37088750299999995,-0.50907300815,9.7818587888,-0.016493361431346415,0.03802636107782646,-0.0119118721448613,-0.7225400000000001,0.43218000000000006,-1.6780400000000002,22.136448,149,9765244,11.5,0
2024-03-10T11:44:23,-0.41096728154999995,-0.48574298779999997,9.80399239785,-0.014813482026301873,-0.00045814892864851157,-0.011606439525762293,-0.7203,0.4397400000000001,-1.6745400000000001,22.136448,149,9765244,11.5,0
2024-03-10T11:44:23,-0.45822552789999993,-0.51744788725,9.793224696149998,-0.019700403931885997,-0.0019853120241435504,-0.014966198335851376,-0.7186200000000001,0.43162000000000006,-1.6692200000000001,22.136448,149,9765244,11.5,0
2024-03-10T11:44:23,-0.41216369284999993,-0.5084748025,9.8069834261,-0.01756237559819294,0.004123340357836604,-0.012980886311707827,-0.7186200000000001,0.43162000000000006,-1.6692200000000001,22.136448,149,9765244,11.5,0
2024-03-10T11:44:23,-0.40857445894999994,-0.5012963347,9.836893708599998,-0.015118914645400881,0.004886921905584123,-0.012980886311707827,-0.7175000000000001,0.44282000000000005,-1.68168,22.136448,149,9765244,11.5,0
2024-03-10T11:44:23,-0.39062828945,-0.5359922624,9.7830552001,-0.009926560120717751,-0.0035124751196385882,-0.014508049407202865,-0.7149800000000001,0.43050000000000005,-1.6748200000000002,22.136448,149,9765244,11.5,0
2024-03-10T11:44:23,-0.42412780585,-0.5300102058999999,9.7962157244,-0.018020524526841455,-0.00045814892864851157,-0.010537425358915765,-0.7149800000000001,0.43050000000000005,-1.6748200000000002,22.136448,149,9765244,11.5,0
2024-03-10T11:44:23,-0.42412780585,-0.50787659685,9.835697297299998,-0.017409659288643436,0.0007635815477475193,-0.012675453692608819,-0.7096600000000001,0.43946,-1.66684,22.136448,149,9765244,11.5,0
2024-03-10T11:44:23,-0.4271188341,-0.4881358103999999,9.8201439504,-0.013897184169004852,-0.0025961772623415654,-0.016951510359994926,-0.7197400000000002,0.4277,-1.6702000000000001,22.136448,149,9765244,11.5,0
2024-03-10T11:44:23,-0.40438701939999994,-0.51266224205,9.8069834261,-0.008704829644321718,0.004123340357836604,-0.009010262263420728,-0.72058,0.42994000000000004,-1.68182,22.136448,149,9765244,11.5,0
2024-03-10T11:44:23,-0.38763726119999997,-0.5210371211499999,9.8273224182,-0.013897184169004852,-0.0013744467859455349,-0.01145372321621279,-0.72058,0.42994000000000004,-1.68182,22.136448,149,9765244,11.5,0
2024-03-10T11:44:23,-0.38943187814999997,-0.52701917765,9.81715292215,-0.012522737383059314,-0.0016798794050445422,-0.015577063574049392,-0.7203,0.42826000000000003,-1.66138,22.136448,149,9765244,11.5,0
2024-03-10T11:44:23,-0.39900316855,-0.5192425042,9.790233667899999,-0.013744467859455347,-0.0022907446432425577,-0.013439035240356337,-0.7189000000000001,0.43414,-1.6821000000000002,22.136448,149,9765244,11.5,0
2024-03-10T11:44:23,-0.4097708702499999,-0.5156532703,9.678369211349999,-0.010842857978014774,0.0013744467859455349,-0.012522737383059314,-0.71918,0.43134000000000006,-1.6801400000000002,22.136448,149,9765244,11.5,0
2024-03-10T11:44:23,-0.37148570864999997,-0.5300102058999999,9.835697297299998,-0.018173240836390957,-0.00045814892864851157,-0.014049900478554353,-0.71918,0.43134000000000006,-1.6801400000000002,22.136448,149,9765244,11.5,0
2024-03-10T11:44:23,-0.4037888137499999,-0.5108676251,9.7998049583,-0.016340645121796914,-0.0015271630954950385,-0.012980886311707827,-0.7155400000000001,0.43554000000000004,-1.6840600000000001,22.136448,149,9765244,11.5,0
2024-03-10T11:44:23,-0.40019957984999993,-0.5240281494,9.783653405749998,-0.013591751549905842,-0.0018325957145940463,-0.012217304763960308,-0.7172200000000001,0.43274000000000007,-1.6787400000000003,22.136448,149,9765244,11.5,0
2024-03-10T11:44:23,-0.42412780585,-0.5000999234,9.784849817049999,-0.013591751549905842,-0.0013744467859455349,-0.011606439525762293,-0.7177800000000001,0.42994000000000004,-1.6851800000000001,22.136448,149,9765244,11.5,0
2024-03-10T11:44:24,-0.4157529267499999,-0.48454657649999994,9.799206752649999,-0.014966198335851376,0.001069014166846527,-0.012980886311707827,-0.7177800000000001,0.42994000000000004,-1.6851800000000001,22.136448,149,9765244,11.5,0
2024-03-10T11:44:24,-0.4157529267499999,-0.5359922624,9.86740219675,-0.019394971312786988,-0.00595593607243065,-0.014508049407202865,-0.7197400000000002,0.42854000000000003,-1.68266,22.136448,149,9765244,11.5,0
2024-03-10T11:44:24,-0.36430724085,-0.49471607254999994,9.768100058849999,-0.008246680715673207,0.008093964406123704,-0.012675453692608819,-0.7200200000000001,0.43050000000000005,-1.67006,22.136448,149,9765244,11.5,0
2024-03-10T11:44:24,-0.45044885445,-0.5766702466,9.803394192199999,-0.018784106074588976,-0.002138028333693054,-0.013591751549905842,-0.7200200000000001,0.43050000000000005,-1.67006,22.136448,149,9765244,11.5,0
2024-03-10T11:44:24,-0.3332005470499999,-0.5000999234,9.8452685877,-0.02428189321837111,0.002138028333693054,-0.014508049407202865,-0.7177800000000001,0.42798,-1.6683800000000002,22.136448,149,9765244,11.5,0
2024-03-10T11:44:24,-0.31465617189999995,-0.51146583075,9.823733184299998,-0.01145372321621279,0.004886921905584123,-0.01145372321621279,-0.7236600000000001,0.43246,-1.66992,22.136448,149,9765244,11.5,0
2024-03-10T11:44:24,-0.38285161599999995,-0.5718846013999999,9.6227360859,-0.0022907446432425577,-0.012217304763960308,-0.012370021073509813,-0.7163800000000001,0.42882000000000003,-1.6748200000000002,22.136448,149,9765244,11.5,0
2024-03-10T11:44:24,-0.45702911659999995,-0.45942193919999996,9.829715240799999,-0.025503623694767143,0.007941248096574201,-0.013439035240356337,-0.7163800000000001,0.42882000000000003,-1.6748200000000002,22.136448,149,9765244,11.5,0
2024-03-10T11:44:24,-0.4755734917499999,-0.40079778549999995,9.97986485895,-0.027794368338009703,0.002901609881440573,-0.017409659288643436,-0.7278600000000001,0.43610000000000004,-1.6734200000000001,22.136448,149,9765244,11.5,0
2024-03-10T11:44:24,-0.36071800695,-0.5539384318999999,9.740582598949999,0.0056505034533316425,-0.0070249502392771765,-0.008704829644321718,-0.7219800000000001,0.42490000000000006,-1.6682400000000002,22.136448,149,9765244,11.5,0
2024-03-10T11:44:24,-0.35832518435,-0.4677968183,9.610771972899999,-0.01832595714594046,0.003970624048287101,-0.012064588454410803,-0.7219800000000001,0.42490000000000006,-1.6682400000000002,22.136448,149,9765244,11.5,0
2024-03-10T11:44:24,-0.35234312785,-0.53659046805,9.829715240799999,-0.0276416520284602,0.0007635815477475193,-0.015271630954950386,-0.71806,0.43246,-1.68686,22.136448,149,9765244,11.5,0
2024-03-10T11:44:24,-0.39960137419999997,-0.46480579005,9.8931250397,-0.01114829059711378,-0.0027488935718910697,-0.012217304763960308,-0.7245000000000001,0.43386,-1.6693600000000002,22.136448,149,9765244,11.5,0
2024-03-10T11:44:24,-0.4989035121,-0.47258246349999994,9.75374312325,-0.004123340357836604,-0.0022907446432425577,-0.010384709049366262,-0.7208600000000001,0.43106000000000005,-1.6679600000000003,22.136448,149,9765244,11.5,0
2024-03-10T11:44:24,-0.45044885445,-0.46719861264999996,9.745368244149999,-0.018020524526841455,0.003207042500539581,-0.014202616788103858,-0.7208600000000001,0.43106000000000005,-1.6679600000000003,22.136448,149,9765244,11.5,0
2024-03-10T11:44:24,-0.39242290639999994,-0.4791627256499999,9.8632147572,-0.017256942979093935,-0.0003054326190990077,-0.015271630954950386,-0.7189000000000001,0.43358,-1.6835000000000002,22.136448,149,9765244,11.5,0
2024-03-10T11:44:24,-0.36251262389999994,-0.5766702466,9.7962157244,-0.008093964406123704,-0.0012217304763960308,-0.013286318930806834,-0.7200200000000001,0.43582000000000004,-1.67006,22.136448,149,9765244,11.5,0
2024-03-10T11:44:24,-0.39481572899999995,-0.57966127485,9.81117086565,-0.013439035240356337,0.0013744467859455349,-0.012217304763960308,-0.71946,0.43470000000000003,-1.6742600000000003,22.136448,149,9765244,11.5,0
2024-03-10T11:44:24,-0.4139583098,-0.5276173833,9.655637396649999,-0.021532999646480044,0.0006108652381980154,-0.012980886311707827,-0.71946,0.43470000000000003,-1.6742600000000003,22.136448,149,9765244,11.5,0
2024-03-10T11:44:24,-0.41455651544999994,-0.46360937874999997,9.8010013696,-0.010995574287564279,0.0013744467859455349,-0.013897184169004852,-0.7152600000000001,0.43274000000000007,-1.6709,22.136448,149,9765244,11.5,0
2024-03-10T11:44:24,-0.43609191885,-0.45523449964999996,9.798010341349999,-0.0119118721448613,0.00045814892864851157,-0.01466076571675237,-0.7203,0.42826000000000003,-1.68168,22.136448,149,9765244,11.5,0
2024-03-10T11:44:24,-0.40438701939999994,-0.52342994375,9.8333044747,-0.016493361431346415,0.0038179077387375964,-0.013744467859455347,-0.7203,0.42826000000000003,-1.68168,22.136448,149,9765244,11.5,0
2024-03-10T11:44:24,-0.37268211995,-0.52821558895,9.81834933345,-0.016340645121796914,-0.003207042500539581,-0.01145372321621279,-0.7133,0.42630000000000007,-1.6748200000000002,22.136448,149,9765244,11.5,0
2024-03-10T11:44:24,-0.36909288605,-0.56051869405,9.80518880915,-0.0119118721448613,0.0013744467859455349,-0.011301006906663285,-0.7155400000000001,0.43442000000000003,-1.6854600000000002,22.136448,149,9765244,11.5,0
2024-03-10T11:44:24,-0.39960137419999997,-0.52462635505,9.7782695549,-0.016493361431346415,-0.00015271630954950385,-0.011606439525762293,-0.7225400000000001,0.42434000000000005,-1.6713200000000001,22.136448,149,9765244,11.5,0
2024-03-10T11:44:24,-0.4414757697,-0.4935196612499999,9.8201439504,-0.015118914645400881,-0.004123340357836604,-0.010995574287564279,-0.7225400000000001,0.42434000000000005,-1.6713200000000001,22.136448,149,9765244,11.5,0
2024-03-10T11:44:24,-0.42173498325,-0.47976093129999997,9.799206752649999,-0.013897184169004852,0.0003054326190990077,-0.013744467859455347,-0.7203,0.42826000000000003,-1.6942800000000002,22.136448,149,9765244,11.5,0
2024-03-10T11:44:24,-0.40319060809999996,-0.5096712138,9.812367276949999,-0.013133602621257331,-0.0007635815477475193,-0.013439035240356337,-0.7197400000000002,0.42826000000000003,-1.6801400000000002,22.136448,149,9765244,11.5,0
2024-03-10T11:44:24,-0.38883367249999995,-0.5300102058999999,9.78604622835,-0.017256942979093935,-0.00045814892864851157,-0.0119118721448613,-0.72534,0.43162000000000006,-1.6821000000000002,22.136448,149,9765244,11.5,0
2024-03-10T11:44:24,-0.40498522504999995,-0.53180482285,9.81117086565,-0.010995574287564279,-0.001069014166846527,-0.014355333097653362,-0.72534,0.43162000000000006,-1.6821000000000002,22.136448,149,9765244,11.5,0
2024-03-10T11:44:24,-0.4211367776,-0.50309095165,9.80877804305,-0.01145372321621279,-0.0018325957145940463,-0.014355333097653362,-0.7295400000000001,0.43386,-1.66544,22.136448,149,9765244,11.5,0
2024-03-10T11:44:24,-0.39302111205,-0.48693939909999995,9.794421107449999,-0.013897184169004852,-0.0015271630954950385,-0.011301006906663285,-0.7247800000000001,0.42994000000000004,-1.68504,22.136448,149,9765244,11.5,0
2024-03-10T11:44:24,-0.38225341035,-0.4899304273499999,9.8500542329,-0.018020524526841455,0.0024434609527920616,-0.013133602621257331,-0.7256200000000002,0.42742,-1.6585800000000002,22.136448,149,9765244,11.5,0
2024-03-10T11:44:24,-0.39182470075,-0.5515456093,9.79561751875,-0.016340645121796914,-0.0007635815477475193,-0.012980886311707827,-0.7256200000000002,0.42742,-1.6585800000000002,22.136448,149,9765244,11.5,0
2024-03-10T11:44:24,-0.4097708702499999,-0.5497509923499999,9.772287498399999,-0.013286318930806834,-0.0022907446432425577,-0.015882496193148403,-0.72422,0.43134000000000006,-1.6679600000000003,22.136448,149,9765244,11.5,0
2024-03-10T11:44:24,-0.41276189849999995,-0.53659046805,9.870393224999999,-0.01664607774089592,-0.0019853120241435504,-0.012828170002158324,-0.7284200000000001,0.42322000000000004,-1.6797200000000003,22.136448,149,9765244,11.5,0
2024-03-10T11:44:24,-0.43489550755,-0.5108676251,9.7938229018,-0.014508049407202865,-0.004123340357836604,-0.012370021073509813,-0.7284200000000001,0.42322000000000004,-1.6797200000000003,22.136448,149,9765244,11.5,0
2024-03-10T11:44:24,-0.4073780476499999,-0.47377887479999997,9.82433138995,-0.015424347264499889,0.0024434609527920616,-0.015577063574049392,-0.7273000000000001,0.42994000000000004,-1.68616,22.136448,149,9765244,11.5,0
2024-03-10T11:44:24,-0.4133601041499999,-0.4815555482499999,9.792626490499998,-0.012370021073509813,-0.004123340357836604,-0.016340645121796914,-0.72422,0.42182000000000003,-1.6563400000000001,22.136448,149,9765244,11.5,0
2024-03-10T11:44:24,-0.38524443859999996,-0.5276173833,9.777073143599997,-0.006108652381980154,-0.0013744467859455349,-0.014202616788103858,-0.72058,0.42630000000000007,-1.6863000000000001,22.136448,149,9765244,11.5,0
2024-03-10T11:44:24,-0.44027935839999993,-0.5144568589999999,9.830313446449999,-0.020463985479633514,0.0016798794050445422,-0.014202616788103858,-0.72058,0.42630000000000007,-1.6863000000000001,22.136448,149,9765244,11.5,0
2024-03-10T11:44:24,-0.3978067572499999,-0.54017970195,9.93081199565,-0.017409659288643436,0.0006108652381980154,-0.014355333097653362,-0.7295400000000001,0.42462000000000005,-1.6756600000000001,22.136448,149,9765244,11.5,0
2024-03-10T11:44:24,-0.37866417645,-0.6101697629999999,9.7603233854,-0.0025961772623415654,-0.006261368691529657,-0.010537425358915765,-0.7270200000000001,0.43414,-1.6724400000000001,22.136448,149,9765244,11.5,0
2024-03-10T11:44:24,-0.4283152454,-0.5210371211499999,9.6502535458,-0.022449297503777065,0.0009162978572970231,-0.014813482026301873,-0.7217,0.42602000000000007,-1.6742600000000003,22.136448,149,9765245,11.5,0
2024-03-10T11:44:24,-0.44566320924999997,-0.41754754369999997,9.841679353799998,-0.026419921552064168,0.0036651914291880926,-0.013744467859455347,-0.7217,0.42602000000000007,-1.6742600000000003,22.299648,149,9765245,11.5,0
2024-03-10T11:44:24,-0.43190447930000003,-0.45523449964999996,9.783653405749998,-0.001069014166846527,-0.0035124751196385882,-0.01069014166846527,-0.7259000000000001,0.43946,-1.67328,22.299648,149,9765245,11.5,0
2024-03-10T11:44:24,-0.4235296002,-0.5826523030999999,9.647860723199999,-0.0070249502392771765,-0.002138028333693054,-0.01145372321621279,-0.7306600000000001,0.43694000000000005,-1.6770600000000002,22.299648,149,9765245,11.5,0
2024-03-10T11:44:24,-0.38644084989999994,-0.5647061335999999,9.8440721764,-0.031459559767197796,0.005192354524683131,-0.016035212502697904,-0.7306600000000001,0.43694000000000005,-1.6770600000000002,22.299648,149,9765245,11.5,0
2024-03-10T11:44:24,-0.36849468039999994,-0.4839483708499999,9.9110712092,-0.01466076571675237,-0.003054326190990077,-0.013744467859455347,-0.7292600000000001,0.4333000000000001,-1.6828,22.299648,149,9765245,11.5,0
2024-03-10T11:44:24,-0.40079778549999995,-0.5216353268,9.775876732299999,-0.00916297857297023,-0.0033597588100890844,-0.012064588454410803,-0.7236600000000001,0.43022000000000005,-1.6835000000000002,22.136448,149,9765244,11.5,0
2024-03-10T11:44:24,-0.4366901245,-0.49292145559999995,9.75733235715,-0.021532999646480044,0.0007635815477475193,-0.015271630954950386,-0.7231000000000001,0.42406000000000005,-1.6752400000000003,22.136448,149,9765244,11.5,0
2024-03-10T11:44:24,-0.4073780476499999,-0.47198425785,9.8632147572,-0.016798794050445424,0.002138028333693054,-0.012522737383059314,-0.7231000000000001,0.42406000000000005,-1.6752400000000003,22.136448,149,9765244,11.5,0
2024-03-10T11:44:24,-0.40498522504999995,-0.50309095165,9.82433138995,-0.008857545953871223,-0.0038179077387375964,-0.011606439525762293,-0.7273000000000001,0.43022000000000005,-1.66012,22.136448,149,9765244,11.5,0
2024-03-10T11:44:24,-0.4079762533,-0.57607204095,9.77767134925,-0.013744467859455347,-0.0016798794050445422,-0.012522737383059314,-0.72618,0.43106000000000005,-1.67958,22.136448,149,9765244,11.5,0
2024-03-10T11:44:24,-0.39122649509999996,-0.5419743188999999,9.823733184299998,-0.02107485071783153,-0.0022907446432425577,-0.015271630954950386,-0.72618,0.43106000000000005,-1.67958,22.136448,149,9765244,11.5,0
2024-03-10T11:44:24,-0.39960137419999997,-0.4899304273499999,9.8045906035,-0.010842857978014774,-0.00045814892864851157,-0.01145372321621279,-0.7247800000000001,0.4333000000000001,-1.6737000000000002,22.136448,149,9765244,11.5,0
2024-03-10T11:44:25,-0.4414757697,-0.47198425785,9.819545744749998,-0.012217304763960308,-0.0015271630954950385,-0.010537425358915765,-0.72394,0.42966000000000004,-1.6819600000000003,22.136448,149,9765244,11.5,0
2024-03-10T11:44:25,-0.43130627364999996,-0.50787659685,9.677771005699999,-0.014966198335851376,0.00045814892864851157,-0.010995574287564279,-0.7301,0.42658,-1.6896600000000002,22.136448,149,9765244,11.5,0
2024-03-10T11:44:25,-0.42891345105,-0.5330012341499999,9.8440721764,-0.013286318930806834,0.0003054326190990077,-0.01466076571675237,-0.7301,0.42658,-1.6896600000000002,22.136448,149,9765244,11.5,0
2024-03-10T11:44:25,-0.38644084989999994,-0.55094740365,9.790233667899999,-0.011606439525762293,0.0003054326190990077,-0.013591751549905842,-0.7152600000000001,0.43162000000000006,-1.6812600000000002,22.136448,149,9765244,11.5,0
2024-03-10T11:44:25,-0.41694933804999995,-0.5330012341499999,9.78724263965,-0.019547687622336492,0.00045814892864851157,-0.012522737383059314,-0.7301,0.43190000000000006,-1.6885400000000002,22.136448,149,9765244,11.5,0
2024-03-10T11:44:25,-0.39840496289999994,-0.49651068949999994,9.821340361699999,-0.015577063574049392,0.002138028333693054,-0.012370021073509813,-0.72394,0.42602000000000007,-1.6739800000000002,22.299648,149,9765245,11.5,0
2024-03-10T11:44:25,-0.4193421606499999,-0.47736810869999996,9.819545744749998,-0.010842857978014774,-0.0013744467859455349,-0.012828170002158324,-0.72394,0.42602000000000007,-1.6739800000000002,22.299648,149,9765245,11.5,0
2024-03-10T11:44:25,-0.40558343069999997,-0.5168496816,9.7651090306,-0.015271630954950386,0.0019853120241435504,-0.011606439525762293,-0.7203,0.43050000000000005,-1.6926,22.299648,149,9765245,11.5,0
2024-03-10T11:44:25,-0.40319060809999996,-0.5096712138,9.7842516114,-0.020463985479633514,-0.0009162978572970231,-0.012828170002158324,-0.7186200000000001,0.43358,-1.6800000000000002,22.299648,149,9765245,11.5,0
2024-03-10T11:44:25,-0.41515472109999996,-0.5120640364,9.80159957525,-0.01145372321621279,0.00045814892864851157,-0.010384709049366262,-0.7186200000000001,0.42826000000000003,-1.6765000000000003,22.299648,149,9765245,11.5,0
2024-03-10T11:44:25,-0.39062828945,-0.5419743188999999,9.80518880915,-0.012675453692608819,-0.00045814892864851157,-0.013591751549905842,-0.7267400000000002,0.42826000000000003,-1.6765000000000003,22.299648,149,9765245,11.5,0
2024-03-10T11:44:25,-0.4013959911499999,-0.49830530645,9.705886671250001,-0.013286318930806834,0.0009162978572970231,-0.011301006906663285,-0.7273000000000001,0.42910000000000004,-1.68714,22.299648,149,9765245,11.5,0
2024-03-10T11:44:25,-0.3960121403,-0.49172504429999997,9.81715292215,-0.022449297503777065,0.0015271630954950385,-0.01466076571675237,-0.7259000000000001,0.43750000000000006,-1.6846200000000002,22.299648,149,9765245,11.5,0
2024-03-10T11:44:25,-0.39062828945,-0.49531427819999996,9.868598608049998,-0.012522737383059314,0.001069014166846527,-0.015424347264499889,-0.7259000000000001,0.43750000000000006,-1.6846200000000002,22.299648,149,9765245,11.5,0
2024-03-10T11:44:25,-0.40259240244999994,-0.5240281494,9.8045906035,-0.014049900478554353,-0.0015271630954950385,-0.013133602621257331,-0.7259000000000001,0.43218000000000006,-1.6777600000000001,22.299648,149,9765245,11.5,0
2024-03-10T11:44:25,-0.41276189849999995,-0.5431707302,9.8201439504,-0.014049900478554353,-0.00045814892864851157,-0.014508049407202865,-0.7233800000000001,0.43442000000000003,-1.68364,22.299648,149,9765245,11.5,0
2024-03-10T11:44:25,-0.4037888137499999,-0.52821558895,9.82792062385,-0.015271630954950386,0.0006108652381980154,-0.010842857978014774,-0.72758,0.42630000000000007,-1.6693600000000002,22.299648,149,9765245,11.5,0
2024-03-10T11:44:25,-0.43010986235,-0.48933222169999996,9.776474937949999,-0.009773843811168246,0.002901609881440573,-0.0119118721448613,-0.72758,0.42630000000000007,-1.6693600000000002,22.299648,149,9765245,11.5,0
2024-03-10T11:44:25,-0.4815555482499999,-0.47377887479999997,9.781260583149999,-0.015424347264499889,-0.010231992739816757,-0.013744467859455347,-0.7163800000000001,0.43610000000000004,-1.6748200000000002,22.299648,149,9765245,11.5,0
2024-03-10T11:44:25,-0.36490544649999995,-0.43848474145,9.990632560649999,-0.0319177086958463,0.020158552860534508,-0.013897184169004852,-0.7177800000000001,0.43050000000000005,-1.6739800000000002,22.299648,149,9765245,11.5,0
2024-03-10T11:44:25,-0.37268211995,-0.6113661743,9.71067231645,0.018173240836390957,-0.02489275845656913,-0.013286318930806834,-0.7166600000000001,0.43610000000000004,-1.69218,22.299648,149,9765245,11.5,0
2024-03-10T11:44:25,-0.4019941968,-0.6089733517,9.678369211349999,-0.028099800957108706,0.009010262263420728,-0.014049900478554353,-0.7166600000000001,0.43610000000000004,-1.69218,22.299648,149,9765245,11.5,0
2024-03-10T11:44:25,-0.42652062845,-0.44327038664999996,9.959525866849997,-0.026725354171163174,0.0012217304763960308,-0.014813482026301873,-0.7284200000000001,0.42742,-1.6766400000000001,22.136448,149,9765244,11.5,0
2024-03-10T11:44:25,-0.4079762533,-0.47676990305,9.96670433465,-0.0036651914291880926,-0.0024434609527920616,-0.009926560120717751,-0.7189000000000001,0.42966000000000004,-1.6742600000000003,22.136448,149,9765244,11.5,0
2024-03-10T11:44:25,-0.41874395499999995,-0.54735816975,9.6753781831,-0.0009162978572970231,-0.003054326190990077,-0.009926560120717751,-0.73094,0.43162000000000006,-1.6681000000000001,22.136448,149,9765244,11.5,0
2024-03-10T11:44:25,-0.4157529267499999,-0.53180482285,9.776474937949999,-0.019242255003237483,0.00473420559603462,-0.01710422666954443,-0.73094,0.43162000000000006,-1.6681000000000001,22.136448,149,9765244,11.5,0
2024-03-10T11:44:25,-0.42173498325,-0.45403808835,9.931410201299999,-0.030085112981252257,0.009315694882519735,-0.013744467859455347,-0.7219800000000001,0.43526000000000004,-1.6842000000000004,22.136448,149,9765244,11.5,0
2024-03-10T11:44:25,-0.4223331889,-0.5036891573,9.878768104099999,0.0044287729769356115,-0.006719517620178169,-0.010537425358915765,-0.7278600000000001,0.42294000000000004,-1.6724400000000001,22.136448,149,9765244,11.5,0
2024-03-10T11:44:25,-0.46420758439999993,-0.5778666578999999,9.71306513905,-0.017256942979093935,0.001069014166846527,-0.013591751549905842,-0.7278600000000001,0.42294000000000004,-1.6724400000000001,22.299648,149,9765245,11.5,0
2024-03-10T11:44:25,-0.36370903520000003,-0.51864429855,9.84108114815,-0.019089538693687978,0.0012217304763960308,-0.014966198335851376,-0.72282,0.43022000000000005,-1.6802800000000002,22.299648,149,9765245,11.5,0
2024-03-10T11:44:25,-0.37148570864999997,-0.47198425785,9.93799046345,-0.012675453692608819,0.005192354524683131,-0.013133602621257331,-0.72058,0.42966000000000004,-1.6724400000000001,22.299648,149,9765245,11.5,0
2024-03-10T11:44:25,-0.38045879339999994,-0.53180482285,9.77886776055,-0.0036651914291880926,-0.010537425358915765,-0.011301006906663285,-0.7225400000000001,0.43358,-1.6748200000000002,22.299648,149,9765245,11.5,0
2024-03-10T11:44:25,-0.41156548719999997,-0.5569294601499999,9.74177901025,-0.015882496193148403,0.0027488935718910697,-0.012675453692608819,-0.7225400000000001,0.43358,-1.6748200000000002,22.299648,149,9765245,11.5,0
2024-03-10T11:44:25,-0.3954139346499999,-0.4761716973999999,9.8548398781,-0.02138028333693054,-0.0013744467859455349,-0.014966198335851376,-0.7225400000000001,0.43442000000000003,-1.6889600000000002,22.462848,149,9765246,11.5,0
2024-03-10T11:44:25,-0.4247260115,-0.47138605219999996,9.81117086565,-0.00916297857297023,-0.0027488935718910697,-0.012217304763960308,-0.7189000000000001,0.43190000000000006,-1.6657200000000003,22.462848,149,9765246,11.5,0
2024-03-10T11:44:25,-0.42173498325,-0.51864429855,9.79561751875,-0.017256942979093935,0.005039638215133627,-0.010231992739816757,-0.7278600000000001,0.42266000000000004,-1.6758000000000002,22.462848,149,9765246,11.5,0
2024-03-10T11:44:25,-0.4013959911499999,-0.5371886737,9.823733184299998,-0.015577063574049392,-0.0009162978572970231,-0.012522737383059314,-0.7278600000000001,0.42266000000000004,-1.6758000000000002,22.462848,149,9765246,11.5,0
2024-03-10T11:44:25,-0.4019941968,-0.52821558895,9.8273224182,-0.01466076571675237,0.0012217304763960308,-0.013591751549905842,-0.7177800000000001,0.42490000000000006,-1.6760800000000002,22.462848,149,9765246,11.5,0
2024-03-10T11:44:25,-0.4331008906,-0.51505506465,9.811769071299999,-0.010537425358915765,-0.0003054326190990077,-0.01114829059711378,-0.72422,0.43358,-1.6784600000000003,22.462848,149,9765246,11.5,0
2024-03-10T11:44:25,-0.4235296002,-0.5036891573,9.803394192199999,-0.015424347264499889,-0.0003054326190990077,-0.014966198335851376,-0.72422,0.43358,-1.6784600000000003,22.462848,149,9765246,11.5,0
2024-03-10T11:44:25,-0.43728833014999996,-0.49770710079999997,9.803394192199999,-0.012370021073509813,-0.0006108652381980154,-0.012980886311707827,-0.7197400000000002,0.42574000000000006,-1.6751,22.462848,149,9765246,11.5,0
2024-03-10T11:44:25,-0.38644084989999994,-0.5048855686,9.664610481399999,-0.015424347264499889,-0.003207042500539581,-0.014966198335851376,-0.7245000000000001,0.42742,-1.6755200000000001,22.462848,149,9765246,11.5,0
2024-03-10T11:44:25,-0.3900300838,-0.5419743188999999,9.798010341349999,-0.015577063574049392,0.0006108652381980154,-0.012980886311707827,-0.7175000000000001,0.42518000000000006,-1.6815400000000003,22.462848,149,9765246,11.5,0
2024-03-10T11:44:25,-0.4097708702499999,-0.5545366375499999,9.80159957525,-0.016340645121796914,-0.0025961772623415654,-0.014966198335851376,-0.7175000000000001,0.42518000000000006,-1.6815400000000003,22.462848,149,9765246,11.5,0
2024-03-10T11:44:25,-0.4223331889,-0.5012963347,9.837491914249998,-0.010384709049366262,-0.0012217304763960308,-0.013591751549905842,-0.72982,0.42602000000000007,-1.6914800000000003,22.462848,149,9765246,11.5,0
2024-03-10T11:44:25,-0.4211367776,-0.4911268386499999,9.823733184299998,-0.018020524526841455,-0.0003054326190990077,-0.014049900478554353,-0.7161000000000001,0.42714,-1.69764,22.462848,149,9765246,11.5,0
2024-03-10T11:44:25,-0.4223331889,-0.5072783912,9.8093762487,-0.015271630954950386,0.0018325957145940463,-0.0119118721448613,-0.7161000000000001,0.42714,-1.69764,22.462848,149,9765246,11.5,0
2024-03-10T11:44:25,-0.34516466005,-0.50907300815,9.80399239785,-0.014049900478554353,-0.0007635815477475193,-0.012217304763960308,-0.7175000000000001,0.42490000000000006,-1.68266,22.462848,149,9765246,11.5,0
2024-03-10T11:44:25,-0.37746776514999997,-0.5431707302,9.767501853199999,-0.016798794050445424,-0.0016798794050445422,-0.012828170002158324,-0.7186200000000001,0.43358,-1.6783200000000003,22.462848,149,9765246,11.5,0
2024-03-10T11:44:25,-0.42891345105,-0.5240281494,9.809974454349998,-0.01756237559819294,0.0018325957145940463,-0.01466076571675237,-0.7287,0.42686,-1.6910600000000002,22.462848,149,9765246,11.5,0
2024-03-10T11:44:25,-0.42652062845,-0.5048855686,9.8548398781,-0.017715091907742446,-0.00045814892864851157,-0.013439035240356337,-0.7287,0.42686,-1.6910600000000002,22.462848,149,9765246,11.5,0
2024-03-10T11:44:25,-0.41276189849999995,-0.5060819798999999,9.82792062385,-0.017256942979093935,0.0013744467859455349,-0.013286318930806834,-0.7203,0.42602000000000007,-1.6833600000000002,22.299648,149,9765245,11.5,0
2024-03-10T11:44:25,-0.38763726119999997,-0.49950171774999996,9.835697297299998,-0.008093964406123704,0.0,-0.015118914645400881,-0.7203,0.43050000000000005,-1.6837800000000003,22.299648,149,9765245,11.5,0
2024-03-10T11:44:25,-0.4097708702499999,-0.4989035121,9.86620578545,-0.016035212502697904,-0.0003054326190990077,-0.012675453692608819,-0.7211400000000001,0.42014000000000007,-1.6800000000000002,22.299648,149,9765245,11.5,0
2024-03-10T11:44:25,-0.38644084989999994,-0.5156532703,9.84108114815,-0.013133602621257331,-0.001069014166846527,-0.01114829059711378,-0.7211400000000001,0.42014000000000007,-1.6800000000000002,22.299648,149,9765245,11.5,0
2024-03-10T11:44:25,-0.42173498325,-0.5288137946,9.822536773,-0.01664607774089592,-0.0016798794050445422,-0.015577063574049392,-0.72506,0.43498000000000003,-1.6777600000000001,22.299648,149,9765245,11.5,0
2024-03-10T11:44:26,-0.40438701939999994,-0.5060819798999999,9.8069834261,-0.015424347264499889,-0.0003054326190990077,-0.016035212502697904,-0.7186200000000001,0.43442000000000003,-1.6683800000000002,22.299648,150,9830781,11.5,0
2024-03-10T11:44:26,-0.430708068,-0.49052863299999994,9.799206752649999,-0.016340645121796914,-0.0022907446432425577,-0.013286318930806834,-0.7186200000000001,0.43442000000000003,-1.6683800000000002,22.032000000000004,150,9830781,11.5,0
2024-03-10T11:44:26,-0.39242290639999994,-0.5072783912,9.822536773,-0.016035212502697904,-0.00045814892864851157,-0.013897184169004852,-0.7175000000000001,0.42602000000000007,-1.6835000000000002,22.032000000000004,150,9830781,11.5,0
2024-03-10T11:44:26,-0.4037888137499999,-0.5288137946,9.783653405749998,-0.012980886311707827,-0.0027488935718910697,-0.014355333097653362,-0.7214200000000001,0.44086000000000003,-1.6704800000000002,22.032000000000004,150,9830781,11.5,0
2024-03-10T11:44:26,-0.4133601041499999,-0.50309095165,9.776474937949999,-0.016340645121796914,-0.00015271630954950385,-0.015882496193148403,-0.7105000000000001,0.43078000000000005,-1.6821000000000002,22.032000000000004,150,9830781,11.5,0
2024-03-10T11:44:26,-0.40079778549999995,-0.46839502395,9.721440018149998,-0.016340645121796914,-0.003970624048287101,-0.014049900478554353,-0.7105000000000001,0.43078000000000005,-1.6821000000000002,22.032000000000004,150,9830781,11.5,0
2024-03-10T11:44:26,-0.35413774480000004,-0.50309095165,9.812367276949999,-0.01069014166846527,-0.004123340357836604,-0.01114829059711378,-0.7197400000000002,0.43414,-1.6854600000000002,22.195200000000003,150,9830782,11.5,0
2024-03-10T11:44:26,-0.4247260115,-0.5096712138,9.961320483799998,-0.028405233576207715,0.003054326190990077,-0.013897184169004852,-0.7119000000000001,0.43610000000000004,-1.6840600000000001,22.195200000000003,150,9830782,11.5,0
2024-03-10T11:44:26,-0.34277183744999995,-0.51026941945,9.80159957525,0.0016798794050445422,-0.012828170002158324,-0.012828170002158324,-0.71834,0.43106000000000005,-1.6823800000000002,22.195200000000003,150,9830782,11.5,0
2024-03-10T11:44:26,-0.43489550755,-0.5515456093,9.777073143599997,-0.02138028333693054,0.0054977871437821395,-0.012980886311707827,-0.71834,0.43106000000000005,-1.6823800000000002,22.195200000000003,150,9830782,11.5,0
2024-03-10T11:44:26,-0.4295116567,-0.49830530645,9.851250644199999,-0.02138028333693054,-0.011301006906663285,-0.012064588454410803,-0.7096600000000001,0.43834,-1.6920400000000002,22.195200000000003,150,9830782,11.5,0
2024-03-10T11:44:26,-0.45104706009999995,-0.45702911659999995,9.843473970749999,-0.01114829059711378,-0.00015271630954950385,-0.013439035240356337,-0.7219800000000001,0.43666000000000005,-1.6802800000000002,22.195200000000003,150,9830782,11.5,0
2024-03-10T11:44:26,-0.48574298779999997,-0.4875376047499999,9.7974121357,-0.007177666548826681,-0.0009162978572970231,-0.012217304763960308,-0.7219800000000001,0.43666000000000005,-1.6802800000000002,22.358400000000003,150,9830783,11.5,0
2024-03-10T11:44:26,-0.41694933804999995,-0.5252245607,9.775278526649998,-0.015271630954950386,0.0006108652381980154,-0.013286318930806834,-0.72422,0.43218000000000006,-1.6765000000000003,22.358400000000003,150,9830783,11.5,0
2024-03-10T11:44:26,-0.40259240244999994,-0.5240281494,9.853643466800001,-0.019700403931885997,0.0044287729769356115,-0.013133602621257331,-0.7197400000000002,0.42798,-1.68812,22.358400000000003,150,9830783,11.5,0
2024-03-10T11:44:26,-0.31166514365,-0.5587240770999999,9.85902731765,-0.0119118721448613,-0.0054977871437821395,-0.009621127501618741,-0.7161000000000001,0.42966000000000004,-1.6797200000000003,22.358400000000003,150,9830783,11.5,0
2024-03-10T11:44:26,-0.40558343069999997,-0.54735816975,9.80877804305,-0.016035212502697904,0.038942658935123484,-0.013133602621257331,-0.7161000000000001,0.42966000000000004,-1.6797200000000003,22.358400000000003,150,9830783,11.5,0
2024-03-10T11:44:26,-0.43788653580000003,-0.53898329065,9.81834933345,-0.019242255003237483,-0.0035124751196385882,-0.015729779883598898,-0.71834,0.43022000000000005,-1.68168,22.358400000000003,150,9830783,11.5,0
2024-03-10T11:44:26,-0.4815555482499999,-0.44865423749999994,9.8811609267,-0.020922134408282028,0.0003054326190990077,-0.012217304763960308,-0.7245000000000001,0.43022000000000005,-1.68938,22.358400000000003,150,9830783,11.5,0
2024-03-10T11:44:26,-0.44207397535,-0.47377887479999997,9.84227755945,-0.006566801310628666,-0.003970624048287101,-0.012980886311707827,-0.7245000000000001,0.43022000000000005,-1.6535400000000002,22.358400000000003,150,9830783,11.5,0
2024-03-10T11:44:26,-0.35114671655,-0.5252245607,9.78604622835,-0.015271630954950386,0.0009162978572970231,-0.01145372321621279,-0.72394,0.43050000000000005,-1.6823800000000002,22.358400000000003,150,9830783,11.5,0
2024-03-10T11:44:26,-0.3613162126,-0.5359922624,9.80279598655,-0.014508049407202865,0.0003054326190990077,-0.014355333097653362,-0.71918,0.43246,-1.6738400000000002,22.358400000000003,150,9830783,11.5,0
2024-03-10T11:44:26,-0.4037888137499999,-0.50907300815,9.8620183459,-0.019547687622336492,-0.0038179077387375964,-0.01466076571675237,-0.7197400000000002,0.43302,-1.6809800000000001,22.358400000000003,150,9830783,11.5,0
2024-03-10T11:44:26,-0.39242290639999994,-0.4989035121,9.8608219346,-0.014508049407202865,-0.003054326190990077,-0.011301006906663285,-0.7197400000000002,0.43302,-1.6809800000000001,22.358400000000003,150,9830783,11.5,0
2024-03-10T11:44:26,-0.4558327053,-0.50548377425,9.80518880915,-0.014813482026301873,-0.0015271630954950385,-0.012522737383059314,-0.7203,0.43358,-1.6854600000000002,22.358400000000003,150,9830783,11.5,0
2024-03-10T11:44:26,-0.42592242280000003,-0.4971088951499999,9.739386187649998,-0.019242255003237483,-0.003207042500539581,-0.014202616788103858,-0.7186200000000001,0.43638000000000005,-1.6912000000000003,22.358400000000003,150,9830783,11.5,0
2024-03-10T11:44:26,-0.37866417645,-0.51984070985,9.789635462249999,-0.012980886311707827,0.0038179077387375964,-0.010995574287564279,-0.7197400000000002,0.43162000000000006,-1.6832200000000002,22.358400000000003,150,9830783,11.5,0
2024-03-10T11:44:26,-0.3780659708,-0.5395814963,9.823733184299998,-0.01466076571675237,0.0003054326190990077,-0.011301006906663285,-0.7197400000000002,0.43162000000000006,-1.6832200000000002,22.358400000000003,150,9830783,11.5,0
2024-03-10T11:44:26,-0.38225341035,-0.51864429855,9.80518880915,-0.01832595714594046,0.00045814892864851157,-0.015882496193148403,-0.71834,0.43162000000000006,-1.68714,22.358400000000003,150,9830783,11.5,0
2024-03-10T11:44:26,-0.430708068,-0.48933222169999996,9.82433138995,-0.016493361431346415,-0.0006108652381980154,-0.013897184169004852,-0.7105000000000001,0.43050000000000005,-1.67636,22.253952,151,9896320,11.5,0
2024-03-10T11:44:26,-0.42173498325,-0.49292145559999995,9.77408211535,-0.009773843811168246,-0.0006108652381980154,-0.012217304763960308,-0.71806,0.4397400000000001,-1.6802800000000002,22.253952,151,9896320,11.5,0
2024-03-10T11:44:26,-0.4073780476499999,-0.5048855686,9.7555377402,-0.010384709049366262,0.0013744467859455349,-0.01114829059711378,-0.71806,0.4397400000000001,-1.6802800000000002,22.253952,151,9896320,11.5,0
2024-03-10T11:44:26,-0.37746776514999997,-0.53180482285,9.823733184299998,-0.016951510359994926,0.0003054326190990077,-0.0119118721448613,-0.7214200000000001,0.42826000000000003,-1.6891,22.253952,151,9896320,11.5,0
2024-03-10T11:44:26,-0.40677984199999995,-0.52821558895,9.82433138995,-0.014355333097653362,0.0007635815477475193,-0.013439035240356337,-0.7225400000000001,0.43022000000000005,-1.69988,22.253952,151,9896320,11.5,0
2024-03-10T11:44:26,-0.4390829471,-0.51266224205,9.821340361699999,-0.013286318930806834,0.00045814892864851157,-0.0119118721448613,-0.7225400000000001,0.43022000000000005,-1.69988,22.253952,151,9896320,11.5,0
2024-03-10T11:44:26,-0.43010986235,-0.5288137946,9.8057870148,-0.01618792881224741,0.0,-0.015118914645400881,-0.72506,0.43050000000000005,-1.6983400000000002,22.253952,151,9896320,11.5,0
2024-03-10T11:44:26,-0.4211367776,-0.50309095165,9.661021247499999,-0.01466076571675237,0.004276056667386108,-0.012522737383059314,-0.72618,0.43134000000000006,-1.69036,22.253952,151,9896320,11.5,0
2024-03-10T11:44:26,-0.4037888137499999,-0.4821537538999999,9.814760099549998,-0.02138028333693054,-0.0015271630954950385,-0.014508049407202865,-0.71918,0.43190000000000006,-1.6751,22.253952,151,9896320,11.5,0
2024-03-10T11:44:26,-0.36849468039999994,-0.5168496816,9.792626490499998,-0.014813482026301873,0.0006108652381980154,-0.01466076571675237,-0.71918,0.43190000000000006,-1.6751,22.253952,151,9896320,11.5,0
2024-03-10T11:44:26,-0.41635113239999993,-0.5294120002499999,9.843473970749999,-0.014355333097653362,-0.0003054326190990077,-0.014966198335851376,-0.7172200000000001,0.43190000000000006,-1.6823800000000002,22.253952,151,9896320,11.5,0
2024-03-10T11:44:26,-0.36670006345,-0.5144568589999999,9.768100058849999,-0.008704829644321718,-0.002138028333693054,-0.015271630954950386,-0.7211400000000001,0.43022000000000005,-1.6891,22.253952,151,9896320,11.5,0
2024-03-10T11:44:26,-0.2943171798,-0.46899322959999995,9.6969135865,-0.014202616788103858,0.0,-0.012370021073509813,-0.7211400000000001,0.43022000000000005,-1.6891,22.253952,151,9896320,11.5,0
2024-03-10T11:44:26,-0.4899304273499999,-0.46241296745,10.068997500799998,-0.038637226316024474,0.005345070834232635,-0.008246680715673207,-0.72506,0.43554000000000004,-1.68392,22.253952,151,9896320,11.5,0
2024-03-10T11:44:26,-0.4821537538999999,-0.5838487144,9.82433138995,0.015271630954950386,-0.020922134408282028,-0.016493361431346415,-0.7189000000000001,0.43022000000000005,-1.6786,22.253952,151,9896320,11.5,0
2024-03-10T11:44:26,-0.5635097223,-0.6221338759999999,9.6227360859,-0.01466076571675237,0.0018325957145940463,-0.012980886311707827,-0.7166600000000001,0.43694000000000005,-1.6919000000000002,22.253952,151,9896320,11.5,0
2024-03-10T11:44:26,-0.47736810869999996,-0.4199403663,9.799206752649999,-0.03252857393404432,0.013133602621257331,-0.014049900478554353,-0.7166600000000001,0.43694000000000005,-1.6919000000000002,22.253952,151,9896320,11.5,0
2024-03-10T11:44:26,-0.4677968183,-0.37447673689999994,9.820742156049999,-0.012370021073509813,-0.0035124751196385882,-0.02290744643242558,-0.7208600000000001,0.42658,-1.67692,22.253952,151,9896320,11.5,0
2024-03-10T11:44:26,-0.0634097989,-0.17527425545,9.76331441365,-0.014049900478554353,0.0019853120241435504,-0.004276056667386108,-0.7197400000000002,0.43358,-1.6919000000000002,22.253952,151,9896320,11.5,0
2024-03-10T11:44:26,-0.36789647475,-0.4989035121,9.810572659999998,-0.009926560120717751,-0.009010262263420728,-0.005803219762881146,-0.7217,0.42798,-1.67944,22.253952,151,9896320,11.5,0
2024-03-10T11:44:26,-0.27816562724999994,-0.5300102058999999,9.8321080634,-0.023976460599272102,0.003207042500539581,-0.018478673455489966,-0.7217,0.42798,-1.67944,22.253952,151,9896320,11.5,0
2024-03-10T11:44:26,-0.49770710079999997,-0.7262216591,9.652048162749999,-0.0006108652381980154,-0.012828170002158324,-0.013439035240356337,-0.7113400000000001,0.43806000000000006,-1.69218,22.253952,151,9896320,11.5,0
2024-03-10T11:44:26,-0.6496513358999999,-0.6340979889999999,9.73101130855,-0.018478673455489966,-0.004886921905584123,-0.009010262263420728,-0.71442,0.42658,-1.67188,22.253952,151,9896320,11.5,0
2024-03-10T11:44:26,-0.5778666578999999,-0.36909288605,9.8177511278,-0.02733621940936119,0.0033597588100890844,-0.018784106074588976,-0.71442,0.46242,-1.6752400000000003,22.253952,151,9896320,11.5,0
2024-03-10T11:44:26,-0.31465617189999995,-0.31046873235,9.92961558435,-0.024434609527920616,0.0027488935718910697,-0.01893682238413848,-0.7149800000000001,0.43778,-1.6752400000000003,22.253952,151,9896320,11.5,0
2024-03-10T11:44:26,-0.26141586904999997,-0.5371886737,9.84586679335,-0.0024434609527920616,-0.0038179077387375964,-0.007330382858376185,-0.7247800000000001,0.43862000000000007,-1.6867200000000002,22.253952,151,9896320,11.5,0
2024-03-10T11:44:27,-0.2596212521,-0.52821558895,9.7375915707,-0.014813482026301873,0.0033597588100890844,-0.010537425358915765,-0.72058,0.44058,-1.69092,22.253952,151,9896320,11.5,0
2024-03-10T11:44:27,-0.39182470075,-0.6975077879,9.848259615949999,-0.019242255003237483,-0.0025961772623415654,-0.015882496193148403,-0.72058,0.44058,-1.69092,22.253952,151,9896320,11.5,0
2024-03-10T11:44:27,-0.47377887479999997,-0.6412764567999999,9.79083187355,-0.012217304763960308,-0.008093964406123704,-0.011301006906663285,-0.7189000000000001,0.43218000000000006,-1.6758000000000002,22.253952,151,9896320,11.5,0
2024-03-10T11:44:27,-0.57128639575,-0.4235296002,9.80399239785,-0.02061670178918302,-0.001069014166846527,-0.012064588454410803,-0.7172200000000001,0.42910000000000004,-1.6745400000000001,22.253952,151,9896320,11.5,0
2024-03-10T11:44:27,-0.45463629399999994,-0.39421752335,9.822536773,-0.02168571595602955,0.0018325957145940463,-0.015271630954950386,-0.7222600000000001,0.43554000000000004,-1.6693600000000002,22.253952,151,9896320,11.5,0
2024-03-10T11:44:27,-0.33619157529999993,-0.41156548719999997,9.821938567349997,-0.01069014166846527,-0.001069014166846527,-0.012675453692608819,-0.7222600000000001,0.43554000000000004,-1.6693600000000002,22.253952,151,9896320,11.5,0
2024-03-10T11:44:27,-0.34217363179999993,-0.5324030285,9.7950193131,-0.014813482026301873,-0.003054326190990077,-0.0119118721448613,-0.72394,0.42602000000000007,-1.6793000000000002,22.253952,151,9896320,11.5,0
2024-03-10T11:44:27,-0.36789647475,-0.5994020613,9.839286531199999,-0.016340645121796914,-0.002138028333693054,-0.013897184169004852,-0.7217,0.43078000000000005,-1.6734200000000001,22.253952,151,9896320,11.5,0
2024-03-10T11:44:27,-0.46420758439999993,-0.6221338759999999,9.80399239785,-0.012828170002158324,-0.0036651914291880926,-0.014813482026301873,-0.7217,0.43078000000000005,-1.6734200000000001,22.253952,151,9896320,11.5,0
2024-03-10T11:44:27,-0.47497528609999995,-0.54735816975,9.819545744749998,-0.01832595714594046,-0.0022907446432425577,-0.012217304763960308,-0.7175000000000001,0.43078000000000005,-1.6679600000000003,22.090752000000002,151,9896319,11.5,0
2024-03-10T11:44:27,-0.44925244314999996,-0.44925244314999996,9.8380901199,-0.02290744643242558,0.0018325957145940463,-0.014355333097653362,-0.7233800000000001,0.42938000000000004,-1.6819600000000003,22.090752000000002,151,9896319,11.5,0
2024-03-10T11:44:27,-0.40259240244999994,-0.44207397535,9.8560362894,-0.012675453692608819,-0.0003054326190990077,-0.01145372321621279,-0.7175000000000001,0.42882000000000003,-1.6629200000000002,22.090752000000002,151,9896319,11.5,0
2024-03-10T11:44:27,-0.36789647475,-0.46959143524999997,9.8333044747,-0.00916297857297023,0.002138028333693054,-0.014049900478554353,-0.7175000000000001,0.42882000000000003,-1.6629200000000002,22.090752000000002,151,9896319,11.5,0
2024-03-10T11:44:27,-0.4073780476499999,-0.5766702466,9.8010013696,-0.014508049407202865,-0.0007635815477475193,-0.013133602621257331,-0.7214200000000001,0.42966000000000004,-1.6822400000000002,22.090752000000002,151,9896319,11.5,0
2024-03-10T11:44:27,-0.44925244314999996,-0.59521462175,9.826724212550001,-0.015271630954950386,-0.002138028333693054,-0.012522737383059314,-0.7163800000000001,0.43106000000000005,-1.6697800000000003,22.090752000000002,151,9896319,11.5,0
2024-03-10T11:44:27,-0.41694933804999995,-0.5413761132499999,9.7914300792,-0.01664607774089592,-0.0006108652381980154,-0.015118914645400881,-0.7247800000000001,0.43134000000000006,-1.6802800000000002,22.195200000000003,150,9830782,11.5,0
2024-03-10T11:44:27,-0.37986058775,-0.46719861264999996,9.7818587888,-0.016035212502697904,0.0,-0.013744467859455347,-0.7247800000000001,0.43134000000000006,-1.6802800000000002,22.195200000000003,150,9830782,11.5,0
2024-03-10T11:44:27,-0.38584264425,-0.39960137419999997,9.877571692799998,-0.018478673455489966,0.0015271630954950385,-0.013133602621257331,-0.7219800000000001,0.42826000000000003,-1.6758000000000002,22.195200000000003,150,9830782,11.5,0
2024-03-10T11:44:27,-0.34037901484999994,-0.4618147618,9.819545744749998,-0.010079276430267254,-0.0033597588100890844,-0.011301006906663285,-0.71946,0.43946,-1.67958,22.195200000000003,150,9830782,11.5,0
2024-03-10T11:44:27,-0.5012963347,-0.57966127485,9.879366309749999,-0.0238237442897226,-0.0044287729769356115,-0.016340645121796914,-0.71946,0.43946,-1.67958,22.195200000000003,150,9830782,11.5,0
2024-03-10T11:44:27,-0.5240281494,-0.5886343596,9.862616551549998,-0.016340645121796914,0.0024434609527920616,-0.014966198335851376,-0.7186200000000001,0.43050000000000005,-1.6835000000000002,22.032000000000004,150,9830781,11.5,0
2024-03-10T11:44:27,-0.47676990305,-0.5736792183499999,9.77767134925,0.00015271630954950385,-0.003054326190990077,-0.014049900478554353,-0.7214200000000001,0.43582000000000004,-1.6707600000000002,22.032000000000004,150,9830781,11.5,0
2024-03-10T11:44:27,-0.43788653580000003,-0.48035913694999993,9.742975421549998,-0.02703078679026218,0.006414085001079162,-0.011759155835311796,-0.71218,0.43386,-1.67692,22.032000000000004,150,9830781,11.5,0
2024-03-10T11:44:27,-0.32901310749999996,-0.40259240244999994,9.858429112,-0.020158552860534508,0.0013744467859455349,-0.018020524526841455,-0.71218,0.43386,-1.67692,22.032000000000004,150,9830781,11.5,0
2024-03-10T11:44:27,-0.32303105099999996,-0.42053857194999994,9.8045906035,-0.007941248096574201,0.0019853120241435504,-0.014508049407202865,-0.7247800000000001,0.44142000000000003,-1.67734,22.032000000000004,150,9830781,11.5,0
2024-03-10T11:44:27,-0.34576286570000003,-0.5120640364,9.78604622835,-0.019853120241435502,0.0016798794050445422,-0.013897184169004852,-0.7217,0.43078000000000005,-1.69344,22.032000000000004,150,9830781,11.5,0
2024-03-10T11:44:27,-0.48454657649999994,-0.5994020613,9.8333044747,-0.01756237559819294,-0.007941248096574201,-0.012828170002158324,-0.7225400000000001,0.43246,-1.6739800000000002,21.973248,149,9765243,11.5,0
2024-03-10T11:44:27,-0.4881358103999999,-0.5599204883999999,9.7914300792,-0.010231992739816757,0.0016798794050445422,-0.015424347264499889,-0.7225400000000001,0.43246,-1.6739800000000002,21.973248,149,9765243,11.5,0
2024-03-10T11:44:27,-0.48634119344999993,-0.4959124838499999,9.79202828485,-0.017409659288643436,0.0012217304763960308,-0.014508049407202865,-0.7161000000000001,0.43134000000000006,-1.6682400000000002,21.973248,149,9765243,11.5,0
2024-03-10T11:44:27,-0.37387853125,-0.4295116567,9.85304526115,-0.023671027980173096,0.00015271630954950385,-0.013439035240356337,-0.71358,0.42742,-1.6707600000000002,21.973248,149,9765243,11.5,0
2024-03-10T11:44:27,-0.2979064137,-0.45822552789999993,9.8201439504,-0.011759155835311796,-0.0006108652381980154,-0.014202616788103858,-0.71358,0.42742,-1.6707600000000002,21.973248,149,9765243,11.5,0
2024-03-10T11:44:27,-0.3296113131499999,-0.48454657649999994,9.7375915707,-0.012064588454410803,0.03695734691097993,-0.013133602621257331,-0.7214200000000001,0.42574000000000006,-1.6713200000000001,21.973248,149,9765243,11.5,0
2024-03-10T11:44:27,-0.43609191885,-0.5868397426499999,9.65324457405,-0.015729779883598898,-0.0012217304763960308,-0.0119118721448613,-0.7172200000000001,0.43778,-1.68392,21.692544,147,9634166,11.5,0
2024-03-10T11:44:27,-0.46061835049999994,-0.5826523030999999,9.825527801249999,-0.017715091907742446,0.002138028333693054,-0.014966198335851376,-0.7189000000000001,0.4333000000000001,-1.66866,21.692544,147,9634166,11.5,0
2024-03-10T11:44:27,-0.49052863299999994,-0.52821558895,9.807581631749999,-0.015118914645400881,-0.0027488935718910697,-0.0119118721448613,-0.7189000000000001,0.4333000000000001,-1.66866,21.692544,147,9634166,11.5,0
2024-03-10T11:44:27,-0.4157529267499999,-0.48873401604999994,9.821340361699999,-0.015577063574049392,-0.0007635815477475193,-0.012217304763960308,-0.71946,0.42798,-1.6837800000000003,21.692544,147,9634166,11.5,0
2024-03-10T11:44:27,-0.4558327053,-0.45044885445,9.7794659662,-0.01618792881224741,-0.0056505034533316425,-0.012828170002158324,-0.72758,0.43190000000000006,-1.6746800000000002,21.692544,147,9634166,11.5,0
2024-03-10T11:44:27,-0.2979064137,-0.52821558895,9.850652438549998,-0.011301006906663285,-0.001069014166846527,-0.015729779883598898,-0.71806,0.42714,-1.6864400000000002,21.692544,147,9634166,11.5,0
2024-03-10T11:44:27,-0.36251262389999994,-0.5497509923499999,9.789635462249999,-0.01893682238413848,0.0003054326190990077,-0.014049900478554353,-0.71806,0.42714,-1.6864400000000002,21.24864,145,9503088,11.5,0
2024-03-10T11:44:27,-0.4019941968,-0.54017970195,9.82792062385,-0.015729779883598898,-0.0070249502392771765,-0.011759155835311796,-0.7200200000000001,0.42434000000000005,-1.6853200000000002,21.24864,145,9503088,11.5,0
2024-03-10T11:44:27,-0.5407779076,-0.53898329065,9.7962157244,-0.02306016274197508,-0.007483099167925688,-0.013133602621257331,-0.7172200000000001,0.43666000000000005,-1.6837800000000003,21.24864,145,9503088,11.5,0
2024-03-10T11:44:27,-0.4971088951499999,-0.49651068949999994,9.862616551549998,-0.02351831167062359,0.0025961772623415654,-0.012828170002158324,-0.7172200000000001,0.43666000000000005,-1.6837800000000003,21.24864,145,9503088,11.5,0
2024-03-10T11:44:27,-0.43728833014999996,-0.46241296745,9.807581631749999,-0.008093964406123704,-0.00045814892864851157,-0.013439035240356337,-0.72282,0.42854000000000003,-1.6814,21.24864,145,9503088,11.5,0
2024-03-10T11:44:27,-0.39302111205,-0.50548377425,9.73340413115,-0.010995574287564279,0.003054326190990077,-0.013133602621257331,-0.7119000000000001,0.43694000000000005,-1.6807000000000003,21.24864,139,9109859,11.5,0
2024-03-10T11:44:27,-0.2979064137,-0.5300102058999999,9.821340361699999,-0.020769418098732523,0.0038179077387375964,-0.014049900478554353,-0.7233800000000001,0.42826000000000003,-1.6783200000000003,20.732928,139,9109859,11.5,0
2024-03-10T11:44:27,-0.3529413335,-0.52821558895,9.8979106849,-0.013591751549905842,0.002901609881440573,-0.015577063574049392,-0.7233800000000001,0.42826000000000003,-1.6783200000000003,20.732928,139,9109859,11.5,0
2024-03-10T11:44:27,-0.41754754369999997,-0.5623133109999999,9.784849817049999,-0.010231992739816757,-0.004123340357836604,-0.015424347264499889,-0.71918,0.43078000000000005,-1.68042,20.732928,139,9109859,11.5,0
2024-03-10T11:44:27,-0.5084748025,-0.5545366375499999,9.802197780899998,-0.017409659288643436,0.00015271630954950385,-0.012370021073509813,-0.7245000000000001,0.42714,-1.67314,20.732928,139,9109859,11.5,0
2024-03-10T11:44:27,-0.46420758439999993,-0.5132604477,9.825527801249999,-0.014966198335851376,0.002901609881440573,-0.012980886311707827,-0.7245000000000001,0.42714,-1.67314,20.732928,139,9109859,11.5,0
2024-03-10T11:44:27,-0.40677984199999995,-0.4989035121,9.838688325549999,-0.019394971312786988,0.0003054326190990077,-0.013286318930806834,-0.72534,0.42434000000000005,-1.67006,15.393024000000002,112,7340310,11.5,0
2024-03-10T11:44:27,-0.34516466005,-0.51026941945,9.834500885999999,-0.012980886311707827,-0.03634648167278191,-0.01145372321621279,-0.72422,0.42686,-1.6760800000000002,15.393024000000002,112,7340310,11.5,0
2024-03-10T11:44:27,-0.37148570864999997,-0.50907300815,9.780064171849999,-0.019394971312786988,-0.0003054326190990077,-0.014508049407202865,-0.71918,0.42966000000000004,-1.6679600000000003,15.393024000000002,112,7340310,11.5,0
2024-03-10T11:44:27,-0.37686955949999995,-0.5539384318999999,9.80279598655,-0.013591751549905842,0.0,-0.012064588454410803,-0.71918,0.42966000000000004,-1.6679600000000003,15.393024000000002,112,7340310,11.5,0
2024-03-10T11:44:27,-0.4271188341,-0.5294120002499999,9.786644434,-0.012370021073509813,0.0018325957145940463,-0.011301006906663285,-0.7217,0.42014000000000007,-1.6745400000000001,15.393024000000002,112,7340310,11.5,0
2024-03-10T11:44:27,-0.4390829471,-0.50548377425,9.83509909165,-0.02168571595602955,0.0025961772623415654,-0.012522737383059314,-0.72422,0.43778,-1.6814,15.393024000000002,112,7340310,11.5,0
2024-03-10T11:44:27,-0.43130627364999996,-0.49292145559999995,9.832706269049998,-0.01710422666954443,-0.0038179077387375964,-0.015424347264499889,-0.7247800000000001,0.43666000000000005,-1.6693600000000002,8.812800000000001,75,4915377,11.5,0
2024-03-10T11:44:28,-0.40677984199999995,-0.48574298779999997,9.802197780899998,-0.018784106074588976,-0.001069014166846527,-0.012980886311707827,-0.7247800000000001,0.43666000000000005,-1.6693600000000002,8.812800000000001,75,4915377,11.5,0
2024-03-10T11:44:28,-0.38105699905,-0.5467599640999999,9.7519485063,-0.017409659288643436,0.0012217304763960308,-0.013591751549905842,-0.7172200000000001,0.4277,-1.6745400000000001,8.812800000000001,75,4915377,11.5,0
2024-03-10T11:44:28,-0.39720855159999996,-0.5533402262499999,9.7914300792,-0.01069014166846527,-0.00473420559603462,-0.014355333097653362,-0.71918,0.43162000000000006,-1.67734,8.812800000000001,75,4915377,11.5,0
2024-03-10T11:44:28,-0.4157529267499999,-0.53180482285,9.8177511278,-0.016798794050445424,0.00045814892864851157,-0.013133602621257331,-0.71918,0.43162000000000006,-1.67734,8.812800000000001,75,4915377,11.5,0
2024-03-10T11:44:28,-0.42293139455,-0.51744788725,9.8093762487,-0.012980886311707827,0.00015271630954950385,-0.015118914645400881,-0.71806,0.43302,-1.6675400000000002,8.812800000000001,75,4915377,11.5,0
2024-03-10T11:44:28,-0.44207397535,-0.46600220135,9.7878408453,-0.010842857978014774,0.0019853120241435504,-0.012064588454410803,-0.7208600000000001,0.42658,-1.6749600000000002,7.409280000000001,65,4259992,11.5,0
2024-03-10T11:44:28,-0.36191441825,-0.49531427819999996,9.84108114815,-0.01756237559819294,0.0016798794050445422,-0.014813482026301873,-0.71442,0.43638000000000005,-1.68042,7.409280000000001,65,4259992,11.5,0
2024-03-10T11:44:28,-0.35114671655,-0.5294120002499999,9.7914300792,-0.011606439525762293,-0.0006108652381980154,-0.010384709049366262,-0.71442,0.43638000000000005,-1.68042,7.409280000000001,65,4259992,11.5,0
2024-03-10T11:44:28,-0.39182470075,-0.5629115166499999,9.79202828485,-0.015424347264499889,-0.0007635815477475193,-0.012217304763960308,-0.7186200000000001,0.42826000000000003,-1.6723000000000001,7.409280000000001,65,4259992,11.5,0
2024-03-10T11:44:28,-0.43010986235,-0.52342994375,9.8500542329,-0.01618792881224741,-0.002138028333693054,-0.010995574287564279,-0.71442,0.42938000000000004,-1.6798600000000001,7.409280000000001,65,4259992,11.5,0
2024-03-10T11:44:28,-0.39481572899999995,-0.4971088951499999,9.758528768449999,-0.013744467859455347,-0.006566801310628666,-0.012064588454410803,-0.71442,0.42938000000000004,-1.6798600000000001,7.409280000000001,65,4259992,11.5,0
2024-03-10T11:44:28,-0.43250268495,-0.4474578262,9.82433138995,-0.02229658119422756,0.0038179077387375964,-0.013744467859455347,-0.72758,0.42686,-1.6744,6.5671680000000014,59,3866761,11.5,0
2024-03-10T11:44:28,-0.35892339,-0.47258246349999994,9.821938567349997,-0.01710422666954443,-0.0013744467859455349,-0.01114829059711378,-0.7155400000000001,0.43246,-1.6760800000000002,6.5671680000000014,59,3866761,11.5,0
2024-03-10T11:44:28,-0.33738798659999997,-0.48335016519999996,9.871589636299998,-0.016340645121796914,0.007941248096574201,-0.015118914645400881,-0.71918,0.43190000000000006,-1.6821000000000002,6.5671680000000014,59,3866761,11.5,0
2024-03-10T11:44:28,-0.45403808835,-0.26380869165,9.823733184299998,-0.004123340357836604,0.0027488935718910697,-0.011759155835311796,-0.71918,0.43190000000000006,-1.6821000000000002,6.5671680000000014,59,3866761,11.5,0
2024-03-10T11:44:28,-0.5024927459999999,-0.6173482307999999,9.7555377402,-0.028405233576207715,0.010537425358915765,-0.013897184169004852,-0.7141400000000001,0.43498000000000003,-1.6779000000000002,6.5671680000000014,59,3866761,11.5,0
2024-03-10T11:44:28,-0.43489550755,-0.51744788725,9.843473970749999,-0.02901609881440573,-0.012217304763960308,-0.013133602621257331,-0.7197400000000002,0.43694000000000005,-1.6779000000000002,5.829503999999999,52,3407993,11.5,0
2024-03-10T11:44:28,-0.39421752335,-0.40019957984999993,9.952347399049998,-0.0068722339297276735,0.005803219762881146,-0.014049900478554353,-0.71246,0.43134000000000006,-1.66516,5.829503999999999,52,3407993,11.5,0
2024-03-10T11:44:28,-0.44685962055,-0.34995030525,9.7244310464,-0.0016798794050445422,-0.00916297857297023,-0.0119118721448613,-0.71246,0.43134000000000006,-1.66516,5.829503999999999,52,3407993,11.5,0
2024-03-10T11:44:28,-0.42532421714999996,-0.41455651544999994,9.64367328365,-0.020311269170084013,0.0038179077387375964,-0.013744467859455347,-0.7222600000000001,0.43134000000000006,-1.6854600000000002,5.829503999999999,52,3407993,11.5,0
2024-03-10T11:44:28,-0.4247260115,-0.54376893585,9.931410201299999,-0.03130684345764829,0.00916297857297023,-0.01710422666954443,-0.7236600000000001,0.42462000000000005,-1.6783200000000003,5.829503999999999,52,3407993,11.5,0
2024-03-10T11:44:28,-0.36789647475,-0.6765705901499999,9.894321451,0.004276056667386108,-0.0056505034533316425,-0.014355333097653362,-0.7236600000000001,0.42462000000000005,-1.6783200000000003,5.829503999999999,52,3407993,11.5,0
2024-03-10T11:44:28,-0.32243284534999994,-0.67417776755,9.698708203449998,-0.0027488935718910697,-0.009621127501618741,-0.0119118721448613,-0.7214200000000001,0.42742,-1.68294,5.770752,51,3342455,11.5,0
2024-03-10T11:44:28,-0.3529413335,-0.5180460928999999,9.7196454012,-0.02168571595602955,-0.008246680715673207,-0.014202616788103858,-0.72282,0.42658,-1.6746800000000002,5.770752,51,3342455,11.5,0
2024-03-10T11:44:28,-0.46600220135,-0.3505485109,9.8045906035,-0.03695734691097993,0.0018325957145940463,-0.019089538693687978,-0.71806,0.42602000000000007,-1.6856000000000002,5.770752,51,3342455,11.5,0
2024-03-10T11:44:28,-0.4875376047499999,-0.28654050634999995,9.835697297299998,-0.017256942979093935,-0.015424347264499889,-0.013133602621257331,-0.71806,0.42602000000000007,-1.6856000000000002,5.770752,51,3342455,11.5,0
2024-03-10T11:44:28,-0.3152543775499999,-0.7274180704000001,9.9158568544,-0.008093964406123704,-0.01710422666954443,-0.01832595714594046,-0.7172200000000001,0.43274000000000007,-1.6706200000000002,5.770752,51,3342455,11.5,0
2024-03-10T11:44:28,-0.4875376047499999,-0.46540399569999996,9.80399239785,-0.002138028333693054,0.0006108652381980154,-0.019547687622336492,-0.7147,0.43666000000000005,-1.6926,5.770752,51,3342455,11.5,0
2024-03-10T11:44:28,-0.33858439789999994,-0.7334001269,9.862616551549998,-0.00015271630954950385,-0.013744467859455347,-0.015271630954950386,-0.72646,0.43162000000000006,-1.68182,5.933952,51,3342456,11.5,0
2024-03-10T11:44:28,-0.38045879339999994,-0.5958128274,9.777073143599997,-0.003970624048287101,-0.008857545953871223,-0.01664607774089592,-0.72646,0.43162000000000006,-1.68182,5.933952,51,3342456,11.5,0
2024-03-10T11:44:28,-0.44985064880000003,-0.46660040699999994,9.786644434,-0.028405233576207715,0.0024434609527920616,-0.012675453692608819,-0.7166600000000001,0.42966000000000004,-1.68392,5.933952,51,3342456,11.5,0
2024-03-10T11:44:28,-0.37507494255,-0.34755748264999997,9.96431151205,-0.03130684345764829,-0.0022907446432425577,-0.019547687622336492,-0.7211400000000001,0.43078000000000005,-1.6780400000000002,5.933952,51,3342456,11.5,0
2024-03-10T11:44:28,-0.4193421606499999,-0.4935196612499999,9.8608219346,-0.0003054326190990077,-0.013286318930806834,-0.013439035240356337,-0.7211400000000001,0.43078000000000005,-1.6780400000000002,5.933952,51,3342456,11.5,0
2024-03-10T11:44:28,-0.47976093129999997,-0.6095715573499999,9.50608598415,-0.01832595714594046,-0.014355333097653362,-0.01664607774089592,-0.7267400000000002,0.43162000000000006,-1.6833600000000002,5.933952,51,3342456,11.5,0
2024-03-10T11:44:28,-0.430708068,-0.6251249042499999,9.753144917599998,-0.0557414529855689,0.0044287729769356115,-0.015882496193148403,-0.71806,0.43302,-1.6767800000000002,5.992704,52,3407994,11.5,0
2024-03-10T11:44:28,-0.35353953914999997,-0.5982056499999999,9.94157969735,-0.04657847441259867,-0.002901609881440573,-0.013897184169004852,-0.71386,0.42406000000000005,-1.6823800000000002,5.992704,52,3407994,11.5,0
2024-03-10T11:44:28,-0.39661034595,-0.4354937132,9.839286531199999,-0.038637226316024474,-0.0070249502392771765,-0.017409659288643436,-0.71386,0.42406000000000005,-1.6823800000000002,5.992704,52,3407994,11.5,0
2024-03-10T11:44:28,-0.5946164160999999,-0.33858439789999994,9.868598608049998,-0.05238169417547982,0.008093964406123704,-0.016798794050445424,-0.7208600000000001,0.42686,-1.6842000000000004,5.992704,52,3407994,11.5,0
2024-03-10T11:44:28,-1.23050902205,-0.18664016279999998,9.985248709799999,-0.037110063220529434,-0.0022907446432425577,-0.02703078679026218,-0.7127400000000002,0.43078000000000005,-1.6776200000000001,5.992704,52,3407994,11.5,0
2024-03-10T11:44:28,-1.7760725748500001,-0.41455651544999994,9.940981491699999,-0.012064588454410803,0.0018325957145940463,-0.04520402762665314,-0.7127400000000002,0.43078000000000005,-1.6776200000000001,5.992704,56,3670147,11.5,0
2024-03-10T11:44:28,-1.4919248910999998,-0.24825534474999997,9.687940501749999,-0.006261368691529657,0.010995574287564279,-0.022449297503777065,-0.72282,0.43078000000000005,-1.6702000000000001,6.390912000000001,56,3670147,11.5,0
2024-03-10T11:44:28,-0.7351947438499999,-0.81176506705,9.84108114815,-0.011606439525762293,-0.01069014166846527,0.006414085001079162,-0.7127400000000002,0.43162000000000006,-1.6779000000000002,6.390912000000001,56,3670147,11.5,0
2024-03-10T11:44:28,1.57746829905,-0.82492559135,10.076774174250001,-0.04245513405476207,-0.013897184169004852,-0.03420845333908886,-0.72282,0.43946,-1.6844800000000002,6.390912000000001,56,3670147,11.5,0
2024-03-10T11:44:28,-0.5850451257,-0.46899322959999995,10.145567823999999,0.03298672286269283,-0.07192938179781631,-0.04673119072214818,-0.72282,0.43946,-1.6844800000000002,6.390912000000001,56,3670147,11.5,0
2024-03-10T11:44:28,-0.20039889274999997,0.09690931529999999,9.571290399999999,0.027947084647559205,0.048258353817643214,-0.02977968036215325,-0.71946,0.4277,-1.6738400000000002,6.390912000000001,56,3670147,11.5,0
2024-03-10T11:44:28,-0.39840496289999994,-0.5294120002499999,9.597611448599999,-0.008704829644321718,0.014966198335851376,0.008246680715673207,-0.7197400000000002,0.4333000000000001,-1.67958,7.0698240000000006,62,4063377,11.5,0
2024-03-10T11:44:28,0.17527425545,-0.8392825269499998,9.913464031799998,-0.04886921905584123,0.04612032548395016,0.012217304763960308,-0.71834,0.43750000000000006,-1.6735600000000002,7.0698240000000006,62,4063377,11.5,0
2024-03-10T11:44:28,0.47437708045,-1.13599252935,9.642476872349999,0.00015271630954950385,-0.024129176908821607,-0.00015271630954950385,-0.71834,0.43750000000000006,-1.6735600000000002,7.0698240000000006,62,4063377,11.5,0
2024-03-10T11:44:28,0.5156532703,-0.9834500885999999,9.41755154795,-0.07605272215565292,0.0033597588100890844,-0.009926560120717751,-0.72394,0.4333000000000001,-1.6927400000000001,7.0698240000000006,62,4063377,11.5,0
2024-03-10T11:44:28,0.6825526466499999,-0.7788637562999999,9.839884736850001,-0.0711658002500688,-0.0044287729769356115,-0.020311269170084013,-0.7149800000000001,0.42630000000000007,-1.6842000000000004,7.0698240000000006,62,4063377,11.5,0
2024-03-10T11:44:28,0.6819544409999999,-0.5946164160999999,10.173085283899999,-0.03634648167278191,-0.02504547476611863,-0.030237829290801762,-0.7270200000000001,0.43302,-1.6783200000000003,7.0698240000000006,62,4063377,11.5,0
2024-03-10T11:44:28,0.0634097989,-0.7046862557,9.80399239785,0.0238237442897226,-0.0476474885794452,-0.043982297150257116,-0.7270200000000001,0.43302,-1.6783200000000003,7.468032,66,4325530,11.5,0
2024-03-10T11:44:28,-0.6735795618999999,-0.57846486355,9.5964150373,-0.003054326190990077,-0.04581489286485116,-0.04260785036431157,-0.72982,0.43078000000000005,-1.6837800000000003,7.468032,66,4325530,11.5,0
2024-03-10T11:44:28,-1.16709922315,-0.10289137179999999,9.853643466800001,-0.036193765363232405,-0.008093964406123704,-0.02657263786161367,-0.7306600000000001,0.43386,-1.6797200000000003,7.468032,66,4325530,11.5,0
2024-03-10T11:44:28,-1.3663017045999997,0.34337004309999997,10.2508520184,-0.036499197982331415,0.061850105367549056,0.0016798794050445422,-0.7306600000000001,0.43386,-1.6797200000000003,7.468032,66,4325530,11.5,0
2024-03-10T11:44:28,-0.9708877699499999,-0.27337998204999997,9.8333044747,0.02932153143350474,-0.08597928227637067,0.02107485071783153,-0.7231000000000001,0.4333000000000001,-1.6770600000000002,7.468032,66,4325530,11.5,0
2024-03-10T11:44:29,-0.60358950085,-0.8739784546499999,9.3499543095,-0.015424347264499889,0.013133602621257331,0.015729779883598898,-0.7208600000000001,0.43386,-1.68504,7.468032,66,4325530,11.5,0
2024-03-10T11:44:29,-0.43968115274999997,-0.8021937766499999,9.727422074649999,-0.07941248096574201,0.031764992386296806,-0.0054977871437821395,-0.7175000000000001,0.43554000000000004,-1.6830800000000001,8.088192,71,4653222,11.5,0
2024-03-10T11:44:29,-0.44685962055,-0.48574298779999997,9.8620183459,-0.0789543320370935,0.006414085001079162,-0.013897184169004852,-0.7175000000000001,0.43554000000000004,-1.6830800000000001,8.088192,71,4653222,11.5,0
2024-03-10T11:44:29,-0.6269195211999999,-0.21116659445,9.98225768155,-0.05604688560466791,0.009315694882519735,-0.009621127501618741,-0.7256200000000002,0.43666000000000005,-1.6819600000000003,8.088192,71,4653222,11.5,0
2024-03-10T11:44:29,-0.8213363574499999,-0.17886348935000002,9.789635462249999,-0.014355333097653362,-0.006719517620178169,-0.021227567027381034,-0.73094,0.43050000000000005,-1.6723000000000001,8.088192,71,4653222,11.5,0
2024-03-10T11:44:29,-0.8231309743999999,-0.36191441825,9.820742156049999,0.0007635815477475193,-0.012522737383059314,-0.016340645121796914,-0.73094,0.43050000000000005,-1.6723000000000001,8.088192,71,4653222,11.5,0
2024-03-10T11:44:29,-0.81056865575,-0.42053857194999994,9.9170532657,0.021838432265579053,-0.02977968036215325,-0.020311269170084013,-0.7219800000000001,0.43414,-1.69036,8.088192,78,5111993,11.5,0
2024-03-10T11:44:29,-0.77946196195,-0.4474578262,9.800403163949998,0.021532999646480044,-0.015424347264499889,-0.022143864884678056,-0.7219800000000001,0.42966000000000004,-1.6725800000000002,9.315456000000001,78,5111993,11.5,0
2024-03-10T11:44:29,-0.8961120637,-0.45762732224999997,9.6502535458,0.0056505034533316425,0.0012217304763960308,-0.030085112981252257,-0.7306600000000001,0.43358,-1.6916200000000001,9.315456000000001,78,5111993,11.5,0
2024-03-10T11:44:29,-0.8159525066,-0.9242277292500001,9.741180804599999,-0.01466076571675237,0.005803219762881146,-0.04046982203061852,-0.7306600000000001,0.43358,-1.6916200000000001,9.315456000000001,78,5111993,11.5,0
2024-03-10T11:44:29,-0.6556333924,-0.04725824635,9.477970318599999,-0.07941248096574201,-0.03359758810089085,0.00595593607243065,-0.72506,0.43554000000000004,-1.67944,9.315456000000001,78,5111993,11.5,0
2024-03-10T11:44:29,-0.4701896408999999,-0.6957131709499998,10.107880868049998,-0.051007247389534285,0.016798794050445424,-0.007788531787024696,-0.7200200000000001,0.42938000000000004,-1.68504,9.315456000000001,78,5111993,11.5,0
2024-03-10T11:44:29,-1.1102696864,-0.13459627124999998,9.97986485895,-0.02107485071783153,0.004886921905584123,-0.02901609881440573,-0.72618,0.43358,-1.6669800000000004,9.981311999999999,81,5308610,11.5,0
2024-03-10T11:44:29,-0.6807580296999999,-0.16809578764999997,10.06361364995,-0.014049900478554353,0.020158552860534508,-0.008399397025222712,-0.72618,0.43358,-1.6669800000000004,9.981311999999999,81,5308610,11.5,0
2024-03-10T11:44:29,-0.18305092890000002,-0.5276173833,9.8141618939,-0.002138028333693054,0.014813482026301873,0.00015271630954950385,-0.71834,0.43414,-1.6888200000000002,9.981311999999999,81,5308610,11.5,0
2024-03-10T11:44:29,0.31405796625,-0.86440716425,9.97148997985,-0.002138028333693054,0.01710422666954443,-0.010079276430267254,-0.7219800000000001,0.42826000000000003,-1.6745400000000001,9.981311999999999,81,5308610,11.5,0
2024-03-10T11:44:29,0.66819571105,-1.0127621654499999,9.61974505765,-0.0025961772623415654,0.007177666548826681,-0.018173240836390957,-0.7219800000000001,0.42826000000000003,-1.6745400000000001,9.981311999999999,81,5308610,11.5,0
2024-03-10T11:44:29,0.7369893607999999,-1.1569297271,9.681360239599998,0.007635815477475193,-0.021532999646480044,-0.004123340357836604,-0.7197400000000002,0.43218000000000006,-1.67916,9.981311999999999,81,5308610,11.5,0
2024-03-10T11:44:29,0.45882373355,-1.09411813385,9.692127941299999,-0.02061670178918302,-0.04612032548395016,-0.02260201381332657,-0.72282,0.43078000000000005,-1.6786,9.92256,80,5243072,11.5,0
2024-03-10T11:44:29,-0.21954147355,-0.7495516794499998,9.75733235715,-0.0435241482216086,-0.03237585762449482,-0.03741549583962844,-0.71358,0.43218000000000006,-1.6902200000000003,9.92256,80,5243072,11.5,0
2024-03-10T11:44:29,-0.7172485743499999,-0.5419743188999999,9.9649097177,-0.05192354524683131,-0.017256942979093935,-0.03695734691097993,-0.71358,0.43218000000000006,-1.6902200000000003,9.92256,80,5243072,11.5,0
2024-03-10T11:44:29,-0.7555337359499998,0.20039889274999997,9.80518880915,-0.038484510006474966,-0.007941248096574201,-0.03130684345764829,-0.7214200000000001,0.43218000000000006,-1.6809800000000001,9.92256,80,5243072,11.5,0
2024-03-10T11:44:29,-1.4620146085999999,0.45523449964999996,10.6564354491,-0.09392053037294487,-0.014813482026301873,-0.00595593607243065,-0.7203,0.43442000000000003,-1.6920400000000002,9.92256,80,5243072,11.5,0
2024-03-10T11:44:29,-0.8554340794999999,-0.2105683888,9.999007439749999,-0.004123340357836604,-0.08903360846736075,0.012217304763960308,-0.7203,0.39858000000000005,-1.68168,9.92256,80,5243072,11.5,0
2024-03-10T11:44:29,-0.46839502395,-0.48454657649999994,9.650851751449999,0.005345070834232635,-0.003207042500539581,-0.0038179077387375964,-0.7284200000000001,0.42798,-1.68168,10.027007999999999,79,5177535,11.5,0
2024-03-10T11:44:29,-0.44446679795,-0.84167534955,9.93081199565,-0.013439035240356337,-0.04627304179349966,-0.013286318930806834,-0.73094,0.43778,-1.6885400000000002,10.027007999999999,79,5177535,11.5,0
2024-03-10T11:44:29,-0.72801627605,-0.9589236569499999,9.73699336505,-0.030085112981252257,-0.012522737383059314,-0.020463985479633514,-0.7225400000000001,0.43750000000000006,-1.6854600000000002,10.027007999999999,79,5177535,11.5,0
2024-03-10T11:44:29,-0.9936195846499999,-0.28115665549999996,9.753144917599998,-0.05207626155638081,0.022449297503777065,-0.012828170002158324,-0.7225400000000001,0.43750000000000006,-1.6854600000000002,10.027007999999999,79,5177535,11.5,0
2024-03-10T11:44:29,-1.1736794852999999,-0.049651068949999995,10.09830957765,-0.031764992386296806,0.013897184169004852,-0.015882496193148403,-0.7233800000000001,0.43498000000000003,-1.6882600000000003,10.027007999999999,79,5177535,11.5,0
2024-03-10T11:44:29,-1.1874382152499998,-0.07477570624999999,9.762118002349998,0.0007635815477475193,-0.01756237559819294,-0.017715091907742446,-0.7186200000000001,0.43582000000000004,-1.6746800000000002,10.027007999999999,79,5177535,11.5,0
2024-03-10T11:44:29,-0.037686955949999996,-0.6460621019999999,9.68076203395,-0.0038179077387375964,0.04306599929296009,-0.023212879051524585,-0.71918,0.42546000000000006,-1.66782,9.700607999999999,79,5177533,11.5,0
2024-03-10T11:44:29,-0.44087756405,-0.21954147355,9.966106128999998,0.007177666548826681,0.031459559767197796,0.0019853120241435504,-0.71918,0.42546000000000006,-1.66782,9.700607999999999,79,5177533,11.5,0
2024-03-10T11:44:29,-0.41096728154999995,-0.8632107529499998,9.81117086565,0.004123340357836604,-0.007330382858376185,-0.009621127501618741,-0.7292600000000001,0.43442000000000003,-1.6849,9.700607999999999,79,5177533,11.5,0
2024-03-10T11:44:29,-0.44386859230000003,-0.06759723845,9.771091087099999,-0.037110063220529434,0.015577063574049392,-0.011301006906663285,-0.71694,0.42994000000000004,-1.6954,9.700607999999999,79,5177533,11.5,0
2024-03-10T11:44:29,-1.0432706536,-0.32482566794999995,9.93320481825,-0.013744467859455347,0.0009162978572970231,-0.003207042500539581,-0.71694,0.42994000000000004,-1.6954,9.700607999999999,79,5177533,11.5,0
2024-03-10T11:44:29,-0.6251249042499999,-0.37627135385,9.936794052149999,-0.014049900478554353,0.020769418098732523,0.00595593607243065,-0.7219800000000001,0.42742,-1.67916,9.583104000000002,77,5046457,11.5,0
2024-03-10T11:44:29,0.55573304885,-0.50907300815,9.7794659662,-0.004581489286485115,0.038331793696925465,-0.0036651914291880926,-0.7217,0.43302,-1.66964,9.583104000000002,77,5046457,11.5,0
2024-03-10T11:44:29,0.45104706009999995,-0.7411768003499999,9.8452685877,0.0038179077387375964,0.02458732583747012,-0.006719517620178169,-0.7247800000000001,0.42630000000000007,-1.6843400000000002,9.583104000000002,77,5046457,11.5,0
2024-03-10T11:44:29,0.46002014485,-1.0145567824,9.428319249649999,-0.039095375244672985,-0.007788531787024696,-0.017256942979093935,-0.7247800000000001,0.42630000000000007,-1.6843400000000002,9.583104000000002,77,5046457,11.5,0
2024-03-10T11:44:29,0.2596212521,-0.9158528501499998,9.5150590689,-0.051770828937281806,-0.005039638215133627,-0.024434609527920616,-0.7236600000000001,0.42938000000000004,-1.6814,9.583104000000002,77,5046457,11.5,0
2024-03-10T11:44:29,-0.0047856452,-0.7603193811499999,9.97029356855,-0.05742133239061345,-0.016798794050445424,-0.027488935718910694,-0.7214200000000001,0.43442000000000003,-1.68266,9.583104000000002,77,5046457,11.5,0
2024-03-10T11:44:29,-0.5425725245499999,-0.5994020613,10.077970585549998,-0.028710666195306725,-0.026419921552064168,-0.028710666195306725,-0.7214200000000001,0.43442000000000003,-1.68266,9.302400000000002,75,4915380,11.5,0
2024-03-10T11:44:29,-0.58085768615,-0.35832518435,9.78245699445,-0.021838432265579053,-0.03588833274413341,-0.0316122760767473,-0.7177800000000001,0.4333000000000001,-1.67188,9.302400000000002,75,4915380,11.5,0
2024-03-10T11:44:29,-0.6592226262999998,-0.33678978094999995,9.91884788265,-0.011759155835311796,-0.02290744643242558,-0.03451388595818787,-0.72422,0.42714,-1.6822400000000002,9.302400000000002,75,4915380,11.5,0
2024-03-10T11:44:29,-0.50309095165,0.0029910282499999996,9.841679353799998,-0.012828170002158324,0.0027488935718910697,-0.02458732583747012,-0.7175000000000001,0.42574000000000006,-1.6706200000000002,9.302400000000002,75,4915380,11.5,0
2024-03-10T11:44:29,-0.9367900479,-0.025722842949999998,10.356734418450001,-0.009010262263420728,-0.0027488935718910697,-0.008093964406123704,-0.7175000000000001,0.42574000000000006,-1.6706200000000002,9.302400000000002,75,4915380,11.5,0
2024-03-10T11:44:29,-0.6586244206499999,-0.44446679795,9.80877804305,0.026114488932965158,-0.061697389057999555,0.0016798794050445422,-0.72618,0.42854000000000003,-1.6704800000000002,9.302400000000002,75,4915380,11.5,0
2024-03-10T11:44:29,-0.39421752335,-0.5395814963,9.63290558195,-0.009315694882519735,0.01466076571675237,0.00015271630954950385,-0.7208600000000001,0.42462000000000005,-1.6688000000000003,9.361152000000002,76,4980918,11.5,0
2024-03-10T11:44:29,-0.6209374647,-0.58085768615,9.88415195495,-0.020311269170084013,0.0,0.0016798794050445422,-0.7177800000000001,0.42434000000000005,-1.6808400000000001,9.361152000000002,76,4980918,11.5,0
2024-03-10T11:44:29,-0.8877371846000001,-0.43968115274999997,9.796813930049998,0.0016798794050445422,-0.020769418098732523,-0.009010262263420728,-0.7177800000000001,0.42434000000000005,-1.6808400000000001,9.361152000000002,76,4980918,11.5,0
2024-03-10T11:44:29,-1.0540383553,-0.2715853651,9.3511507208,-0.014966198335851376,-0.012064588454410803,-0.015118914645400881,-0.7233800000000001,0.42014000000000007,-1.6854600000000002,9.361152000000002,76,4980918,11.5,0
2024-03-10T11:44:29,-1.0127621654499999,-0.19262221929999998,9.906285564,-0.025961772623415653,0.013897184169004852,-0.012522737383059314,-0.7281400000000001,0.42658,-1.6787400000000003,9.361152000000002,76,4980918,11.5,0
2024-03-10T11:44:29,-0.8961120637,-0.34217363179999993,9.851848849849999,0.0007635815477475193,0.00045814892864851157,-0.01618792881224741,-0.7211400000000001,0.4277,-1.6703400000000002,9.361152000000002,76,5046457,11.5,0
2024-03-10T11:44:29,-0.62871413815,-0.50309095165,9.8321080634,-0.003207042500539581,0.0015271630954950385,-0.027488935718910694,-0.7211400000000001,0.4277,-1.6703400000000002,9.583104000000002,77,5046457,11.5,0
2024-03-10T11:44:29,0.3391826035499999,-0.6305087550999998,9.76690364755,-0.010231992739816757,-0.008704829644321718,0.025809056313866152,-0.7189000000000001,0.42938000000000004,-1.67104,9.583104000000002,77,5046457,11.5,0
2024-03-10T11:44:29,-0.19800607015,-0.8548358738499999,9.729216691599998,-0.014202616788103858,-0.0015271630954950385,-0.0119118721448613,-0.7292600000000001,0.42574000000000006,-1.6756600000000001,9.583104000000002,77,5046457,11.5,0
2024-03-10T11:44:30,-0.8656035755499999,-0.5545366375499999,9.869795019349999,-0.014813482026301873,0.0022907446432425577,-0.015424347264499889,-0.7292600000000001,0.42574000000000006,-1.6756600000000001,9.583104000000002,77,5046457,11.5,0
2024-03-10T11:44:30,-0.3780659708,0.33080772444999995,9.67597638875,-0.015271630954950386,0.025198191075668133,-0.006108652381980154,-0.7208600000000001,0.43274000000000007,-1.6679600000000003,9.583104000000002,77,5046457,11.5,0
2024-03-10T11:44:30,-1.17667051355,-0.23569302609999998,10.100702400249999,-0.0070249502392771765,0.02458732583747012,0.0044287729769356115,-0.7303800000000001,0.42938000000000004,-1.6634800000000003,9.583104000000002,77,5046457,11.5,0
2024-03-10T11:44:30,-0.5694917787999999,-0.19441683624999997,9.9732845968,-0.008704829644321718,-0.0013744467859455349,0.00595593607243065,-0.7231000000000001,0.43610000000000004,-1.68616,9.583104000000002,77,5046457,11.5,0
2024-03-10T11:44:30,0.20578274359999998,-0.44446679795,9.677771005699999,0.0357356164345839,0.1232420618064496,0.007177666548826681,-0.7231000000000001,0.43610000000000004,-1.68616,9.583104000000002,77,5046457,11.5,0
2024-03-10T11:44:30,0.54735816975,-0.7046862557,10.256834074899999,-0.013897184169004852,0.14889840181076625,-0.0025961772623415654,-0.72618,0.42210000000000003,-1.6765000000000003,9.583104000000002,77,5046457,11.5,0
2024-03-10T11:44:30,0.6400800454999999,-1.0313065406,9.5365944723,0.028099800957108706,-0.0012217304763960308,-0.00916297857297023,-0.7245000000000001,0.43470000000000003,-1.6906400000000001,9.583104000000002,77,5046457,11.5,0
2024-03-10T11:44:30,0.5635097223,-1.0510473270499998,9.1776710823,-0.004886921905584123,-0.010995574287564279,-0.019089538693687978,-0.7245000000000001,0.43470000000000003,-1.6906400000000001,9.583104000000002,77,5046457,11.5,0
2024-03-10T11:44:30,0.44925244314999996,-0.9134600275499999,9.906285564,-0.0949895445397914,-0.005192354524683131,-0.018020524526841455,-0.72618,0.42686,-1.66894,9.419904,77,5046456,11.5,0
2024-03-10T11:44:30,0.2656033086,-0.6496513358999999,10.071390323399998,-0.019700403931885997,-0.07651087108430142,-0.028099800957108706,-0.7236600000000001,0.43806000000000006,-1.68182,9.419904,77,5046456,11.5,0
2024-03-10T11:44:30,-0.2907279459,-0.6293123437999999,9.580263484749999,-0.014508049407202865,-0.0633772684630441,-0.03756821214917795,-0.7267400000000002,0.43638000000000005,-1.6837800000000003,9.419904,77,5046456,11.5,0
2024-03-10T11:44:30,-0.8189435348499999,-0.26500510294999996,9.90329453575,-0.07391469382195986,-0.009621127501618741,-0.03634648167278191,-0.71694,0.43554000000000004,-1.6777600000000001,9.419904,77,5046456,11.5,0
2024-03-10T11:44:30,-1.00797652025,-0.10588240005,10.239486111049999,-0.014355333097653362,-0.02061670178918302,-0.03466660226773738,-0.71694,0.43554000000000004,-1.6777600000000001,9.419904,77,5046456,11.5,0
2024-03-10T11:44:30,-0.8410771438999999,0.21954147355,9.834500885999999,0.012064588454410803,0.011759155835311796,-0.015118914645400881,-0.72982,0.43358,-1.6739800000000002,9.419904,77,5046456,11.5,0
2024-03-10T11:44:30,-0.8183453291999999,-0.23988046564999999,9.7076812882,0.029168815123955236,0.030848694528999777,0.0016798794050445422,-0.72758,0.43106000000000005,-1.68294,9.478656,78,5111994,11.5,0
2024-03-10T11:44:30,-0.5802594805,-0.6472585132999998,9.85304526115,0.014355333097653362,0.001069014166846527,-0.004276056667386108,-0.72758,0.43106000000000005,-1.68294,9.478656,78,5111994,11.5,0
2024-03-10T11:44:30,-0.31884361145,-0.6448656906999999,9.6502535458,-0.0070249502392771765,-0.01145372321621279,-0.016035212502697904,-0.72422,0.43694000000000005,-1.6884000000000001,9.478656,78,5111994,11.5,0
2024-03-10T11:44:30,-0.31166514365,-0.58444692005,9.7340023368,-0.02825251726665821,0.0038179077387375964,-0.015424347264499889,-0.72058,0.43246,-1.67818,9.478656,78,5111994,11.5,0
2024-03-10T11:44:30,-0.62871413815,-0.43609191885,9.952347399049998,-0.021532999646480044,0.005039638215133627,-0.0068722339297276735,-0.7189000000000001,0.42798,-1.6948400000000001,9.478656,78,5111994,11.5,0
2024-03-10T11:44:30,-0.8673981924999999,-0.36071800695,9.8261260069,-0.006108652381980154,-0.015424347264499889,-0.007788531787024696,-0.7189000000000001,0.42798,-1.6948400000000001,9.478656,79,5177533,11.5,0
2024-03-10T11:44:30,-0.9708877699499999,-0.3391826035499999,9.705886671250001,-0.017256942979093935,-0.0003054326190990077,-0.017409659288643436,-0.7222600000000001,0.42714,-1.68182,9.700607999999999,79,5177533,11.5,0
2024-03-10T11:44:30,-0.9702895642999998,-0.28474588939999995,9.884750160599998,-0.030085112981252257,0.01786780821729195,-0.020005836550985007,-0.7186200000000001,0.42994000000000004,-1.6814,9.700607999999999,79,5177533,11.5,0
2024-03-10T11:44:30,-0.7028916387499999,-0.6041877065,10.0235338714,0.003054326190990077,0.008857545953871223,-0.013133602621257331,-0.7186200000000001,0.42994000000000004,-1.6814,9.700607999999999,79,5177533,11.5,0
2024-03-10T11:44:30,-0.5036891573,-0.38524443859999996,9.6658068927,-0.0012217304763960308,0.006566801310628666,-0.0013744467859455349,-0.7175000000000001,0.42994000000000004,-1.6843400000000002,9.700607999999999,79,5177533,11.5,1
2024-03-10T11:44:30,-0.27098715944999996,-0.46839502395,10.238887905399999,-0.009773843811168246,0.014966198335851376,-0.011606439525762293,-0.7161000000000001,0.43106000000000005,-1.6832200000000002,9.700607999999999,79,5177533,11.5,1
2024-03-10T11:44:30,-1.08813607735,-0.22193429615000002,9.963115100749999,0.019089538693687978,-0.022754730122876075,-0.014049900478554353,-0.71694,0.42910000000000004,-1.6885400000000002,9.700607999999999,79,5177533,11.5,1
2024-03-10T11:44:30,-1.0510473270499998,0.028713871199999998,9.70947590515,-0.041691552507014555,0.02138028333693054,0.0003054326190990077,-0.71694,0.42910000000000004,-1.6885400000000002,9.700607999999999,79,5177533,11.5,1
2024-03-10T11:44:30,-0.9810572659999999,-0.17407784415000002,10.03250695615,-0.028099800957108706,0.01618792881224741,0.00473420559603462,-0.71694,0.43498000000000003,-1.6877000000000002,9.700607999999999,79,5177533,11.5,1
2024-03-10T11:44:30,-0.37507494255,-0.33200413574999993,10.001998467999998,-0.004123340357836604,0.01893682238413848,-0.0006108652381980154,-0.72058,0.43638000000000005,-1.6779000000000002,9.700607999999999,79,5177533,11.5,1
2024-03-10T11:44:30,-0.13938191645,-0.54017970195,9.99661461715,-0.025503623694767143,0.04718933965079669,0.00473420559603462,-0.7186200000000001,0.42658,-1.6830800000000001,9.700607999999999,79,5177533,11.5,1
2024-03-10T11:44:30,0.42173498325,-0.8769694829,9.7914300792,-0.0003054326190990077,0.03924809155422249,-0.011301006906663285,-0.7186200000000001,0.42658,-1.6830800000000001,9.700607999999999,79,5177533,11.5,1
2024-03-10T11:44:30,0.6436692794,-0.98524470555,9.553344230499999,0.00595593607243065,0.012675453692608819,-0.015118914645400881,-0.7161000000000001,0.42882000000000003,-1.6780400000000002,9.700607999999999,79,5177533,11.5,1
2024-03-10T11:44:30,0.44626141489999993,-1.09411813385,9.481559552499998,-0.009010262263420728,-0.029932396671702752,-0.013591751549905842,-0.71386,0.43862000000000007,-1.6720200000000003,9.700607999999999,79,5177533,11.5,1
2024-03-10T11:44:30,0.39661034595,-0.9355936366,9.6394858441,-0.031764992386296806,-0.03481931857728687,-0.025961772623415653,-0.7247800000000001,0.43778,-1.67104,9.700607999999999,79,5177533,11.5,1
2024-03-10T11:44:30,0.029910282499999996,-0.7657032319999999,9.91286582615,-0.02458732583747012,-0.05299255941367784,-0.038942658935123484,-0.7247800000000001,0.43778,-1.67104,9.700607999999999,79,5177533,11.5,1
2024-03-10T11:44:30,-0.54735816975,-0.41694933804999995,9.8500542329,-0.030695978219450276,-0.051312680008633295,-0.04230241774521256,-0.72282,0.43414,-1.6762200000000003,9.700607999999999,79,5177533,11.5,1
2024-03-10T11:44:30,-0.8560322851499998,-0.1878365741,10.007980524499999,-0.039858956792420505,-0.03436116964863837,-0.03405573702953936,-0.72646,0.43666000000000005,-1.67692,9.700607999999999,79,5177533,11.5,1
2024-03-10T11:44:30,-0.6448656906999999,0.29970103065,9.9936235889,-0.02428189321837111,0.002901609881440573,-0.015577063574049392,-0.72646,0.43666000000000005,-1.67692,9.863807999999999,79,5177534,11.5,1
2024-03-10T11:44:30,-0.6867400861999999,-0.0047856452,9.628119936749998,0.06597344572538566,0.05513058774737089,0.005039638215133627,-0.7186200000000001,0.43358,-1.68294,9.863807999999999,79,5177534,11.5,1
2024-03-10T11:44:30,-0.7130611348,-0.40857445894999994,9.6825566509,0.007788531787024696,-0.006108652381980154,0.004276056667386108,-0.7270200000000001,0.43554000000000004,-1.6843400000000002,9.863807999999999,79,5177534,11.5,1
2024-03-10T11:44:30,-0.430708068,-0.8386843212999998,9.72861848595,-0.04016438941151951,-0.0018325957145940463,0.0,-0.7281400000000001,0.43106000000000005,-1.68714,9.863807999999999,79,5177534,11.5,1
2024-03-10T11:44:30,-0.48454657649999994,-0.8171489178999999,10.0031948793,-0.015577063574049392,0.007330382858376185,-0.006719517620178169,-0.7281400000000001,0.43106000000000005,-1.68714,9.863807999999999,79,5177534,11.5,1
2024-03-10T11:44:30,-0.7034898444000001,-0.42592242280000003,9.7651090306,0.006108652381980154,-0.008704829644321718,-0.015729779883598898,-0.7278600000000001,0.42938000000000004,-1.67328,9.863807999999999,79,5177534,11.5,1
2024-03-10T11:44:30,-0.9750752094999998,-0.17706887240000002,9.6059863277,-0.025809056313866152,0.0009162978572970231,-0.008093964406123704,-0.7186200000000001,0.43246,-1.6857400000000002,9.863807999999999,79,5177534,11.5,1
2024-03-10T11:44:30,-1.1425727915,-0.19142580799999998,9.8811609267,-0.030848694528999777,-0.00015271630954950385,-0.008704829644321718,-0.7186200000000001,0.43246,-1.6857400000000002,9.863807999999999,79,5177534,11.5,1
2024-03-10T11:44:30,-0.9750752094999998,-0.31405796625,9.9098747979,-0.013439035240356337,0.008399397025222712,-0.01756237559819294,-0.72646,0.43470000000000003,-1.6738400000000002,9.863807999999999,79,5177534,11.5,1
2024-03-10T11:44:30,-0.82013994615,-0.4761716973999999,9.7459664498,-0.008093964406123704,0.009315694882519735,-0.020311269170084013,-0.7317800000000001,0.43582000000000004,-1.6766400000000001,9.863807999999999,79,5177534,11.5,1
2024-03-10T11:44:30,-0.7298108929999999,-0.5515456093,9.785448022699999,-0.01618792881224741,0.019394971312786988,-0.03405573702953936,-0.73206,0.42854000000000003,-1.6902200000000003,9.863807999999999,79,5177534,11.5,1
2024-03-10T11:44:30,-0.66221365455,-0.25184457865,9.8680004024,-0.04963280060358875,-0.02504547476611863,0.009315694882519735,-0.73206,0.42854000000000003,-1.6902200000000003,9.863807999999999,79,5177534,11.5,1
2024-03-10T11:44:30,-0.3613162126,-0.82372918005,10.033703367449998,-0.014202616788103858,-0.008399397025222712,-0.010842857978014774,-0.71834,0.42882000000000003,-1.6941400000000002,9.863807999999999,79,5177534,11.5,1
2024-03-10T11:44:30,-1.0426724479499998,-0.39421752335,9.85424167245,-0.009926560120717751,-0.016493361431346415,-0.01756237559819294,-0.7259000000000001,0.42630000000000007,-1.6847600000000003,9.863807999999999,79,5177534,11.5,1
2024-03-10T11:44:30,-1.12163559375,0.08195417405,9.8979106849,-0.0319177086958463,0.025656340004316647,-0.004123340357836604,-0.72394,0.43078000000000005,-1.6788800000000001,9.863807999999999,79,5177534,11.5,1
2024-03-10T11:44:30,-0.9834500885999999,-0.2703889538,10.039087218299999,0.004123340357836604,-0.008857545953871223,0.0012217304763960308,-0.72394,0.43078000000000005,-1.6788800000000001,9.863807999999999,79,5177534,11.5,1
2024-03-10T11:44:30,0.2536391956,-0.5491527867,9.954740221649999,-0.007635815477475193,0.06276640322484608,0.012980886311707827,-0.7222600000000001,0.42126,-1.6805600000000003,9.863807999999999,79,5177534,11.5,1
2024-03-10T11:44:30,0.57966127485,-0.81296147835,9.7615197967,0.019700403931885997,0.047952921198544204,-0.0038179077387375964,-0.7219800000000001,0.43358,-1.6837800000000003,9.863807999999999,79,5177534,11.5,1
2024-03-10T11:44:31,0.7579265585499999,-0.95653083435,9.500103927649999,-0.0003054326190990077,0.026267205242514663,-0.016493361431346415,-0.7219800000000001,0.43358,-1.6837800000000003,9.863807999999999,79,5177534,11.5,1
2024-03-10T11:44:31,0.7268198647499999,-1.13479611805,9.4468636248,-0.01863138976503947,-0.007941248096574201,-0.01893682238413848,-0.72758,0.42686,-1.6802800000000002,9.863807999999999,79,5177534,11.5,1
2024-03-10T11:44:31,0.5395814963,-1.07976119825,9.5904329808,-0.030695978219450276,-0.037110063220529434,-0.025198191075668133,-0.7177800000000001,0.43610000000000004,-1.68868,9.863807999999999,79,5177534,11.5,1
2024-03-10T11:44:31,0.1052841944,-0.8775676885499999,9.785448022699999,-0.04321871560250959,-0.04810563750809371,-0.04077525464971753,-0.7222600000000001,0.41958000000000006,-1.6884000000000001,9.863807999999999,79,5177534,11.5,1
2024-03-10T11:44:31,-0.5742774239999999,-0.5335994398,9.978070242,-0.04016438941151951,-0.04642575810304917,-0.04413501345980661,-0.7222600000000001,0.41958000000000006,-1.6884000000000001,9.863807999999999,79,5177534,11.5,1
2024-03-10T11:44:31,-0.9750752094999998,-0.10169496049999999,10.1156575415,-0.025656340004316647,-0.03634648167278191,-0.036499197982331415,-0.72394,0.42938000000000004,-1.6797200000000003,9.700607999999999,79,5177533,11.5,1
2024-03-10T11:44:31,-1.13718894065,0.5072783912,9.678967416999999,-0.011759155835311796,0.0119118721448613,-0.016493361431346415,-0.7186200000000001,0.43218000000000006,-1.6864400000000002,9.700607999999999,79,5177533,11.5,1
2024-03-10T11:44:31,-0.8309076478499999,0.22013967919999997,9.522237536699999,0.03527746750593539,0.10186177846951906,0.006108652381980154,-0.7186200000000001,0.43218000000000006,-1.6849,9.700607999999999,79,5177533,11.5,1
2024-03-10T11:44:31,-0.7202396026000001,-0.36610185780000004,9.7639126193,-0.004886921905584123,-0.025503623694767143,0.011606439525762293,-0.7208600000000001,0.42602000000000007,-1.6849,9.700607999999999,79,5177533,11.5,1
2024-03-10T11:44:31,-0.31166514365,-0.8703892207499999,9.72024360685,-0.02657263786161367,-0.0024434609527920616,-0.0022907446432425577,-0.7200200000000001,0.43386,-1.6898000000000002,9.700607999999999,79,5177533,11.5,1
2024-03-10T11:44:31,-0.4935196612499999,-0.8021937766499999,9.87458066455,-0.021991148575128558,0.0068722339297276735,-0.010079276430267254,-0.7259000000000001,0.43358,-1.6937200000000003,9.700607999999999,79,5177533,11.5,1
2024-03-10T11:44:31,-0.7028916387499999,-0.39242290639999994,9.8500542329,-0.009621127501618741,-0.0035124751196385882,-0.014202616788103858,-0.7259000000000001,0.43358,-1.6937200000000003,9.641856,78,5111995,11.5,1
2024-03-10T11:44:31,-1.14556381975,-0.22432711874999997,9.744770038499999,-0.013897184169004852,-0.008704829644321718,-0.00946841119206924,-0.72282,0.43414,-1.7095400000000003,9.641856,78,5111995,11.5,1
2024-03-10T11:44:31,-1.2490533971999997,-0.18185451760000002,9.853643466800001,-0.01664607774089592,0.0012217304763960308,-0.011759155835311796,-0.71946,0.43554000000000004,-1.6907800000000002,9.641856,78,5111995,11.5,1
2024-03-10T11:44:31,-1.20658079605,-0.2596212521,9.829715240799999,-0.01710422666954443,0.012064588454410803,-0.02428189321837111,-0.7278600000000001,0.43218000000000006,-1.6815400000000003,9.641856,78,5111995,11.5,1
2024-03-10T11:44:31,-1.09651095645,-0.45403808835,9.811769071299999,-0.014202616788103858,0.01710422666954443,-0.036193765363232405,-0.7278600000000001,0.43218000000000006,-1.6815400000000003,9.641856,78,5111995,11.5,1
2024-03-10T11:44:31,-0.9337990196499999,-0.037686955949999996,10.04447106915,-0.051312680008633295,-0.04077525464971753,0.01832595714594046,-0.71946,0.4333000000000001,-1.6783200000000003,9.583104000000002,77,5046457,11.5,1
2024-03-10T11:44:31,-0.46899322959999995,-0.8817551281,9.97388280245,-0.013591751549905842,-0.020158552860534508,-0.007177666548826681,-0.73318,0.43918000000000007,-1.68616,9.583104000000002,77,5046457,11.5,1
2024-03-10T11:44:31,-1.1557333157999998,0.09810572659999998,9.75135030065,-0.01145372321621279,0.029932396671702752,-0.008246680715673207,-0.71694,0.43358,-1.6734200000000001,9.583104000000002,77,5046457,11.5,1
2024-03-10T11:44:31,-1.5361921092,-0.059222359349999996,9.894321451,0.0003054326190990077,-0.0012217304763960308,0.007788531787024696,-0.71694,0.43358,-1.6734200000000001,9.583104000000002,77,5046457,11.5,1
2024-03-10T11:44:31,-0.30747770409999997,-0.2715853651,10.1204431867,-0.026114488932965158,0.07177666548826682,0.016951510359994926,-0.7315000000000002,0.43694000000000005,-1.6755200000000001,9.583104000000002,77,5046457,11.5,1
2024-03-10T11:44:31,0.3212364340499999,-0.8087740387999999,10.168897844349999,0.012675453692608819,0.05803219762881146,0.004123340357836604,-0.72282,0.42966000000000004,-1.6843400000000002,9.583104000000002,77,5046457,11.5,1
2024-03-10T11:44:31,0.6699903279999999,-0.9667003303999999,9.65922663055,0.028099800957108706,0.04276056667386108,-0.014049900478554353,-0.72282,0.42966000000000004,-1.6843400000000002,9.524352000000002,76,4980919,11.5,1
2024-03-10T11:44:31,0.5946164160999999,-1.1718848683499998,9.269196546749999,0.006108652381980154,0.01710422666954443,-0.007483099167925688,-0.7245000000000001,0.42714,-1.6878400000000002,9.524352000000002,76,4980919,11.5,1
2024-03-10T11:44:31,1.1712866627,-1.1461620253999998,9.3702933016,-0.020769418098732523,-0.036499197982331415,0.00045814892864851157,-0.7133,0.43050000000000005,-1.68812,9.524352000000002,76,4980919,11.5,1
2024-03-10T11:44:31,0.6520441584999999,-1.0755737586999998,9.605388122049998,-0.0554360203664699,-0.0357356164345839,-0.022754730122876075,-0.72422,0.43246,-1.6853200000000002,9.524352000000002,76,4980919,11.5,1
2024-03-10T11:44:31,0.2679961312,-0.85962151905,9.95115098775,-0.06429356632034113,-0.05314527572322734,-0.029626964052603746,-0.72422,0.43246,-1.6853200000000002,9.524352000000002,76,4980919,11.5,1
2024-03-10T11:44:31,-0.6556333924,-0.4881358103999999,10.14257679575,-0.04230241774521256,-0.06612616203493517,-0.03726277953007894,-0.7247800000000001,0.42854000000000003,-1.6793000000000002,9.524352000000002,76,4980919,11.5,1
2024-03-10T11:44:31,-1.3387842447,-0.2105683888,9.94277610865,-0.025809056313866152,-0.037110063220529434,-0.04306599929296009,-0.7267400000000002,0.43358,-1.6889600000000002,9.302400000000002,75,4915380,11.5,1
2024-03-10T11:44:31,-1.2538390423999999,0.4779663143499999,9.79202828485,-0.02657263786161367,0.0006108652381980154,-0.028405233576207715,-0.7267400000000002,0.43358,-1.6889600000000002,9.302400000000002,75,4915380,11.5,1
2024-03-10T11:44:31,-0.8255237969999999,0.28594230069999993,10.243075344949998,-0.03436116964863837,0.012217304763960308,0.037110063220529434,-0.7177800000000001,0.43022000000000005,-1.6739800000000002,9.302400000000002,75,4915380,11.5,1
2024-03-10T11:44:31,-0.40677984199999995,-0.59282179915,9.6095755616,0.05604688560466791,-0.00916297857297023,0.007788531787024696,-0.7256200000000002,0.43302,-1.6867200000000002,9.302400000000002,75,4915380,11.5,1
2024-03-10T11:44:31,-0.28235306679999994,-0.8392825269499998,9.54197832315,0.013286318930806834,-0.0025961772623415654,-0.009773843811168246,-0.72506,0.42994000000000004,-1.6784600000000003,9.302400000000002,75,4915380,11.5,1
2024-03-10T11:44:31,-0.14057832774999998,-0.8446663778,9.71306513905,-0.043982297150257116,0.0016798794050445422,-0.01618792881224741,-0.72506,0.42994000000000004,-1.6784600000000003,9.302400000000002,75,4915380,11.5,1
2024-03-10T11:44:31,-0.5455635528,-0.5706881900999999,10.006784113199998,-0.03497203488683638,0.007330382858376185,-0.008093964406123704,-0.7222600000000001,0.43442000000000003,-1.6910600000000002,9.197952,76,4980917,11.5,1
