Timestamp,Accel_X,Accel_Y,Accel_Z,Gyro_X,Gyro_Y,Gyro_Z,Mag_X,Mag_Y,Mag_Z,LSM9DS1_Temp,Proximity,Color_R,Color_G,Color_B,Color_C,BME680_Temp,Gas,Humidity,Pressure,Switch_Pressed,GPS_Latitude,GPS_Longitude,GPS_Speed,GPS_Timestamp,Pad_press
2024-04-02T10:42:07,1.3770694062999997,-0.15972090854999998,9.8141618939,0.019853120241435502,0.021991148575128558,0.08811731061006371,0.042140000000000004,0.2888200000000001,-0.21280000000000002,22.5,1,0,0,0,0,33.574921875,116379,100,695.662002676745,0,,,,N/A,False
2024-04-02T10:42:07,1.3184452525999997,-0.20398812665,9.8620183459,0.018478673455489966,0.02260201381332657,0.0870482964432172,0.045500000000000006,0.29134000000000004,-0.21462000000000003,22.5,0,439,321,606,1705,33.574921875,116379,100,695.662002676745,0,,,,N/A,False
2024-04-02T10:42:07,1.35134656335,-0.10707881135,9.6442714893,0.022754730122876075,0.017715091907742446,0.08399397025222713,0.04522,0.29274,-0.2156,22.5,0,439,321,606,1705,33.574921875,116379,100,695.662002676745,0,,,,N/A,False
2024-04-02T10:42:07,1.2831511192499998,-0.1004985492,9.647262517549999,0.021532999646480044,0.02168571595602955,0.08842274322916273,0.03934,0.28378000000000003,-0.2079,22.5,0,439,321,606,1705,31.41203125,37638,23.568901171578865,1013.1631524229524,0,,,,N/A,False
2024-04-02T10:42:07,1.3148560187,-0.14297115034999996,9.57308501695,0.02061670178918302,0.021227567027381034,0.0867428638241182,0.042140000000000004,0.2933,-0.21672000000000002,22.5,0,439,321,606,1705,31.41203125,37638,23.568901171578865,1013.1631524229524,0,,,,N/A,False
2024-04-02T10:42:07,1.26161571585,-0.12741780345,9.628718142399999,0.01893682238413848,0.020769418098732523,0.08888089215781124,0.03654,0.29022000000000003,-0.20986000000000002,22.5,0,439,321,606,1705,31.41203125,37638,23.568901171578865,1013.1631524229524,0,,,,N/A,False
2024-04-02T10:42:07,1.30229370005,-0.14177473905,9.6000042712,0.019394971312786988,0.019242255003237483,0.08689558013366769,0.0413,0.29554,-0.21868,22.5,0,439,321,606,1705,31.63390625,41647,23.633585962001025,1013.1199722716916,0,,,,N/A,False
2024-04-02T10:42:08,1.3166506356499998,-0.08315058534999999,9.6526463684,0.01832595714594046,0.02168571595602955,0.08811731061006371,0.04102,0.29498,-0.21714000000000003,22.5,0,439,321,606,1705,31.63390625,41647,23.633585962001025,1013.1199722716916,0,,,,N/A,False
2024-04-02T10:42:08,1.2675977723499998,-0.08913264185,9.7435736272,0.018173240836390957,0.02107485071783153,0.0867428638241182,0.0413,0.29862,-0.21504,22.5,0,439,321,606,1705,31.9758984375,44173,23.66925771761529,1013.1381168644034,0,,,,N/A,False
2024-04-02T10:42:08,1.2658031554,-0.179461695,9.758528768449999,0.019700403931885997,0.02138028333693054,0.08765916168141522,0.03262,0.29386,-0.21154000000000003,22.5,0,441,323,608,1709,31.9758984375,44173,23.66925771761529,1013.1381168644034,0,,,,N/A,False
2024-04-02T10:42:08,1.31186499045,-0.2177468566,9.8440721764,0.02229658119422756,0.02061670178918302,0.08872817584826173,0.041580000000000006,0.29442,-0.20762000000000003,22.5,0,441,323,608,1709,32.3157421875,48570,23.70487108781974,1013.1306324168701,0,,,,N/A,False
2024-04-02T10:42:08,1.27597265145,-0.17288143285000002,9.84586679335,0.019547687622336492,0.020769418098732523,0.08811731061006371,0.0007000000000000001,0.30814,-0.2233,22.5,0,441,323,608,1709,32.692109375,52465,23.72157753391113,1013.1354798959903,0,,,,N/A,False
2024-04-02T10:42:08,1.232303639,-0.11425727914999999,9.75613594585,0.02168571595602955,0.01710422666954443,0.08628471489546968,0.038220000000000004,0.2891,-0.2058,22.5,0,441,323,608,1709,32.692109375,52465,23.72157753391113,1013.1354798959903,0,,,,N/A,False
2024-04-02T10:42:08,1.3316057768999998,-0.07716852884999999,9.746564655449998,0.017256942979093935,0.020463985479633514,0.08567384965727166,0.034300000000000004,0.28686,-0.21168,22.5,0,441,323,608,1709,33.0551953125,55981,23.726530971695173,1013.1360130144119,0,,,,N/A,False
2024-04-02T10:42:08,1.2963116435499997,-0.15852449724999998,9.834500885999999,0.05635231822376692,-0.08017606251348951,-0.0636827010821431,0.04102,0.3017,-0.2177,22.5,0,441,323,608,1709,33.0551953125,55981,23.726530971695173,1013.1360130144119,0,,,,N/A,False
2024-04-02T10:42:08,1.32981115995,-0.19142580799999998,9.896714273599999,0.04734205596034619,-0.03222314131494531,-0.05299255941367784,0.042980000000000004,0.29694000000000004,-0.22638000000000003,22.5,0,441,323,608,1709,33.37609375,59663,23.701286500289324,1013.1391815219531,0,,,,N/A,False
2024-04-02T10:42:08,1.2873385588,-0.17766707805,9.796813930049998,0.038179077387375956,0.0025961772623415654,-0.04948008429403925,0.040740000000000005,0.29386,-0.21532,22.5,1,441,323,607,1706,33.37609375,59663,23.701286500289324,1013.1391815219531,0,,,,N/A,False
2024-04-02T10:42:09,1.3980066040499999,-0.18245272324999998,9.943374314299998,0.04321871560250959,0.007177666548826681,-0.04963280060358875,0.0413,0.29526,-0.22036,22.5,1,441,323,607,1706,33.37609375,59663,23.701286500289324,1013.1391815219531,0,,,,N/A,False
2024-04-02T10:42:09,1.3824532571500001,-0.2069791549,9.844670382049998,0.038331793696925465,0.004276056667386108,-0.04535674393620265,0.03934,0.29582,-0.22092,22.5,1,441,323,607,1706,33.6587109375,62816,23.678654633246644,1013.1389233499923,0,,,,N/A,False
2024-04-02T10:42:09,1.2915259983499998,-0.15972090854999998,9.687342296099999,0.036804630601430424,0.0036651914291880926,-0.043982297150257116,0.03402,0.28770000000000007,-0.22498,22.5,1,441,323,607,1706,33.6587109375,62816,23.678654633246644,1013.1389233499923,0,,,,N/A,False
2024-04-02T10:42:09,1.2646067441,-0.16809578764999997,9.8273224182,0.03543018381548489,0.002138028333693054,-0.04245513405476207,0.04046,0.29918,-0.21840000000000004,22.5,1,441,323,607,1706,33.9032421875,65754,23.63149225711993,1013.1230689305634,0,,,,N/A,False
2024-04-02T10:42:09,1.30229370005,-0.0789631458,9.846464998999998,0.04046982203061852,0.0038179077387375964,-0.07819075048934597,0.037380000000000004,0.29918,-0.22106000000000003,22.5,1,441,323,607,1706,33.9032421875,65754,23.63149225711993,1013.1230689305634,0,,,,N/A,False
2024-04-02T10:42:09,1.3262219260499999,-0.15852449724999998,9.7818587888,0.041691552507014555,-0.0038179077387375964,-0.0355829001250344,0.03878,0.30058,-0.21882000000000001,22.5,1,441,323,607,1706,33.9032421875,65754,23.63149225711993,1013.1230689305634,0,,,,N/A,False
2024-04-02T10:42:09,1.2693923892999999,-0.14297115034999996,9.735198748099998,0.04046982203061852,-0.006414085001079162,-0.03283400655314333,0.03178,0.29666000000000003,-0.20706000000000002,22.5,1,441,323,607,1706,34.1153515625,68642,23.58192877548232,1013.1226333972137,0,,,,N/A,False
2024-04-02T10:42:09,1.2939188209499997,-0.12562318649999998,9.771091087099999,0.04657847441259867,0.001069014166846527,-0.03604104905368291,0.037380000000000004,0.29386,-0.21070000000000003,22.5,1,441,323,607,1706,34.1153515625,68642,23.58192877548232,1013.1226333972137,0,,,,N/A,False
2024-04-02T10:42:09,1.2873385588,-0.09631110964999999,9.77767134925,0.04077525464971753,-0.0025961772623415654,-0.038789942625573975,0.03458000000000001,0.30226000000000003,-0.21392000000000003,22.5,1,441,323,607,1706,34.301484375,71613,23.51957914087803,1013.1247653909032,0,,,,N/A,False
2024-04-02T10:42:09,1.3956137814499998,-0.15912270289999997,9.94397251995,0.0474947722698957,-0.006108652381980154,-0.04276056667386108,0.042140000000000004,0.30870000000000003,-0.20734000000000002,22.5,1,440,322,605,1701,34.301484375,71613,23.51957914087803,1013.1247653909032,0,,,,N/A,False
2024-04-02T10:42:09,1.3004990831,-0.08015955709999999,9.75493953455,0.04566217655530165,-0.002138028333693054,-0.03924809155422249,0.03682,0.30310000000000004,-0.22554000000000002,22.5,1,440,322,605,1701,34.301484375,71613,23.51957914087803,1013.1247653909032,0,,,,N/A,False
2024-04-02T10:42:09,1.3567304141999996,-0.15613167464999997,9.696315380849999,0.03772092845872745,-0.0044287729769356115,-0.03283400655314333,0.038500000000000006,0.30478000000000005,-0.22134000000000004,22.5,1,440,322,605,1701,34.4630078125,74065,23.47713466419465,1013.1227321002859,0,,,,N/A,False
2024-04-02T10:42:09,1.2939188209499997,-0.11545369045,9.7818587888,0.038942658935123484,0.00045814892864851157,-0.03787364476827696,0.0371,0.29526,-0.2156,22.5,1,440,322,605,1701,34.4630078125,74065,23.47713466419465,1013.1227321002859,0,,,,N/A,False
2024-04-02T10:42:09,1.3555340028999998,-0.12382856954999999,9.853643466800001,0.04535674393620265,-0.0015271630954950385,-0.03802636107782646,0.03682,0.29582,-0.22008000000000003,22.5,1,440,322,605,1701,34.6051953125,75863,23.411539835466478,1013.1233767050113,0,,,,N/A,False
2024-04-02T10:42:10,1.3070793452499998,-0.1483550012,9.762716207999999,0.039553524173321496,-0.0056505034533316425,-0.03772092845872745,0.04354000000000001,0.30926000000000003,-0.21686000000000002,22.5,1,440,322,605,1701,34.6051953125,75863,23.411539835466478,1013.1233767050113,0,,,,N/A,False
2024-04-02T10:42:10,1.2945170265999997,-0.18723836844999997,9.8991070962,0.04428772976935611,-0.00916297857297023,-0.03741549583962844,0.0357,0.3129,-0.21154000000000003,22.5,1,440,322,605,1701,34.7282421875,78474,23.344540871501092,1013.1180228179734,0,,,,N/A,False
2024-04-02T10:42:10,1.3561322085499998,-0.17168502154999998,9.90688376965,0.04245513405476207,-0.0013744467859455349,-0.041386119887915546,0.032900000000000006,0.30366000000000004,-0.21644000000000002,22.5,1,440,322,605,1701,34.7282421875,78474,23.344540871501092,1013.1180228179734,0,,,,N/A,False
2024-04-02T10:42:10,1.32023986955,-0.12981062605,9.7878408453,0.04459316238845512,-0.0012217304763960308,-0.041844268816564056,0.03934,0.30394000000000004,-0.20524,22.5,1,440,322,605,1701,34.833125,80418,23.270789056227255,1013.1263626746784,0,,,,N/A,False
2024-04-02T10:42:10,1.3411770672999999,-0.20877377184999998,9.92004429395,0.04413501345980661,-0.004581489286485115,-0.03924809155422249,0.03878,0.30310000000000004,-0.21140000000000003,23.5,1,439,321,603,1695,34.833125,80418,23.270789056227255,1013.1263626746784,0,,,,N/A,False
2024-04-02T10:42:10,1.3764712006499997,-0.16869399329999998,9.9684989516,0.04642575810304917,-0.0024434609527920616,-0.0357356164345839,0.04662,0.30366000000000004,-0.21924000000000002,22.5,1,439,321,603,1695,34.9239453125,81427,23.20687286283977,1013.1243879239671,0,,,,N/A,False
2024-04-02T10:42:10,1.3902299305999999,-0.20279171534999998,9.959525866849997,0.04657847441259867,-0.007483099167925688,-0.0003054326190990077,0.038220000000000004,0.2933,-0.21448000000000003,22.5,1,439,321,603,1695,34.9239453125,81427,23.20687286283977,1013.1243879239671,0,,,,N/A,False
2024-04-02T10:42:10,1.3561322085499998,-0.13998012209999997,9.943374314299998,0.04703662334124718,0.003207042500539581,-0.04153883619746505,0.038220000000000004,0.29722000000000004,-0.21028000000000002,22.5,1,439,321,603,1695,35.00109375,84274,23.152817392949117,1013.132631788765,0,,,,N/A,False
2024-04-02T10:42:10,1.2915259983499998,-0.15732808594999997,9.76690364755,0.04077525464971753,-0.008399397025222712,-0.039095375244672985,0.04242,0.30198,-0.20776000000000003,22.5,1,439,321,603,1695,35.00109375,84274,23.152817392949117,1013.132631788765,0,,,,N/A,False
2024-04-02T10:42:10,1.3280165429999997,-0.10827522265,9.668199715299998,0.04046982203061852,-0.007788531787024696,-0.037110063220529434,0.03962,0.31122000000000005,-0.20370000000000002,22.5,1,439,321,603,1695,35.06828125,85038,23.087197398282925,1013.1354657901139,0,,,,N/A,False
2024-04-02T10:42:10,1.2658031554,-0.06879364974999999,9.6933243526,0.041080687268816536,-0.004886921905584123,-0.03772092845872745,0.03962,0.29666000000000003,-0.23002,22.5,1,439,321,603,1695,35.06828125,85038,23.087197398282925,1013.1354657901139,0,,,,N/A,False
2024-04-02T10:42:10,1.2580264819499998,-0.08673981925,9.72502925205,0.038484510006474966,-0.005192354524683131,-0.039095375244672985,0.038500000000000006,0.29358000000000006,-0.21672000000000002,22.5,1,439,321,603,1695,35.128828125,87236,23.015689297840506,1013.1401152606752,0,,,,N/A,False
2024-04-02T10:42:11,1.2699905949499997,-0.09332008139999999,9.7639126193,0.039858956792420505,-0.0016798794050445422,-0.040317105721069016,0.038500000000000006,0.29806,-0.20426000000000002,22.5,1,437,321,601,1690,35.128828125,87236,23.015689297840506,1013.1401152606752,0,,,,N/A,False
2024-04-02T10:42:11,1.31545422435,-0.20518453794999997,9.8057870148,0.03787364476827696,-0.00916297857297023,-0.03527746750593539,0.030660000000000003,0.29862,-0.2093,22.5,1,437,321,601,1690,35.128828125,87236,23.015689297840506,1013.1401152606752,0,,,,N/A,False
2024-04-02T10:42:11,1.2741780345,-0.13100703735,9.745368244149999,0.041996985126113565,-0.008704829644321718,-0.03497203488683638,0.03934,0.30226000000000003,-0.21602000000000002,22.5,1,437,321,601,1690,35.1813671875,88891,22.94362214502816,1013.1353182187511,0,,,,N/A,False
2024-04-02T10:42:11,1.3322039825499998,-0.13998012209999997,9.94875816515,0.04489859500755413,-0.007330382858376185,-0.03772092845872745,0.037660000000000006,0.30142,-0.20384000000000002,22.5,1,437,321,601,1690,35.1813671875,88891,22.94362214502816,1013.1353182187511,0,,,,N/A,False
2024-04-02T10:42:11,1.3256237203999999,-0.11784651304999999,9.910473003549999,0.048258353817643214,0.0009162978572970231,-0.03802636107782646,0.042140000000000004,0.30198,-0.20538000000000003,22.5,1,437,321,601,1690,35.228046875,89837,22.876570973678817,1013.1336194328942,0,,,,N/A,False
2024-04-02T10:42:11,1.28554394185,-0.107677017,9.884750160599998,0.04566217655530165,-0.006566801310628666,-0.04245513405476207,0.03262,0.30646,-0.20566000000000004,22.5,1,437,321,601,1690,35.228046875,89837,22.876570973678817,1013.1336194328942,0,,,,N/A,False
2024-04-02T10:42:11,1.30947216785,-0.11904292434999998,9.6622176588,0.039858956792420505,-0.0018325957145940463,-0.036499197982331415,0.027020000000000002,0.30506,-0.20958000000000002,22.5,1,437,321,601,1690,35.228046875,89837,22.876570973678817,1013.1336194328942,0,,,,N/A,False
2024-04-02T10:42:11,1.2819547079499998,-0.10947163395000001,9.728020280299999,0.043982297150257116,-0.0006108652381980154,-0.04046982203061852,0.03178,0.29134000000000004,-0.20692000000000002,22.5,1,437,321,601,1690,35.271015625,91098,22.82010101513079,1013.1330983789563,0,,,,N/A,False
2024-04-02T10:42:11,1.29990087745,-0.13938191645,9.846464998999998,0.0013744467859455349,-0.00595593607243065,-0.03695734691097993,0.03542,0.2933,-0.20678000000000002,22.5,1,437,321,601,1690,35.271015625,91098,22.82010101513079,1013.1330983789563,0,,,,N/A,False
2024-04-02T10:42:11,1.3824532571500001,-0.14237294469999998,9.93799046345,0.04505131131710364,-0.0003054326190990077,-0.040317105721069016,0.04438,0.30142,-0.20398000000000002,22.5,1,437,321,601,1690,35.31125,92294,22.74179998957979,1013.1299230187363,0,,,,N/A,False
2024-04-02T10:42:11,1.2957134379,-0.1292124204,9.7016992317,0.04260785036431157,-0.007941248096574201,-0.03787364476827696,0.03654,0.30058,-0.20888,22.5,1,436,320,599,1684,35.31125,92294,22.74179998957979,1013.1299230187363,0,,,,N/A,False
2024-04-02T10:42:11,1.3082757565499998,-0.17048861024999998,9.958329455549999,0.04627304179349966,-0.005803219762881146,-0.038484510006474966,0.03234,0.30618,-0.20650000000000002,22.5,1,436,320,599,1684,35.31125,92294,22.74179998957979,1013.1299230187363,0,,,,N/A,False
2024-04-02T10:42:11,1.3543375915999998,-0.19202401365,9.98704332675,0.04627304179349966,0.001069014166846527,-0.04245513405476207,0.030380000000000004,0.30926000000000003,-0.20874,22.5,1,436,320,599,1684,35.3466015625,93625,22.66318150870305,1013.1332544872441,0,,,,N/A,False
2024-04-02T10:42:12,1.35134656335,-0.24586252214999998,9.9038927414,0.04276056667386108,-0.012370021073509813,-0.03756821214917795,0.03934,0.29666000000000003,-0.22134000000000004,22.5,1,436,320,599,1684,35.3466015625,93625,22.66318150870305,1013.1332544872441,0,,,,N/A,False
2024-04-02T10:42:12,1.2646067441,-0.1782652837,9.691529735649999,0.04734205596034619,-0.00916297857297023,-0.038789942625573975,0.0371,0.30450000000000005,-0.21378000000000003,22.5,1,436,320,599,1684,35.3466015625,93625,22.66318150870305,1013.1332544872441,0,,,,N/A,False
2024-04-02T10:42:12,1.3028919057,-0.15613167464999997,9.792626490499998,0.040622538340168025,-0.0054977871437821395,-0.036193765363232405,0.03402,0.30282000000000003,-0.1974,22.5,1,436,320,599,1684,35.3762890625,94889,22.605818491437617,1013.1309719752458,0,,,,N/A,False
2024-04-02T10:42:12,1.3698909385,-0.10827522265,9.85304526115,0.04688390703169768,0.00015271630954950385,-0.0435241482216086,0.028700000000000003,0.29862,-0.20356000000000002,22.5,1,436,320,599,1684,35.3762890625,94889,22.605818491437617,1013.1309719752458,0,,,,N/A,False
2024-04-02T10:42:12,1.2801600909999997,-0.08614161359999999,9.7794659662,0.041386119887915546,-0.005039638215133627,-0.03359758810089085,0.0357,0.2891,-0.2177,22.5,1,436,320,599,1684,35.2841015625,91098,22.46416490115292,1013.1634580021507,0,,,,N/A,False
2024-04-02T10:42:12,1.34656091815,-0.1447657673,9.999605645399999,0.04489859500755413,0.0019853120241435504,-0.038942658935123484,0.03262,0.30114,-0.21070000000000003,22.5,0,435,319,598,1678,35.2841015625,91098,22.46416490115292,1013.1634580021507,0,,,,N/A,False
2024-04-02T10:42:12,1.40757789445,-0.15553346899999998,9.88295554365,0.04627304179349966,-0.0007635815477475193,-0.040622538340168025,0.04046,0.29162,-0.20804000000000003,22.5,0,435,319,598,1678,35.201875,93006,22.39895338379095,1013.1560739273652,0,,,,N/A,False
2024-04-02T10:42:12,1.2669995667,-0.12083754129999999,9.789635462249999,0.0435241482216086,-0.0007635815477475193,-0.03665191429188092,0.02842,0.29722000000000004,-0.20524,22.5,0,435,319,598,1678,35.201875,93006,22.39895338379095,1013.1560739273652,0,,,,N/A,False
2024-04-02T10:42:12,1.31186499045,-0.1447657673,9.698708203449998,0.04734205596034619,-0.007483099167925688,-0.039553524173321496,0.03962,0.29890000000000005,-0.20762000000000003,22.5,0,435,319,598,1678,35.1966015625,95317,22.350021825230797,1013.1420578809464,0,,,,N/A,False
2024-04-02T10:42:12,1.33698962775,-0.18005990065000002,9.870991430649998,0.04245513405476207,-0.007483099167925688,-0.03695734691097993,0.03934,0.29638000000000003,-0.21448000000000003,22.5,0,435,319,598,1678,35.1966015625,95317,22.350021825230797,1013.1420578809464,0,,,,N/A,False
2024-04-02T10:42:12,1.3363914221,-0.16271193679999998,10.054042359550001,0.04917465167494024,-0.003054326190990077,-0.038179077387375956,0.0357,0.29918,-0.21000000000000002,22.5,0,435,319,598,1678,35.1966015625,95317,22.350021825230797,1013.1420578809464,0,,,,N/A,False
2024-04-02T10:42:12,1.3280165429999997,-0.2177468566,9.936195846499999,0.04123340357836604,0.0,-0.037110063220529434,0.028700000000000003,0.30506,-0.21252000000000001,22.5,0,435,319,598,1678,35.2274609375,95070,22.28748068111579,1013.1435140082934,0,,,,N/A,False
2024-04-02T10:42:13,1.35373938595,-0.09032905315,9.8859465719,0.050701814770435276,-0.0007635815477475193,-0.03924809155422249,0.030100000000000002,0.29190000000000005,-0.19628000000000004,22.5,0,435,319,598,1678,35.2274609375,95070,22.28748068111579,1013.1435140082934,0,,,,N/A,False
2024-04-02T10:42:13,1.3387842447,-0.10109675484999998,9.73460054245,0.04550946024575215,0.0035124751196385882,-0.038942658935123484,0.027860000000000003,0.29806,-0.21000000000000002,22.5,0,435,319,598,1678,35.270625,96209,22.241997874376718,1013.1324620256345,0,,,,N/A,False
2024-04-02T10:42:13,1.3615160593999998,-0.1519442351,10.004391290600001,0.04612032548395016,-0.0003054326190990077,-0.039553524173321496,0.03934,0.30002000000000006,-0.21042000000000002,23.5,1,435,319,596,1675,35.270625,96209,22.241997874376718,1013.1324620256345,0,,,,N/A,False
2024-04-02T10:42:13,1.3196416639,-0.07477570624999999,9.8560362894,0.04780020488899471,-0.0006108652381980154,-0.04382958084070761,0.035980000000000005,0.29946000000000006,-0.21784000000000003,22.5,1,435,319,596,1675,35.270625,96209,22.241997874376718,1013.1324620256345,0,,,,N/A,False
2024-04-02T10:42:13,1.30229370005,-0.13459627124999998,9.8273224182,0.04520402762665314,-0.0013744467859455349,-0.039706240482871004,0.028140000000000005,0.29498,-0.20496,22.5,1,435,319,596,1675,35.3175,96871,22.18600435512937,1013.1328703625934,0,,,,N/A,False
2024-04-02T10:42:13,1.30468652265,-0.19441683624999997,9.92961558435,0.04001167310197001,-0.0019853120241435504,-0.037110063220529434,0.04046,0.29162,-0.20804000000000003,22.5,1,435,319,596,1675,35.3175,96871,22.18600435512937,1013.1328703625934,0,,,,N/A,False
2024-04-02T10:42:13,1.2592228932499998,-0.08793623055000001,9.79202828485,0.038484510006474966,-0.0044287729769356115,-0.04046982203061852,0.028980000000000002,0.29358000000000006,-0.2156,22.5,1,435,319,596,1675,35.3630078125,97997,22.135314898011377,1013.136467439429,0,,,,N/A,False
2024-04-02T10:42:13,1.3148560187,-0.1806581063,9.889535805799998,0.04382958084070761,-0.0054977871437821395,-0.03436116964863837,0.030380000000000004,0.30310000000000004,-0.20538000000000003,22.5,1,435,319,596,1675,35.3630078125,97997,22.135314898011377,1013.136467439429,0,,,,N/A,False
2024-04-02T10:42:13,1.3896317249499999,-0.13938191645,9.945767136899999,0.0476474885794452,-0.03741549583962844,-0.04260785036431157,0.03458000000000001,0.28994000000000003,-0.20860000000000004,22.5,1,435,319,596,1675,35.3630078125,97997,22.135314898011377,1013.136467439429,0,,,,N/A,False
2024-04-02T10:42:13,1.34656091815,-0.20458633229999998,9.938588669099998,0.048716502746291725,-0.0007635815477475193,-0.04001167310197001,0.030380000000000004,0.29666000000000003,-0.19698000000000002,22.5,1,435,319,596,1675,35.4051953125,99734,22.08440244932572,1013.1328387892355,0,,,,N/A,False
2024-04-02T10:42:14,1.3190434582499997,-0.1004985492,9.84227755945,0.04321871560250959,0.0012217304763960308,-0.03665191429188092,0.041580000000000006,0.29722000000000004,-0.21588000000000002,22.5,1,434,318,594,1669,35.2891796875,95772,21.93636251098275,1013.1663056113312,0,,,,N/A,False
2024-04-02T10:42:14,1.32143628085,-0.20159530404999998,9.92482993915,0.04321871560250959,-0.006414085001079162,-0.03497203488683638,0.0371,0.29778000000000004,-0.21196,22.5,1,434,318,594,1669,35.2891796875,95772,21.93636251098275,1013.1663056113312,0,,,,N/A,False
2024-04-02T10:42:14,1.3591232368,-0.16211373114999997,9.934401229549998,0.04780020488899471,-0.0038179077387375964,-0.041080687268816536,0.02758,0.2863,-0.20370000000000002,23.5,1,434,318,594,1669,35.1940625,95718,21.892113007581653,1013.165042688121,0,,,,N/A,False
2024-04-02T10:42:14,1.3716855554499998,-0.17706887240000002,9.834500885999999,0.0433714319120591,-0.003054326190990077,-0.036193765363232405,0.033460000000000004,0.29078000000000004,-0.21574000000000002,22.5,1,434,318,594,1669,35.1940625,95718,21.892113007581653,1013.165042688121,0,,,,N/A,False
2024-04-02T10:42:14,1.30588293395,-0.10588240005,9.8727860476,0.041691552507014555,-0.005803219762881146,-0.038942658935123484,0.03934,0.30590000000000006,-0.21252000000000001,22.5,1,434,318,594,1669,35.162421875,97374,21.841548632379677,1013.147843869966,0,,,,N/A,False
2024-04-02T10:42:14,1.3435698898999997,-0.18185451760000002,10.024730282699998,0.04703662334124718,-0.0006108652381980154,-0.038179077387375956,0.03262,0.29694000000000004,-0.20174,22.5,1,434,318,594,1669,35.162421875,97374,21.841548632379677,1013.147843869966,0,,,,N/A,False
2024-04-02T10:42:14,1.2909277927,-0.14237294469999998,9.7938229018,0.039706240482871004,-0.003970624048287101,-0.036499197982331415,0.03122,0.29526,-0.20958000000000002,22.5,1,434,318,594,1669,35.1868359375,99265,21.805628845659157,1013.1460363035194,0,,,,N/A,False
2024-04-02T10:42:14,1.32741833735,-0.06999006104999998,9.793224696149998,0.04260785036431157,-0.001069014166846527,-0.04123340357836604,0.03178,0.29498,-0.20776000000000003,22.5,0,432,317,592,1660,35.1868359375,99265,21.805628845659157,1013.1460363035194,0,,,,N/A,False
2024-04-02T10:42:14,1.32023986955,-0.11006983959999998,9.826724212550001,0.048411070127192715,-0.0006108652381980154,-0.03527746750593539,0.032900000000000006,0.29778000000000004,-0.21112000000000003,22.5,0,432,317,592,1660,35.1868359375,99265,21.805628845659157,1013.1460363035194,0,,,,N/A,False
2024-04-02T10:42:14,1.2801600909999997,-0.1004985492,9.785448022699999,0.047952921198544204,-0.0035124751196385882,-0.038637226316024474,0.032060000000000005,0.30422000000000005,-0.20566000000000004,22.5,0,432,317,592,1660,35.2352734375,100089,21.766003142497816,1013.1472008549582,0,,,,N/A,False
2024-04-02T10:42:14,1.2346964615999998,-0.17407784415000002,9.830911652099998,0.04046982203061852,-0.007177666548826681,-0.04046982203061852,0.04326000000000001,0.29694000000000004,-0.20860000000000004,23.5,0,432,317,592,1660,35.2352734375,100089,21.766003142497816,1013.1472008549582,0,,,,N/A,False
2024-04-02T10:42:14,1.32382910345,-0.13160524299999998,10.07318494035,0.04627304179349966,-0.005192354524683131,-0.0003054326190990077,0.046060000000000004,0.29246000000000005,-0.21154000000000003,22.5,0,432,317,592,1660,35.291328125,101657,21.72153654313561,1013.1444884168849,0,,,,N/A,False
2024-04-02T10:42:14,1.3070793452499998,-0.19082760235,9.954740221649999,0.04581489286485116,-0.004581489286485115,-0.0355829001250344,0.03542,0.28546000000000005,-0.2093,22.5,0,432,317,592,1660,35.291328125,101657,21.72153654313561,1013.1444884168849,0,,,,N/A,False
2024-04-02T10:42:15,1.3674981158999997,-0.1950150419,9.979266653299998,0.0474947722698957,-0.001069014166846527,-0.04123340357836604,0.03934,0.29834000000000005,-0.21322000000000002,22.5,0,432,317,592,1660,35.345625,102149,21.682322366884463,1013.1425148602067,0,,,,N/A,False
2024-04-02T10:42:15,1.2885349701,-0.1052841944,9.784849817049999,0.04459316238845512,-0.005039638215133627,-0.04077525464971753,0.039060000000000004,0.29638000000000003,-0.21714000000000003,22.5,0,432,317,592,1660,35.345625,102149,21.682322366884463,1013.1425148602067,0,,,,N/A,False
2024-04-02T10:42:15,1.3304093655999998,-0.11724830739999999,9.68076203395,0.043676864531158106,-0.0033597588100890844,-0.039858956792420505,0.0441,0.29554,-0.20678000000000002,22.5,0,432,317,592,1660,35.3954296875,103591,21.642801927400523,1013.1476798376418,0,,,,N/A,False
2024-04-02T10:42:15,1.27118700625,-0.1112662509,9.674181771799999,0.041691552507014555,-0.011301006906663285,-0.036499197982331415,0.038220000000000004,0.29806,-0.20412000000000002,23.5,1,431,316,590,1654,35.3954296875,103591,21.642801927400523,1013.1476798376418,0,,,,N/A,False
2024-04-02T10:42:15,1.28793676445,-0.1890329854,9.873384253249998,0.039858956792420505,-0.013133602621257331,-0.03802636107782646,0.028700000000000003,0.28966000000000003,-0.21126000000000003,22.5,1,431,316,590,1654,35.3954296875,103591,21.642801927400523,1013.1476798376418,0,,,,N/A,False
2024-04-02T10:42:15,1.26400853845,-0.1579262916,9.84706320465,0.04230241774521256,-0.006566801310628666,-0.038789942625573975,0.027020000000000002,0.29302000000000006,-0.21420000000000003,22.5,1,431,316,590,1654,35.4423046875,104038,21.603083761893362,1013.1480625909866,0,,,,N/A,False
2024-04-02T10:42:15,1.37288196675,-0.16510475939999997,9.972686391149999,0.04581489286485116,-0.0035124751196385882,-0.038179077387375956,0.038500000000000006,0.29218,-0.21224,22.5,1,431,316,590,1654,35.4423046875,104038,21.603083761893362,1013.1480625909866,0,,,,N/A,False
2024-04-02T10:42:15,1.34536450685,-0.1387837108,9.844670382049998,0.04382958084070761,0.0054977871437821395,-0.03741549583962844,0.040740000000000005,0.29106,-0.21868,22.5,1,431,316,590,1654,35.482734375,104167,21.55756169797371,1013.1469827993037,0,,,,N/A,False
2024-04-02T10:42:15,1.29750805485,-0.15433705769999997,9.772287498399999,0.038942658935123484,-0.007635815477475193,-0.03543018381548489,0.04186000000000001,0.30254000000000003,-0.2044,22.5,1,431,316,590,1654,35.482734375,104167,21.55756169797371,1013.1469827993037,0,,,,N/A,False
2024-04-02T10:42:15,1.3082757565499998,-0.20279171534999998,9.927820967399999,0.04566217655530165,-0.0035124751196385882,-0.03375030441044035,0.026740000000000003,0.2975,-0.20678000000000002,22.5,1,431,316,590,1654,35.5196484375,104295,21.522535632236906,1013.1510239843607,0,,,,N/A,False
2024-04-02T10:42:16,1.3208380751999997,-0.10289137179999999,9.7962157244,0.04642575810304917,0.0015271630954950385,-0.04230241774521256,0.03234,0.28994000000000003,-0.20720000000000002,22.5,0,430,315,588,1649,35.5505078125,105403,21.492462824216553,1013.1614810642205,0,,,,N/A,False
2024-04-02T10:42:16,1.3328021881999996,-0.2105683888,9.8811609267,0.041080687268816536,-0.0056505034533316425,-0.03543018381548489,0.028700000000000003,0.28798,-0.2009,22.5,0,430,315,588,1649,35.5505078125,105403,21.492462824216553,1013.1614810642205,0,,,,N/A,False
2024-04-02T10:42:16,1.3806586402,-0.16749758199999998,9.961320483799998,0.04306599929296009,-0.007330382858376185,-0.04046982203061852,0.03234,0.2888200000000001,-0.20678000000000002,22.5,0,430,315,588,1649,35.5704296875,105403,21.434833731027684,1013.1758329922087,0,,,,N/A,False
2024-04-02T10:42:16,1.2227323486,-0.1579262916,9.708877699499999,0.041844268816564056,-0.00916297857297023,-0.037110063220529434,0.042140000000000004,0.2933,-0.20426000000000002,22.5,0,430,315,588,1649,35.5704296875,105403,21.434833731027684,1013.1758329922087,0,,,,N/A,False
2024-04-02T10:42:16,1.3621142650499998,-0.18723836844999997,9.927222761749999,0.04245513405476207,-0.004886921905584123,-0.03390302071998985,0.046060000000000004,0.29918,-0.20398000000000002,22.5,0,430,315,588,1649,35.5704296875,105403,21.434833731027684,1013.1758329922087,0,,,,N/A,False
2024-04-02T10:42:16,1.3208380751999997,-0.20757736054999998,9.835697297299998,0.04428772976935611,-0.007483099167925688,-0.03695734691097993,0.039060000000000004,0.29974,-0.21056000000000002,22.5,0,430,315,588,1649,35.5700390625,105535,21.402640495355264,1013.1751968587591,0,,,,N/A,False
2024-04-02T10:42:16,1.36331067635,-0.13579268255,9.906285564,0.0433714319120591,-0.0012217304763960308,-0.039095375244672985,0.028980000000000002,0.29218,-0.19754000000000002,22.5,0,430,315,588,1649,35.5700390625,105535,21.402640495355264,1013.1751968587591,0,,,,N/A,False
2024-04-02T10:42:16,1.3399806559999998,-0.10289137179999999,9.898508890549998,0.04520402762665314,0.0013744467859455349,-0.039858956792420505,0.039900000000000005,0.29694000000000004,-0.21686000000000002,22.5,0,430,315,588,1649,35.5778515625,106601,21.376373184623073,1013.1734462951558,0,,,,N/A,False
2024-04-02T10:42:16,1.2693923892999999,-0.08913264185,9.753144917599998,0.04688390703169768,-0.006261368691529657,-0.040622538340168025,0.04018000000000001,0.2905,-0.21126000000000003,22.5,0,430,315,588,1649,35.5778515625,106601,21.376373184623073,1013.1734462951558,0,,,,N/A,False
2024-04-02T10:42:16,1.2843475305499996,-0.12861421474999998,9.780064171849999,0.041080687268816536,-0.009010262263420728,-0.03772092845872745,0.039900000000000005,0.29218,-0.20916,22.5,0,430,316,587,1648,35.5778515625,106601,21.376373184623073,1013.1734462951558,0,,,,N/A,False
2024-04-02T10:42:16,1.3764712006499997,-0.11186445655,9.92363352785,0.04566217655530165,0.0013744467859455349,-0.03726277953007894,0.03934,0.30282000000000003,-0.21406000000000003,22.5,0,430,316,587,1648,35.5911328125,107484,21.345123877548886,1013.1697459250875,0,,,,N/A,False
2024-04-02T10:42:16,1.3232308977999998,-0.12562318649999998,9.68076203395,0.041691552507014555,-0.010995574287564279,-0.03634648167278191,0.032060000000000005,0.28938,-0.19124000000000002,22.5,0,430,316,587,1648,35.5911328125,107484,21.345123877548886,1013.1697459250875,0,,,,N/A,False
2024-04-02T10:42:16,1.34536450685,-0.11246266220000001,9.913464031799998,0.04550946024575215,-0.0003054326190990077,-0.038331793696925465,0.037380000000000004,0.29666000000000003,-0.20888,22.5,0,430,316,587,1648,35.6065625,107965,21.281886406107894,1013.1713523823666,0,,,,N/A,False
2024-04-02T10:42:16,1.3788640232499998,-0.22731814699999997,9.921240705249998,0.04642575810304917,-0.001069014166846527,-0.03665191429188092,0.038500000000000006,0.29218,-0.20762000000000003,22.5,0,430,316,587,1648,35.6065625,107965,21.281886406107894,1013.1713523823666,0,,,,N/A,False
2024-04-02T10:42:17,1.3112667848,-0.18963119104999998,9.895517862299998,0.043676864531158106,-0.01114829059711378,-0.03436116964863837,0.035980000000000005,0.30366000000000004,-0.20300000000000004,22.5,0,430,316,587,1648,35.6065625,107965,21.281886406107894,1013.1713523823666,0,,,,N/A,False
2024-04-02T10:42:17,1.33579321645,-0.2069791549,9.948159959499998,0.043982297150257116,-0.007330382858376185,-0.03634648167278191,0.04354000000000001,0.29246000000000005,-0.2079,22.5,0,430,316,587,1648,35.6219921875,108035,21.25080035345731,1013.1621021706787,0,,,,N/A,False
2024-04-02T10:42:17,1.35134656335,-0.12622139215,9.838688325549999,0.04703662334124718,-0.003207042500539581,-0.040317105721069016,0.032900000000000006,0.28126000000000007,-0.21350000000000002,22.5,0,430,316,587,1648,35.6219921875,108035,21.25080035345731,1013.1621021706787,0,,,,N/A,False
2024-04-02T10:42:17,1.26400853845,-0.0945164927,9.669396126599999,0.04230241774521256,-0.010079276430267254,-0.03543018381548489,0.035980000000000005,0.30198,-0.21784000000000003,22.5,0,430,316,587,1648,35.6372265625,108801,21.21435259629102,1013.1561510423169,0,,,,N/A,False
2024-04-02T10:42:17,1.3178470469499999,-0.10827522265,9.696315380849999,0.04535674393620265,-0.004123340357836604,-0.03634648167278191,0.03794,0.2975,-0.20356000000000002,22.5,1,429,314,585,1642,35.6372265625,108801,21.21435259629102,1013.1561510423169,0,,,,N/A,False
2024-04-02T10:42:17,1.3698909385,-0.18723836844999997,9.936195846499999,0.041996985126113565,-0.004581489286485115,-0.039706240482871004,0.03542,0.29834000000000005,-0.21154000000000003,22.5,1,429,314,585,1642,35.6516796875,109578,21.17250749104354,1013.1543545478069,0,,,,N/A,False
2024-04-02T10:42:17,1.29750805485,-0.10827522265,9.699904614749999,0.038331793696925465,-0.012064588454410803,-0.038637226316024474,0.037380000000000004,0.29526,-0.20888,22.5,1,429,314,585,1642,35.6516796875,109578,21.17250749104354,1013.1543545478069,0,,,,N/A,False
2024-04-02T10:42:17,1.2311072276999997,-0.1806581063,9.7938229018,0.041386119887915546,-0.012522737383059314,-0.03405573702953936,0.0315,0.30282000000000003,-0.20804000000000003,22.5,1,429,314,585,1642,35.608515625,105667,21.100041231571247,1013.1709144097964,0,,,,N/A,False
2024-04-02T10:42:17,1.3178470469499999,-0.08554340794999998,9.71545796165,0.040317105721069016,-0.002138028333693054,-0.041386119887915546,0.038220000000000004,0.29218,-0.19166000000000002,22.5,1,429,314,585,1642,35.608515625,105667,21.100041231571247,1013.1709144097964,0,,,,N/A,False
2024-04-02T10:42:17,1.2909277927,-0.13579268255,9.757930562799999,0.041080687268816536,-0.012522737383059314,-0.036804630601430424,0.041580000000000006,0.29246000000000005,-0.21994000000000002,22.5,1,429,314,585,1642,35.608515625,105667,21.100041231571247,1013.1709144097964,0,,,,N/A,False
2024-04-02T10:42:17,1.23768748985,-0.11306086784999998,9.6598248362,0.041996985126113565,-0.008093964406123704,-0.036193765363232405,0.03542,0.30114,-0.21700000000000003,22.5,1,429,314,585,1642,35.5473828125,107553,21.063842654067514,1013.1563919376217,0,,,,N/A,False
2024-04-02T10:42:17,1.3884353136499998,-0.2500499617,9.97866844765,0.04612032548395016,-0.0016798794050445422,-0.036499197982331415,0.03318,0.29890000000000005,-0.21126000000000003,22.5,1,429,314,585,1642,35.5473828125,107553,21.063842654067514,1013.1563919376217,0,,,,N/A,False
2024-04-02T10:42:18,1.3561322085499998,-0.17766707805,9.942177903,0.04321871560250959,-0.004886921905584123,-0.039553524173321496,0.03934,0.29246000000000005,-0.20944000000000002,22.5,1,429,314,585,1642,35.5376171875,108242,21.02576807815915,1013.1603879261213,0,,,,N/A,False
2024-04-02T10:42:18,1.3938191645,-0.14297115034999996,9.977472036350001,0.04428772976935611,-0.00473420559603462,-0.039858956792420505,0.03234,0.29806,-0.20398000000000002,22.5,1,428,314,584,1639,35.5376171875,108242,21.02576807815915,1013.1603879261213,0,,,,N/A,False
2024-04-02T10:42:18,1.3070793452499998,-0.08793623055000001,9.869795019349999,0.048258353817643214,-0.003054326190990077,-0.041386119887915546,0.03178,0.29834000000000005,-0.20216000000000003,22.5,1,428,314,584,1639,35.5376171875,108242,21.02576807815915,1013.1603879261213,0,,,,N/A,False
2024-04-02T10:42:18,1.3471591237999998,-0.16091731985,9.9744810081,0.041996985126113565,0.0019853120241435504,-0.03726277953007894,0.03234,0.28406,-0.20832000000000003,22.5,1,428,314,584,1639,35.5536328125,108521,20.99477755341584,1013.1520974900978,0,,,,N/A,False
2024-04-02T10:42:18,1.27357982885,-0.14356935599999998,9.80399239785,0.04016438941151951,-0.008552113334772215,-0.03420845333908886,0.03262,0.2905,-0.21084000000000003,22.5,1,428,314,584,1639,35.5536328125,108521,20.99477755341584,1013.1520974900978,0,,,,N/A,False
2024-04-02T10:42:18,1.2933206152999999,-0.11964112999999998,9.7423772159,0.04276056667386108,-0.004886921905584123,-0.03741549583962844,0.03234,0.29106,-0.21630000000000002,22.5,1,428,314,584,1639,35.4610546875,103782,20.924482920502395,1013.1749836464168,0,,,,N/A,False
2024-04-02T10:42:18,1.3268201317,-0.0729810893,9.8333044747,0.041844268816564056,-0.003054326190990077,-0.04245513405476207,0.029540000000000004,0.2863,-0.21000000000000002,22.5,1,428,314,584,1639,35.4610546875,103782,20.924482920502395,1013.1749836464168,0,,,,N/A,False
2024-04-02T10:42:18,1.2915259983499998,-0.11665010174999998,9.742975421549998,0.03695734691097993,-0.006108652381980154,-0.0355829001250344,0.03934,0.28826000000000007,-0.21336000000000002,22.5,1,428,314,584,1639,35.4610546875,103782,20.924482920502395,1013.1749836464168,0,,,,N/A,False
2024-04-02T10:42:18,1.2729816231999997,-0.09391828705,9.726823868999999,0.04001167310197001,-0.0015271630954950385,-0.03588833274413341,0.0427,0.29358000000000006,-0.20454000000000003,23.5,1,428,314,584,1639,35.3786328125,106804,20.892289731775904,1013.1564928637655,0,,,,N/A,False
2024-04-02T10:42:18,1.3345968051500001,-0.16331014244999997,9.9206424996,0.04413501345980661,-0.003054326190990077,-0.039095375244672985,0.03234,0.29582,-0.21364000000000002,22.5,1,428,313,583,1636,35.374921875,107759,20.892042287448845,1013.1432138227663,0,,,,N/A,False
2024-04-02T10:42:18,1.30229370005,-0.15493526335,9.77408211535,0.04230241774521256,-0.007177666548826681,-0.03344487179134134,0.037660000000000006,0.29134000000000004,-0.21686000000000002,22.5,1,428,313,583,1636,35.374921875,107759,20.892042287448845,1013.1432138227663,0,,,,N/A,False
2024-04-02T10:42:19,1.34416809555,-0.20757736054999998,9.8153583052,0.04046982203061852,-0.007483099167925688,-0.07788531787024697,0.03626000000000001,0.30086,-0.19306000000000004,23.5,1,428,313,583,1636,35.407734375,108382,20.846200008478487,1013.1424004319477,0,,,,N/A,False
2024-04-02T10:42:19,1.2825529135999998,-0.107677017,9.702297437349998,0.041996985126113565,-0.010995574287564279,-0.038789942625573975,0.032900000000000006,0.30114,-0.20720000000000002,23.5,1,428,313,583,1636,35.407734375,108382,20.846200008478487,1013.1424004319477,0,,,,N/A,False
2024-04-02T10:42:19,1.3411770672999999,-0.10707881135,9.892526834049999,0.04123340357836604,0.0,-0.03665191429188092,0.03514,0.29554,-0.21700000000000003,22.5,1,428,313,583,1636,35.44484375,108661,20.82732707839656,1013.1395365095528,0,,,,N/A,False
2024-04-02T10:42:19,1.2987044661499998,-0.19262221929999998,9.789037256599999,0.0433714319120591,-0.008857545953871223,-0.03665191429188092,0.037660000000000006,0.29162,-0.21588000000000002,22.5,1,428,313,583,1636,35.44484375,108661,20.82732707839656,1013.1395365095528,0,,,,N/A,False
2024-04-02T10:42:19,1.22811619945,-0.10109675484999998,9.722038223799998,0.0435241482216086,0.0003054326190990077,-0.040622538340168025,0.039900000000000005,0.29610000000000003,-0.21168,22.5,1,428,313,583,1636,35.4887890625,109294,20.814243812071684,1013.1459902607127,0,,,,N/A,False
2024-04-02T10:42:19,1.3495519463999999,-0.16331014244999997,10.019944637499998,0.04673119072214818,-0.00045814892864851157,-0.0355829001250344,0.03542,0.2905,-0.21238,23.5,0,427,313,582,1634,35.4887890625,109294,20.814243812071684,1013.1459902607127,0,,,,N/A,False
2024-04-02T10:42:19,1.3585250311500001,-0.18843477974999998,10.006185907549998,0.04382958084070761,-0.0013744467859455349,-0.038942658935123484,0.030100000000000002,0.2933,-0.20874,22.5,0,427,313,582,1634,35.4887890625,109294,20.814243812071684,1013.1459902607127,0,,,,N/A,False
2024-04-02T10:42:19,1.3244273091,-0.1351944769,10.085747258999998,0.04566217655530165,-0.0012217304763960308,-0.0003054326190990077,0.032900000000000006,0.29554,-0.20118,22.5,0,427,313,582,1634,35.5305859375,111460,20.801016836338935,1013.1453191700066,0,,,,N/A,False
2024-04-02T10:42:19,1.2831511192499998,-0.1746760498,9.8632147572,0.04153883619746505,-0.0022907446432425577,-0.03481931857728687,0.03542,0.29414000000000007,-0.21574000000000002,22.5,0,427,313,582,1634,35.5305859375,111460,20.801016836338935,1013.1453191700066,0,,,,N/A,False
2024-04-02T10:42:19,1.3788640232499998,-0.15074782379999999,9.976873830699999,0.04673119072214818,0.0012217304763960308,-0.037110063220529434,0.029820000000000003,0.29414000000000007,-0.20874,22.5,0,427,313,582,1634,35.5688671875,110947,20.771550437615115,1013.1515788981991,0,,,,N/A,False
2024-04-02T10:42:19,1.27597265145,-0.12562318649999998,9.700502820399999,0.04016438941151951,-0.007635815477475193,-0.0012217304763960308,0.028980000000000002,0.29302000000000006,-0.21322000000000002,23.5,0,427,313,582,1634,35.6024609375,112052,20.747108812225953,1013.1520087720472,0,,,,N/A,False
2024-04-02T10:42:20,1.3483555351,-0.1698904046,9.940981491699999,0.04428772976935611,-0.006108652381980154,-0.0357356164345839,0.03178,0.29134000000000004,-0.21434000000000003,22.5,0,427,313,582,1634,35.6024609375,112052,20.747108812225953,1013.1520087720472,0,,,,N/A,False
2024-04-02T10:42:20,1.35134656335,-0.16331014244999997,9.9756774194,0.04321871560250959,-0.006414085001079162,-0.03924809155422249,0.033460000000000004,0.28742,-0.21042000000000002,22.5,0,427,313,582,1634,35.6286328125,111166,20.70084437609612,1013.1548226468111,0,,,,N/A,False
2024-04-02T10:42:20,1.3088739621999996,-0.12143574694999999,9.9170532657,0.038331793696925465,-0.004276056667386108,-0.0355829001250344,0.03486000000000001,0.28490000000000004,-0.21602000000000002,23.5,1,427,313,582,1634,35.6286328125,111166,20.70084437609612,1013.1548226468111,0,,,,N/A,False
2024-04-02T10:42:20,1.30468652265,-0.18723836844999997,9.9625168951,0.043982297150257116,-0.006719517620178169,-0.041691552507014555,0.037660000000000006,0.29106,-0.21070000000000003,22.5,1,427,313,582,1634,35.645625,111903,20.675308936870575,1013.1589704448144,0,,,,N/A,False
2024-04-02T10:42:20,1.2693923892999999,-0.10348957745,9.766305441899998,0.039095375244672985,-0.0033597588100890844,-0.038331793696925465,0.03234,0.29890000000000005,-0.20636000000000002,22.5,1,427,313,582,1634,35.645625,111903,20.675308936870575,1013.1589704448144,0,,,,N/A,False
2024-04-02T10:42:20,1.2634103328,-0.10648060570000001,9.789635462249999,0.0435241482216086,-0.002901609881440573,-0.03756821214917795,0.025900000000000003,0.28826000000000007,-0.20020000000000002,22.5,1,427,313,582,1634,35.6645703125,112801,20.6392443890982,1013.1554410333173,0,,,,N/A,False
2024-04-02T10:42:20,1.25683007065,-0.13758729949999998,9.81356368825,0.04153883619746505,-0.0068722339297276735,-0.039095375244672985,0.0371,0.29274,-0.22218000000000004,23.5,1,427,313,582,1634,35.6645703125,112801,20.6392443890982,1013.1554410333173,0,,,,N/A,False
2024-04-02T10:42:20,1.2675977723499998,-0.09332008139999999,9.846464998999998,0.04230241774521256,-0.006719517620178169,-0.04260785036431157,0.030100000000000002,0.2888200000000001,-0.20650000000000002,22.5,1,427,313,582,1634,35.6809765625,113027,20.60834846845538,1013.1513944849878,0,,,,N/A,False
2024-04-02T10:42:20,1.3519447689999997,-0.13818550515,9.9469635482,0.048258353817643214,-0.004276056667386108,-0.04092797095926703,0.032900000000000006,0.29582,-0.21168,22.5,1,427,313,582,1634,35.6809765625,113027,20.60834846845538,1013.1513944849878,0,,,,N/A,False
2024-04-02T10:42:20,1.30588293395,-0.1351944769,9.7950193131,0.040622538340168025,0.0035124751196385882,-0.03924809155422249,0.028700000000000003,0.29414000000000007,-0.22092,22.5,1,427,313,582,1634,35.6809765625,113027,20.60834846845538,1013.1513944849878,0,,,,N/A,False
2024-04-02T10:42:20,1.29032958705,-0.06400800455,9.79561751875,0.04657847441259867,-0.003054326190990077,-0.04016438941151951,0.03318,0.29162,-0.21742,22.5,1,428,312,582,1634,35.6969921875,113713,20.582760255239762,1013.1557578964319,0,,,,N/A,False
2024-04-02T10:42:20,1.32741833735,-0.1328016543,9.963713306399999,0.04260785036431157,0.0009162978572970231,-0.041386119887915546,0.04438,0.29358000000000006,-0.21868,22.5,1,428,312,582,1634,35.6969921875,113713,20.582760255239762,1013.1557578964319,0,,,,N/A,False
2024-04-02T10:42:21,1.3070793452499998,-0.12203395259999998,10.052247742599999,0.04886921905584123,-0.0033597588100890844,-0.039858956792420505,0.03626000000000001,0.28602000000000005,-0.22176,22.5,1,428,312,582,1634,35.7096875,113560,20.540974665787385,1013.1547142936469,0,,,,N/A,False
2024-04-02T10:42:21,1.36331067635,-0.1878365741,9.877571692799998,0.04306599929296009,-0.0119118721448613,-0.03802636107782646,0.04018000000000001,0.2863,-0.21434000000000003,22.5,1,428,312,582,1634,35.7096875,113560,20.540974665787385,1013.1547142936469,0,,,,N/A,False
2024-04-02T10:42:21,1.3262219260499999,-0.15553346899999998,9.8739824589,0.04612032548395016,-0.006108652381980154,-0.039706240482871004,0.0427,0.29022000000000003,-0.22316000000000003,23.5,1,428,312,582,1634,35.7096875,113560,20.540974665787385,1013.1547142936469,0,,,,N/A,False
2024-04-02T10:42:21,1.3668999102499997,-0.19142580799999998,9.99661461715,0.043982297150257116,-0.0013744467859455349,-0.03665191429188092,0.037380000000000004,0.2891,-0.22232000000000002,22.5,1,428,312,582,1634,35.72140625,114020,20.515113072381244,1013.1520799266099,0,,,,N/A,False
2024-04-02T10:42:21,1.3657034989499999,-0.11784651304999999,9.775278526649998,0.04535674393620265,0.0038179077387375964,-0.040622538340168025,0.03178,0.2863,-0.21434000000000003,22.5,1,428,312,582,1634,35.7329296875,114407,20.48391739840217,1013.1545555837924,0,,,,N/A,False
2024-04-02T10:42:21,1.3004990831,-0.12741780345,9.814760099549998,0.04489859500755413,-0.008857545953871223,-0.03772092845872745,0.024500000000000004,0.2888200000000001,-0.19978000000000004,22.5,1,428,312,582,1634,35.7329296875,114407,20.48391739840217,1013.1545555837924,0,,,,N/A,False
2024-04-02T10:42:21,1.3316057768999998,-0.1734796385,9.846464998999998,0.048258353817643214,-0.005192354524683131,-0.038179077387375956,0.0315,0.28994000000000003,-0.20300000000000004,22.5,1,427,312,581,1631,35.7399609375,112801,20.441785980284063,1013.162384158629,0,,,,N/A,False
2024-04-02T10:42:21,1.3064811395999998,-0.14297115034999996,9.820742156049999,0.04459316238845512,-0.004123340357836604,-0.036499197982331415,0.038500000000000006,0.29554,-0.21280000000000002,22.5,1,427,312,581,1631,35.7399609375,112801,20.441785980284063,1013.162384158629,0,,,,N/A,False
2024-04-02T10:42:21,1.3423734785999997,-0.16031911419999997,9.94157969735,0.04627304179349966,0.0006108652381980154,-0.038484510006474966,0.030660000000000003,0.30142,-0.20244000000000004,22.5,1,427,312,581,1631,35.732734375,114020,20.42002137275357,1013.1650950643707,0,,,,N/A,False
2024-04-02T10:42:21,1.3196416639,-0.11964112999999998,9.8380901199,0.04596760917440065,-0.00015271630954950385,-0.03695734691097993,0.029820000000000003,0.30394000000000004,-0.20678000000000002,22.5,1,427,312,581,1631,35.732734375,114020,20.42002137275357,1013.1650950643707,0,,,,N/A,False
2024-04-02T10:42:22,1.4021940436,-0.16689937635,9.955338427300001,0.04948008429403925,-0.0044287729769356115,-0.039706240482871004,0.03626000000000001,0.29190000000000005,-0.21224,22.5,1,427,312,581,1631,35.6815625,110007,20.368786169819735,1013.1849184328529,0,,,,N/A,False
2024-04-02T10:42:22,1.3052847283,-0.0029910282499999996,9.6957171752,0.04001167310197001,-0.0036651914291880926,-0.03512475119638588,0.04046,0.30142,-0.20608,22.5,1,427,312,581,1631,35.6815625,110007,20.368786169819735,1013.1849184328529,0,,,,N/A,False
2024-04-02T10:42:22,1.27118700625,-0.11964112999999998,9.7196454012,0.04413501345980661,-0.007788531787024696,-0.036804630601430424,0.030100000000000002,0.28966000000000003,-0.20818,22.5,1,427,312,581,1631,35.6815625,110007,20.368786169819735,1013.1849184328529,0,,,,N/A,False
2024-04-02T10:42:22,1.32263269215,-0.1639083481,9.80518880915,0.03588833274413341,-0.010079276430267254,-0.03726277953007894,0.03178,0.29218,-0.20664000000000002,22.5,1,427,312,581,1631,35.6153515625,111166,20.359143903783814,1013.1567165457316,0,,,,N/A,False
2024-04-02T10:42:22,1.3429716842499997,-0.1734796385,9.94636534255,0.04276056667386108,-0.0015271630954950385,-0.040317105721069016,0.027020000000000002,0.29582,-0.21462000000000003,22.5,1,426,311,580,1629,35.6153515625,111166,20.359143903783814,1013.1567165457316,0,,,,N/A,False
2024-04-02T10:42:22,1.3292129543,-0.08793623055000001,9.8249295956,0.04413501345980661,-0.007483099167925688,-0.03802636107782646,0.02254,0.29386,-0.20342000000000002,22.5,1,426,311,580,1629,35.5993359375,112201,20.34214532694686,1013.14692003355,0,,,,N/A,False
2024-04-02T10:42:22,1.3890335192999999,-0.1004985492,9.84706320465,0.04627304179349966,-0.0007635815477475193,-0.04123340357836604,0.024500000000000004,0.30702,-0.21000000000000002,22.5,1,426,311,580,1629,35.5993359375,112201,20.34214532694686,1013.14692003355,0,,,,N/A,False
2024-04-02T10:42:22,1.3549357972499998,-0.1890329854,9.972088185499999,0.04688390703169768,-0.003054326190990077,-0.041080687268816536,0.024220000000000002,0.29246000000000005,-0.20734000000000002,22.5,1,426,311,580,1629,35.6122265625,113103,20.327034108607005,1013.1480093726724,0,,,,N/A,False
2024-04-02T10:42:22,1.2717852119,-0.1268195978,9.7830552001,0.04230241774521256,-0.01114829059711378,-0.03772092845872745,0.028980000000000002,0.29694000000000004,-0.20412000000000002,22.5,1,426,311,580,1629,35.6122265625,113103,20.327034108607005,1013.1480093726724,0,,,,N/A,False
2024-04-02T10:42:22,1.3178470469499999,-0.16809578764999997,9.80518880915,0.039553524173321496,-0.008857545953871223,-0.038942658935123484,0.030100000000000002,0.29610000000000003,-0.20944000000000002,22.5,1,426,311,580,1629,35.6346875,113560,20.328498201993437,1013.1465886822525,0,,,,N/A,False
2024-04-02T10:42:22,1.3076775508999998,-0.1698904046,9.776474937949999,0.04413501345980661,-0.007941248096574201,-0.03512475119638588,0.03262,0.2975,-0.20216000000000003,22.5,1,426,311,580,1629,35.6346875,113560,20.328498201993437,1013.1465886822525,0,,,,N/A,False
2024-04-02T10:42:22,1.34895374075,-0.16331014244999997,9.923035322199999,0.04703662334124718,-0.0019853120241435504,-0.041691552507014555,0.030380000000000004,0.3017,-0.21014000000000002,22.5,1,426,311,580,1629,35.6346875,113560,20.328498201993437,1013.1465886822525,0,,,,N/A,False
2024-04-02T10:42:22,1.33698962775,-0.2069791549,9.8273224182,0.04520402762665314,-0.003970624048287101,-0.03741549583962844,0.02646,0.29442,-0.2058,22.5,1,426,311,580,1629,35.66046875,114252,20.32486148024699,1013.1560001015529,0,,,,N/A,False
2024-04-02T10:42:23,1.3004990831,-0.11784651304999999,9.865607579799999,0.04413501345980661,0.001069014166846527,-0.038179077387375956,0.03486000000000001,0.3003,-0.22190000000000004,22.5,0,425,310,579,1628,35.66046875,114252,20.32486148024699,1013.1560001015529,0,,,,N/A,False
2024-04-02T10:42:23,1.2801600909999997,-0.09152546445000001,9.750752095,0.04474587869800463,-0.004886921905584123,-0.039858956792420505,0.02758,0.29974,-0.20594000000000004,22.5,0,425,310,579,1628,35.6846875,115188,20.31048788043166,1013.1556273031784,0,,,,N/A,False
2024-04-02T10:42:23,1.36091785375,-0.15014961815,9.923035322199999,0.04703662334124718,0.0013744467859455349,-0.040622538340168025,0.03178,0.30478000000000005,-0.21322000000000002,22.5,0,425,310,579,1628,35.6846875,115188,20.31048788043166,1013.1556273031784,0,,,,N/A,False
2024-04-02T10:42:23,1.3190434582499997,-0.09750752095,9.73340413115,0.043676864531158106,-0.0009162978572970231,-0.03924809155422249,0.020860000000000004,0.30562,-0.19362000000000001,22.5,0,425,310,579,1628,35.6846875,115188,20.31048788043166,1013.1556273031784,0,,,,N/A,False
2024-04-02T10:42:23,1.2945170265999997,-0.07836494014999999,9.82792062385,0.050243665841786765,0.0012217304763960308,-0.03527746750593539,0.030940000000000002,0.30226000000000003,-0.2121,22.5,0,425,310,579,1628,35.708125,114484,20.306697746359845,1013.1594083154799,0,,,,N/A,False
2024-04-02T10:42:23,1.3668999102499997,-0.16151552549999998,10.0103733471,0.04978551691313826,0.0019853120241435504,-0.03466660226773738,0.02926,0.3003,-0.20664000000000002,22.5,0,425,310,579,1628,35.708125,114484,20.306697746359845,1013.1594083154799,0,,,,N/A,False
2024-04-02T10:42:23,1.3166506356499998,-0.1471585899,9.913464031799998,0.04489859500755413,0.0016798794050445422,-0.04077525464971753,0.04102,0.29862,-0.21392000000000003,22.5,0,425,310,579,1628,35.7286328125,115345,20.297399236421178,1013.1602267052863,0,,,,N/A,False
2024-04-02T10:42:23,1.30229370005,-0.17527425545,9.83150985775,0.04016438941151951,-0.00916297857297023,-0.038484510006474966,0.0315,0.30114,-0.20916,22.5,0,425,310,579,1628,35.7286328125,115345,20.297399236421178,1013.1602267052863,0,,,,N/A,False
2024-04-02T10:42:23,1.3184452525999997,-0.16869399329999998,9.9397850804,0.04230241774521256,-0.0027488935718910697,-0.03604104905368291,0.0371,0.29834000000000005,-0.20482000000000003,22.5,1,424,309,578,1625,35.7462109375,115424,20.266643417363,1013.1580830097168,0,,,,N/A,False
2024-04-02T10:42:23,1.2777672683999999,-0.10468598874999999,9.83390268035,0.04917465167494024,-0.007330382858376185,-0.04505131131710364,0.046340000000000006,0.29610000000000003,-0.20608,22.5,1,424,309,578,1625,35.7462109375,115424,20.266643417363,1013.1580830097168,0,,,,N/A,False
2024-04-02T10:42:23,1.3244273091,-0.11006983959999998,9.8057870148,0.04413501345980661,-0.006566801310628666,-0.04153883619746505,0.038500000000000006,0.29498,-0.2058,22.5,1,424,309,578,1625,35.7122265625,112425,20.253801921119887,1013.1733245192657,0,,,,N/A,False
2024-04-02T10:42:23,1.3603196481,-0.16091731985,9.93559764085,0.0022907446432425577,-0.009773843811168246,-0.03543018381548489,0.03878,0.28938,-0.21602000000000002,22.5,1,424,309,578,1625,35.7122265625,112425,20.253801921119887,1013.1733245192657,0,,,,N/A,False
2024-04-02T10:42:24,1.3292129543,-0.1806581063,9.93081199565,0.0514653963181828,-0.0006108652381980154,-0.040622538340168025,0.03122,0.29806,-0.20958000000000002,22.5,1,424,309,578,1625,35.655390625,113103,20.24479376724019,1013.1622064264498,0,,,,N/A,False
2024-04-02T10:42:24,1.3052847283,-0.16809578764999997,9.852447055499999,0.04260785036431157,-0.00473420559603462,-0.036804630601430424,0.03626000000000001,0.2891,-0.21490000000000004,22.5,1,424,309,578,1625,35.655390625,113103,20.24479376724019,1013.1622064264498,0,,,,N/A,False
2024-04-02T10:42:24,1.2771690627499999,-0.11425727914999999,9.769894675799998,0.04566217655530165,-0.00473420559603462,-0.04016438941151951,0.02562,0.29638000000000003,-0.19628000000000004,22.5,1,424,309,578,1625,35.6450390625,113407,20.233493813266616,1013.1525883376588,0,,,,N/A,False
2024-04-02T10:42:24,1.2598210988999998,-0.09810572659999998,9.846464998999998,0.04718933965079669,-0.0018325957145940463,-0.03924809155422249,0.02562,0.29246000000000005,-0.19712000000000002,22.5,1,424,309,578,1625,35.6450390625,113407,20.233493813266616,1013.1525883376588,0,,,,N/A,False
2024-04-02T10:42:24,1.36331067635,-0.1639083481,9.91884788265,0.039706240482871004,-0.0006108652381980154,-0.03756821214917795,0.026180000000000002,0.29638000000000003,-0.21112000000000003,22.5,0,424,308,578,1624,35.6579296875,114252,20.22901715205936,1013.1518657955243,0,,,,N/A,False
2024-04-02T10:42:24,1.2556336593499997,-0.16510475939999997,9.84945602725,0.039706240482871004,-0.010079276430267254,-0.03543018381548489,0.04102,0.29414000000000007,-0.21504,22.5,0,424,308,578,1624,35.6579296875,114252,20.22901715205936,1013.1518657955243,0,,,,N/A,False
2024-04-02T10:42:24,1.3064811395999998,-0.10468598874999999,9.8069834261,0.04321871560250959,-0.0033597588100890844,-0.039553524173321496,0.037380000000000004,0.29302000000000006,-0.21952000000000002,22.5,0,424,308,578,1624,35.6579296875,114252,20.22901715205936,1013.1518657955243,0,,,,N/A,False
2024-04-02T10:42:24,1.3501501520499999,-0.13459627124999998,9.785448022699999,0.04291328298341058,-0.00473420559603462,-0.03588833274413341,0.032900000000000006,0.30142,-0.20762000000000003,22.5,0,424,308,578,1624,35.680390625,115979,20.21453479258611,1013.1432027043214,0,,,,N/A,False
2024-04-02T10:42:24,1.3405788616499998,-0.1806581063,9.90209812445,0.038484510006474966,-0.00916297857297023,-0.03726277953007894,0.032900000000000006,0.2947000000000001,-0.20986000000000002,22.5,0,424,308,578,1624,35.578828125,109863,20.17077143700766,1013.1677999787946,0,,,,N/A,False
2024-04-02T10:42:25,1.2370892841999999,-0.07956135144999998,9.803394192199999,0.07727445263204895,-0.004123340357836604,-0.038637226316024474,0.03542,0.30226000000000003,-0.20804000000000003,22.5,0,424,308,578,1624,35.578828125,109863,20.17077143700766,1013.1677999787946,0,,,,N/A,False
2024-04-02T10:42:25,1.3004990831,-0.15493526335,9.800403163949998,0.0433714319120591,-0.009315694882519735,-0.036499197982331415,0.03318,0.29890000000000005,-0.20664000000000002,22.5,0,424,308,578,1624,35.578828125,109863,20.17077143700766,1013.1677999787946,0,,,,N/A,False
2024-04-02T10:42:25,1.2687941836499999,-0.12442677519999999,9.81117086565,0.04306599929296009,-0.0044287729769356115,-0.040317105721069016,0.03934,0.28770000000000007,-0.19600000000000004,22.5,1,424,309,579,1628,35.488984375,111460,20.164958867546638,1013.1571618151659,0,,,,N/A,False
2024-04-02T10:42:25,1.3405788616499998,-0.17108681589999997,9.905089152699999,0.04306599929296009,0.0009162978572970231,-0.041691552507014555,0.030940000000000002,0.29946000000000006,-0.21140000000000003,22.5,1,424,309,579,1628,35.488984375,111460,20.164958867546638,1013.1571618151659,0,,,,N/A,False
2024-04-02T10:42:25,1.3764712006499997,-0.2165504453,9.98225768155,0.041080687268816536,-0.003054326190990077,-0.03634648167278191,0.03402,0.30254000000000003,-0.20846,23.5,1,424,309,579,1628,35.4657421875,112201,20.158147586820288,1013.1410148355691,0,,,,N/A,False
2024-04-02T10:42:25,1.2873385588,-0.18125631194999997,9.7830552001,0.039706240482871004,-0.00916297857297023,-0.03252857393404432,0.032900000000000006,0.29918,-0.20342000000000002,22.5,1,424,309,579,1628,35.4657421875,112201,20.158147586820288,1013.1410148355691,0,,,,N/A,False
2024-04-02T10:42:25,1.3160524299999998,-0.18185451760000002,9.88893760015,0.03512475119638588,-0.007330382858376185,-0.036499197982331415,0.022260000000000002,0.29386,-0.20328000000000002,22.5,1,424,309,579,1628,35.44640625,110078,20.15689776520518,1013.1637868953543,0,,,,N/A,False
2024-04-02T10:42:25,1.33698962775,-0.13220344865,9.927222761749999,0.04810563750809371,-0.0016798794050445422,-0.036804630601430424,0.02926,0.29666000000000003,-0.19964,23.5,1,424,309,579,1628,35.44640625,110078,20.15689776520518,1013.1637868953543,0,,,,N/A,False
2024-04-02T10:42:25,1.2987044661499998,-0.1387837108,9.846464998999998,0.0433714319120591,-0.003054326190990077,-0.040622538340168025,0.026740000000000003,0.29414000000000007,-0.20454000000000003,23.5,1,424,309,579,1628,35.39171875,109012,20.158671290394608,1013.1705736773956,0,,,,N/A,False
2024-04-02T10:42:25,1.3603196481,-0.20638094924999997,9.89491965665,0.04444044607890562,-0.005192354524683131,-0.039400807863771994,0.029820000000000003,0.2975,-0.19656000000000004,22.5,0,423,308,578,1624,35.39171875,109012,20.158671290394608,1013.1705736773956,0,,,,N/A,False
2024-04-02T10:42:25,1.3938191645,-0.12263215824999998,9.936794052149999,0.04596760917440065,-0.0012217304763960308,-0.039858956792420505,0.030380000000000004,0.29862,-0.2079,22.5,0,423,308,578,1624,35.3565625,110728,20.167014042987283,1013.158522678896,0,,,,N/A,False
2024-04-02T10:42:26,1.29032958705,-0.19022939669999997,9.900303507499999,0.04581489286485116,-0.011301006906663285,-0.04214970143566306,0.030100000000000002,0.29694000000000004,-0.18844000000000002,22.5,0,423,308,578,1624,35.3565625,110728,20.167014042987283,1013.158522678896,0,,,,N/A,False
2024-04-02T10:42:26,1.2634103328,-0.1292124204,9.792626490499998,0.04260785036431157,-0.0019853120241435504,-0.03756821214917795,0.02478,0.29666000000000003,-0.20398000000000002,22.5,0,423,308,578,1624,35.3821484375,110874,20.1792834353079,1013.1495590542036,0,,,,N/A,False
2024-04-02T10:42:26,1.3004990831,-0.15134602945,9.7962157244,0.041844268816564056,-0.012675453692608819,-0.03741549583962844,0.03318,0.29302000000000006,-0.21070000000000003,22.5,0,423,308,578,1624,35.3821484375,110874,20.1792834353079,1013.1495590542036,0,,,,N/A,False
2024-04-02T10:42:26,1.2921242039999998,-0.17407784415000002,9.8811609267,0.04245513405476207,-0.005192354524683131,-0.03588833274413341,0.038500000000000006,0.29498,-0.20048000000000002,22.5,0,423,308,578,1624,35.4317578125,112425,20.198419810667346,1013.1471634033736,0,,,,N/A,False
2024-04-02T10:42:26,1.2586246875999998,-0.13998012209999997,9.703493848649998,0.04291328298341058,-0.006261368691529657,-0.04016438941151951,0.025900000000000003,0.29974,-0.21196,22.5,0,423,308,578,1624,35.4317578125,112425,20.198419810667346,1013.1471634033736,0,,,,N/A,False
2024-04-02T10:42:26,1.3190434582499997,-0.1531406464,9.829715240799999,0.038789942625573975,-0.006414085001079162,-0.03543018381548489,0.025900000000000003,0.29974,-0.20272000000000004,22.5,0,423,308,578,1624,35.4317578125,112425,20.198419810667346,1013.1471634033736,0,,,,N/A,False
2024-04-02T10:42:26,1.2957134379,-0.1088734283,9.754341328899999,0.03451388595818787,-0.004886921905584123,-0.0355829001250344,0.037660000000000006,0.29190000000000005,-0.1974,23.5,0,423,308,579,1626,35.488984375,113255,20.22336885693639,1013.1499261725935,0,,,,N/A,False
2024-04-02T10:42:26,1.3088739621999996,-0.19920248144999997,9.963115100749999,0.04535674393620265,-0.00473420559603462,-0.03802636107782646,0.040740000000000005,0.29778000000000004,-0.20146,22.5,0,423,308,579,1626,35.488984375,113255,20.22336885693639,1013.1499261725935,0,,,,N/A,False
2024-04-02T10:42:26,1.3603196481,-0.18664016279999998,9.958927661199999,0.0435241482216086,-0.002901609881440573,-0.038179077387375956,0.037660000000000006,0.29414000000000007,-0.20272000000000004,23.5,0,423,308,579,1626,35.5442578125,113943,20.23226560071648,1013.1494937533994,0,,,,N/A,False
2024-04-02T10:42:26,1.32741833735,-0.1088734283,9.83150985775,0.043676864531158106,-0.00045814892864851157,-0.07819075048934597,0.03374,0.30478000000000005,-0.19572000000000003,22.5,0,423,308,579,1626,35.5442578125,113943,20.23226560071648,1013.1494937533994,0,,,,N/A,False
2024-04-02T10:42:26,1.3788640232499998,-0.14895320685,9.8763752815,0.0433714319120591,-0.0018325957145940463,-0.03924809155422249,0.038220000000000004,0.29666000000000003,-0.20482000000000003,22.5,0,423,308,579,1626,35.59328125,114252,20.251387014522493,1013.1497249863709,0,,,,N/A,False
2024-04-02T10:42:26,1.3166506356499998,-0.10408778309999998,9.8321080634,0.04886921905584123,-0.0036651914291880926,-0.041691552507014555,0.02758,0.29834000000000005,-0.20650000000000002,22.5,0,423,308,579,1626,35.59328125,114252,20.251387014522493,1013.1497249863709,0,,,,N/A,False
2024-04-02T10:42:27,1.4051850718499999,-0.1531406464,9.9026963301,0.04673119072214818,-0.0024434609527920616,-0.036193765363232405,0.040740000000000005,0.29638000000000003,-0.20370000000000002,22.5,0,423,308,579,1626,35.5895703125,111239,20.24583249321247,1013.1798657864761,0,,,,N/A,False
2024-04-02T10:42:27,1.3483555351,-0.18664016279999998,10.019944637499998,0.04688390703169768,-0.0036651914291880926,-0.03756821214917795,0.03458000000000001,0.2933,-0.21462000000000003,22.5,0,423,308,579,1625,35.5895703125,111239,20.24583249321247,1013.1798657864761,0,,,,N/A,False
2024-04-02T10:42:27,1.23768748985,-0.1112662509,9.78245699445,0.04535674393620265,-0.007483099167925688,-0.039858956792420505,0.03262,0.3017,-0.1974,22.5,0,423,308,579,1625,35.5587109375,113255,20.265082154309724,1013.1694127338563,0,,,,N/A,False
2024-04-02T10:42:27,1.3800604345499998,-0.0897308475,9.87577707585,0.04963280060358875,0.0035124751196385882,-0.04382958084070761,0.037380000000000004,0.29918,-0.21322000000000002,22.5,0,423,308,579,1625,35.5587109375,113255,20.265082154309724,1013.1694127338563,0,,,,N/A,False
2024-04-02T10:42:27,1.3088739621999996,-0.09990034354999999,9.744171832849998,0.04245513405476207,0.0006108652381980154,-0.038331793696925465,0.03318,0.29806,-0.21308000000000002,23.5,0,423,308,579,1625,35.5659375,114484,20.265551761929114,1013.1667083393057,0,,,,N/A,False
2024-04-02T10:42:27,1.4751751328999996,-0.2069791549,9.8931250397,0.04046982203061852,-0.003054326190990077,-0.03802636107782646,0.03486000000000001,0.29498,-0.22064,22.5,0,423,308,579,1625,35.5659375,114484,20.265551761929114,1013.1667083393057,0,,,,N/A,False
2024-04-02T10:42:27,1.3399806559999998,-0.11964112999999998,9.979266653299998,0.04413501345980661,-0.0027488935718910697,-0.04230241774521256,0.03514,0.30086,-0.19936,22.5,0,423,308,579,1625,35.5926953125,114097,20.283234686107747,1013.1686719849838,0,,,,N/A,False
2024-04-02T10:42:27,1.34536450685,-0.1950150419,9.848857821599998,0.04550946024575215,-0.0003054326190990077,-0.04214970143566306,0.026740000000000003,0.29834000000000005,-0.21686000000000002,22.5,0,423,308,579,1625,35.5926953125,114097,20.283234686107747,1013.1686719849838,0,,,,N/A,False
2024-04-02T10:42:27,1.3052847283,-0.16031911419999997,9.69751179215,0.04321871560250959,-0.010231992739816757,-0.038179077387375956,0.040740000000000005,0.29302000000000006,-0.20888,22.5,1,424,308,580,1628,35.62296875,115109,20.29583534795744,1013.1655016560368,0,,,,N/A,False
2024-04-02T10:42:27,1.3674981158999997,-0.14656038424999998,9.88415195495,0.04535674393620265,-0.0015271630954950385,-0.038179077387375956,0.03458000000000001,0.29862,-0.2093,22.5,1,424,308,580,1628,35.62296875,115109,20.29583534795744,1013.1655016560368,0,,,,N/A,False
2024-04-02T10:42:27,1.2909277927,-0.09092725880000001,9.83629550295,0.04214970143566306,-0.0025961772623415654,-0.04306599929296009,0.038220000000000004,0.29722000000000004,-0.20972000000000002,22.5,1,424,308,580,1628,35.5966015625,111903,20.294119217334263,1013.1895067535121,0,,,,N/A,False
2024-04-02T10:42:28,1.3471591237999998,-0.21834506225,9.934401229549998,0.04459316238845512,-0.006719517620178169,-0.03543018381548489,0.03654,0.29274,-0.2079,22.5,1,424,308,580,1628,35.546015625,113027,20.285513329654652,1013.1776833251275,0,,,,N/A,False
2024-04-02T10:42:28,1.2358928728999998,-0.09870393224999999,9.665208687049999,0.00045814892864851157,-0.007177666548826681,-0.03420845333908886,0.03262,0.28490000000000004,-0.20860000000000004,22.5,1,424,308,580,1628,35.546015625,113027,20.285513329654652,1013.1776833251275,0,,,,N/A,False
2024-04-02T10:42:28,1.3016954943999999,-0.0873380249,9.723234635099999,0.04260785036431157,-0.0003054326190990077,-0.03665191429188092,0.038500000000000006,0.29134000000000004,-0.21084000000000003,22.5,1,424,308,580,1628,35.5407421875,113560,20.30111450352056,1013.1654771364913,0,,,,N/A,False
2024-04-02T10:42:28,1.32382910345,-0.18664016279999998,9.963713306399999,0.04444044607890562,-0.004123340357836604,-0.03665191429188092,0.028140000000000005,0.28378000000000003,-0.21714000000000003,22.5,1,424,308,580,1628,35.5407421875,113560,20.30111450352056,1013.1654771364913,0,,,,N/A,False
2024-04-02T10:42:28,1.5212369679499997,-0.16809578764999997,9.855438083749998,0.04459316238845512,-0.0068722339297276735,-0.0357356164345839,0.028700000000000003,0.29526,-0.21056000000000002,22.5,1,424,308,580,1628,35.54796875,114407,20.301584798563667,1013.1555370760805,0,,,,N/A,False
2024-04-02T10:42:28,1.35972144245,-0.11545369045,9.858429112,0.04428772976935611,-0.005039638215133627,-0.041996985126113565,0.029540000000000004,0.29442,-0.20678000000000002,22.5,1,424,309,582,1631,35.54796875,114407,20.301584798563667,1013.1555370760805,0,,,,N/A,False
2024-04-02T10:42:28,1.2927224096499998,-0.10408778309999998,9.838688325549999,0.04291328298341058,-0.003207042500539581,-0.03527746750593539,0.03962,0.30058,-0.20342000000000002,22.5,1,424,309,582,1631,35.54796875,114407,20.301584798563667,1013.1555370760805,0,,,,N/A,False
2024-04-02T10:42:28,1.24965160285,-0.08075776274999999,9.76331441365,0.04520402762665314,-0.0006108652381980154,-0.041080687268816536,0.03122,0.29442,-0.19684000000000004,22.5,1,424,309,582,1631,35.5716015625,115031,20.297807608545845,1013.1506043283526,0,,,,N/A,False
2024-04-02T10:42:28,1.3088739621999996,-0.15852449724999998,9.82792062385,0.04230241774521256,-0.003207042500539581,-0.040317105721069016,0.030380000000000004,0.2933,-0.21728000000000003,22.5,1,424,309,582,1631,35.5716015625,115031,20.297807608545845,1013.1506043283526,0,,,,N/A,False
2024-04-02T10:42:28,1.3160524299999998,-0.179461695,9.90209812445,0.04474587869800463,-0.014202616788103858,-0.038331793696925465,0.027300000000000005,0.29638000000000003,-0.21546,22.5,1,424,309,582,1631,35.5971875,116059,20.29415734926782,1013.1452307350041,0,,,,N/A,False
2024-04-02T10:42:29,1.2699905949499997,-0.13938191645,9.7016992317,0.039858956792420505,-0.006108652381980154,-0.03726277953007894,0.03682,0.29078000000000004,-0.21126000000000003,22.5,1,424,309,582,1631,35.5971875,116059,20.29415734926782,1013.1452307350041,0,,,,N/A,False
2024-04-02T10:42:29,1.3040883169999997,-0.12263215824999998,9.754341328899999,0.041844268816564056,-0.007330382858376185,-0.04016438941151951,0.030940000000000002,0.29498,-0.20622000000000001,22.5,1,424,309,582,1631,35.618671875,116944,20.274294316991945,1013.1585047365796,0,,,,N/A,False
2024-04-02T10:42:29,1.30468652265,-0.18484554585,9.97627562505,0.04688390703169768,-0.004276056667386108,-0.03924809155422249,0.030380000000000004,0.29414000000000007,-0.21224,22.5,0,424,311,583,1636,35.618671875,116944,20.274294316991945,1013.1585047365796,0,,,,N/A,False
2024-04-02T10:42:29,1.3842478741,-0.1363908882,9.8404829425,0.04016438941151951,0.0009162978572970231,-0.03604104905368291,0.03374,0.3003,-0.19656000000000004,22.5,0,424,311,583,1636,35.58703125,114562,20.24566761132789,1013.1793493678836,0,,,,N/A,False
2024-04-02T10:42:29,1.2705888005999997,-0.07716852884999999,9.69033332435,0.04016438941151951,-0.004276056667386108,-0.03604104905368291,0.028140000000000005,0.2863,-0.20118,22.5,0,424,311,583,1636,35.5315625,115820,20.236754105057546,1013.1668088418278,0,,,,N/A,False
2024-04-02T10:42:29,1.2813565023,-0.10348957745,9.784849817049999,0.04214970143566306,-0.007330382858376185,-0.04230241774521256,0.038500000000000006,0.29694000000000004,-0.19838000000000003,22.5,0,424,311,583,1636,35.5315625,115820,20.236754105057546,1013.1668088418278,0,,,,N/A,False
2024-04-02T10:42:29,1.28793676445,-0.06759723845,9.767501853199999,0.04276056667386108,-0.009926560120717751,-0.04046982203061852,0.03402,0.29610000000000003,-0.19404000000000002,22.5,0,426,311,585,1640,35.3184765625,110007,20.16455311749385,1013.1760553504026,0,,,,N/A,False
2024-04-02T10:42:30,1.2538390423999999,-0.0897308475,9.790233667899999,0.038942658935123484,-0.0018325957145940463,-0.036499197982331415,0.03318,0.29078000000000004,-0.21504,22.5,0,426,311,585,1640,35.3184765625,110007,20.16455311749385,1013.1760553504026,0,,,,N/A,False
2024-04-02T10:42:30,1.3339985995,-0.1639083481,9.939186874749998,0.041386119887915546,-0.0016798794050445422,-0.04077525464971753,0.038220000000000004,0.29554,-0.20552,22.5,0,426,311,585,1640,35.1673046875,109578,20.133577406986284,1013.166647696057,0,,,,N/A,False
2024-04-02T10:42:30,1.31425781305,-0.14536397295,9.96191868945,0.04505131131710364,-0.009010262263420728,-0.04016438941151951,0.035980000000000005,0.2891,-0.20272000000000004,22.5,0,426,311,585,1640,35.1673046875,109578,20.133577406986284,1013.166647696057,0,,,,N/A,False
2024-04-02T10:42:30,1.2747762401499998,-0.11485548479999999,9.716056167299998,0.03695734691097993,-0.012828170002158324,-0.03497203488683638,0.037660000000000006,0.29582,-0.20356000000000002,22.5,0,426,311,585,1640,35.0934765625,111755,20.11821571573007,1013.1439806550911,0,,,,N/A,False
2024-04-02T10:42:30,1.3663017045999997,-0.09391828705,9.8763752815,0.041996985126113565,0.00045814892864851157,-0.04016438941151951,0.04046,0.28994000000000003,-0.19698000000000002,22.5,0,426,311,585,1640,35.0934765625,111755,20.11821571573007,1013.1439806550911,0,,,,N/A,False
2024-04-02T10:42:30,1.3268201317,-0.08793623055000001,9.73460054245,0.04444044607890562,-0.005803219762881146,-0.041691552507014555,0.0413,0.28938,-0.20594000000000004,22.5,0,426,311,585,1640,35.110078125,113866,20.11398258616223,1013.1348747618393,0,,,,N/A,False
2024-04-02T10:42:30,1.3124631961,-0.12502498085,9.862616551549998,0.04581489286485116,-0.0018325957145940463,-0.04016438941151951,0.0357,0.29022000000000003,-0.20384000000000002,22.5,1,427,312,586,1644,35.1653515625,114097,20.112239268517754,1013.1254969132555,0,,,,N/A,False
2024-04-02T10:42:30,1.3052847283,-0.2069791549,9.82433138995,0.04566217655530165,-0.007941248096574201,-0.039706240482871004,0.038220000000000004,0.29694000000000004,-0.20132000000000003,22.5,1,427,312,586,1644,35.1653515625,114097,20.112239268517754,1013.1254969132555,0,,,,N/A,False
2024-04-02T10:42:30,1.3854442854,-0.1459621786,9.934401229549998,0.04520402762665314,0.0009162978572970231,-0.04230241774521256,0.044660000000000005,0.2905,-0.20370000000000002,22.5,1,427,312,586,1644,35.1653515625,114097,20.112239268517754,1013.1254969132555,0,,,,N/A,False
2024-04-02T10:42:30,1.3549357972499998,-0.1447657673,9.94756175385,0.04459316238845512,-0.0015271630954950385,-0.04123340357836604,0.03934,0.29190000000000005,-0.20398000000000002,22.5,1,427,312,586,1644,35.2096875,113560,20.088581215009825,1013.1471046777672,0,,,,N/A,False
2024-04-02T10:42:30,1.2795618853499997,-0.12083754129999999,9.7076812882,0.04489859500755413,-0.002138028333693054,-0.036499197982331415,0.030660000000000003,0.30310000000000004,-0.19908,22.5,1,427,312,586,1644,35.2096875,113560,20.088581215009825,1013.1471046777672,0,,,,N/A,False
2024-04-02T10:42:31,1.2891331757499997,-0.13459627124999998,9.75733235715,0.041691552507014555,-0.008704829644321718,-0.03695734691097993,0.03654,0.30254000000000003,-0.20916,22.5,1,427,313,587,1645,35.2274609375,115582,20.07912048284524,1013.13085665679,0,,,,N/A,False
2024-04-02T10:42:31,1.2771690627499999,-0.10707881135,9.7686982645,0.04077525464971753,-0.009010262263420728,-0.03665191429188092,0.042140000000000004,0.3003,-0.21448000000000003,22.5,1,427,313,587,1645,35.2274609375,115582,20.07912048284524,1013.13085665679,0,,,,N/A,False
2024-04-02T10:42:31,1.2622139215000001,-0.12263215824999998,9.713663344699999,0.038331793696925465,-0.00946841119206924,-0.03802636107782646,0.03402,0.29974,-0.22022000000000003,22.5,1,427,313,587,1645,35.2274609375,115582,20.07912048284524,1013.13085665679,0,,,,N/A,False
2024-04-02T10:42:31,1.2687941836499999,-0.09810572659999998,9.784849817049999,0.0474947722698957,-0.008857545953871223,-0.041386119887915546,0.04046,0.29190000000000005,-0.21294000000000002,22.5,1,427,313,587,1645,34.6727734375,99675,19.948274667983075,1013.1432264057153,0,,,,N/A,False
2024-04-02T10:42:31,1.43030970915,-0.17587246110000002,9.9505527821,0.04581489286485116,-0.004886921905584123,-0.03726277953007894,0.034300000000000004,0.29246000000000005,-0.20202,22.5,1,427,313,587,1645,34.6727734375,99675,19.948274667983075,1013.1432264057153,0,,,,N/A,False
2024-04-02T10:42:32,1.4009976322999997,-0.18963119104999998,9.9756774194,0.04321871560250959,-0.006108652381980154,-0.03772092845872745,0.0357,0.29806,-0.20034000000000002,22.5,1,429,314,589,1651,34.42296875,104167,19.964089149966817,1013.1314845413004,0,,,,N/A,False
2024-04-02T10:42:32,1.3124631961,-0.16211373114999997,9.775876732299999,0.038789942625573975,-0.005803219762881146,-0.03695734691097993,0.042140000000000004,0.2905,-0.20748000000000003,22.5,1,429,315,590,1651,34.42296875,104167,19.964089149966817,1013.1314845413004,0,,,,N/A,False
2024-04-02T10:42:32,1.3668999102499997,-0.18364913454999998,9.994820000199999,0.04734205596034619,-0.002138028333693054,-0.03726277953007894,0.038500000000000006,0.28098,-0.21224,22.5,1,429,315,590,1651,34.42296875,104167,19.964089149966817,1013.1314845413004,0,,,,N/A,False
2024-04-02T10:42:32,1.3375878333999998,-0.18364913454999998,9.954740221649999,0.04550946024575215,-0.010231992739816757,-0.04016438941151951,0.035980000000000005,0.30450000000000005,-0.19866000000000003,22.5,1,429,315,590,1651,33.971015625,94570,20.00402821162974,1013.1416277834686,0,,,,N/A,False
2024-04-02T10:42:32,1.3621142650499998,-0.12562318649999998,9.883553749299999,0.049021935365390734,0.0022907446432425577,-0.04092797095926703,0.029540000000000004,0.30450000000000005,-0.21112000000000003,22.5,1,429,315,590,1651,33.971015625,94570,20.00402821162974,1013.1416277834686,0,,,,N/A,False
2024-04-02T10:43:48,1.2963116435499997,-0.14656038424999998,9.752546711949998,0.04214970143566306,-0.002901609881440573,-0.03634648167278191,0.04102,0.30086,-0.20342000000000002,22.5,1,430,316,591,1653,33.81515625,96927,20.0575077582267,1013.1236679262832,0,,,,N/A,False
2024-04-02T10:43:48,1.3501501520499999,-0.10648060570000001,9.9469635482,0.04520402762665314,-0.0012217304763960308,-0.041691552507014555,0.042140000000000004,0.30114,-0.21742,22.5,1,430,316,591,1653,33.81515625,96927,20.0575077582267,1013.1236679262832,0,,,,N/A,False
2024-04-02T10:43:48,1.2693923892999999,-0.13758729949999998,9.809974454349998,0.04230241774521256,-0.007177666548826681,-0.038942658935123484,0.04326000000000001,0.30422000000000005,-0.2121,22.5,1,430,316,591,1653,33.81515625,96927,20.0575077582267,1013.1236679262832,0,,,,N/A,False
2024-04-02T10:43:48,1.31425781305,-0.1052841944,9.7914300792,0.041996985126113565,-0.002138028333693054,-0.038942658935123484,0.034300000000000004,0.29638000000000003,-0.20160000000000003,22.5,1,430,316,591,1653,33.4430859375,88984,20.22928586733336,1013.1349746276434,0,,,,N/A,False
2024-04-02T10:43:48,1.3160524299999998,-0.18544375149999998,9.89731247925,0.0433714319120591,-0.006566801310628666,-0.04001167310197001,0.037380000000000004,0.30534000000000006,-0.21518,22.5,1,430,316,591,1653,33.4430859375,88984,20.22928586733336,1013.1349746276434,0,,,,N/A,False
2024-04-02T10:43:49,1.2765708571,-0.09272187574999999,9.87577707585,0.04627304179349966,-0.005345070834232635,-0.039706240482871004,0.03318,0.29386,-0.20538000000000003,22.5,0,429,317,592,1654,33.3618359375,93833,20.308674255685457,1013.1122919422742,0,,,,N/A,False
2024-04-02T10:43:49,1.3399806559999998,-0.18185451760000002,9.958329455549999,0.04688390703169768,-0.006261368691529657,-0.039858956792420505,0.0371,0.29414000000000007,-0.21070000000000003,22.5,0,429,317,592,1654,33.3618359375,93833,20.308674255685457,1013.1122919422742,0,,,,N/A,False
2024-04-02T10:43:49,1.3507483577,-0.11605189609999998,9.905089152699999,0.04413501345980661,-0.0054977871437821395,-0.040317105721069016,0.029540000000000004,0.29666000000000003,-0.20272000000000004,22.5,0,429,317,592,1654,33.3618359375,93833,20.308674255685457,1013.1122919422742,0,,,,N/A,False
2024-04-02T10:43:49,1.2789636797,-0.12741780345,9.7974121357,0.039858956792420505,-0.007635815477475193,-0.04046982203061852,0.04046,0.29806,-0.20034000000000002,22.5,0,430,318,593,1655,33.149140625,87964,20.480151210329172,1013.1146501586809,0,,,,N/A,False
2024-04-02T10:43:49,1.2622139215000001,-0.19022939669999997,9.8620183459,0.039553524173321496,-0.009315694882519735,-0.04001167310197001,0.04494000000000001,0.29694000000000004,-0.19390000000000002,22.5,0,430,318,593,1655,33.149140625,87964,20.480151210329172,1013.1146501586809,0,,,,N/A,False
2024-04-02T10:43:49,1.3064811395999998,-0.11066804524999999,9.776474937949999,0.04230241774521256,-0.006261368691529657,-0.03695734691097993,0.03514,0.30506,-0.20160000000000003,22.5,0,430,318,593,1655,33.1516796875,89933,20.575628822475224,1013.1260076522026,0,,,,N/A,False
2024-04-02T10:43:49,1.36331067635,-0.12562318649999998,9.978070242,0.04230241774521256,-0.0015271630954950385,-0.03787364476827696,0.037660000000000006,0.30058,-0.20566000000000004,22.5,0,430,318,593,1655,33.1516796875,89933,20.575628822475224,1013.1260076522026,0,,,,N/A,False
2024-04-02T10:43:49,1.3902299305999999,-0.1483550012,9.99661461715,0.047952921198544204,-0.0025961772623415654,-0.04001167310197001,0.034300000000000004,0.29834000000000005,-0.2093,22.5,0,430,318,593,1655,33.1516796875,89933,20.575628822475224,1013.1260076522026,0,,,,N/A,False
2024-04-02T10:43:49,1.33938245035,-0.1471585899,9.9242317335,0.04810563750809371,0.005345070834232635,-0.038942658935123484,0.03682,0.29218,-0.19292,22.5,0,430,318,593,1655,33.2719921875,94464,20.657647891826958,1013.1098037451727,0,,,,N/A,False
2024-04-02T10:43:50,1.2831511192499998,-0.1363908882,9.8273224182,0.04001167310197001,-0.006566801310628666,-0.03481931857728687,0.03682,0.29666000000000003,-0.21168,23.5,1,430,318,594,1655,33.5016796875,96484,20.725698572638144,1013.1062131869122,0,,,,N/A,False
2024-04-02T10:43:50,1.3040883169999997,-0.0897308475,9.79561751875,0.04428772976935611,0.0007635815477475193,-0.03756821214917795,0.037660000000000006,0.30058,-0.20496,22.5,1,430,318,594,1655,33.5016796875,96484,20.725698572638144,1013.1062131869122,0,,,,N/A,False
2024-04-02T10:43:50,1.29990087745,-0.11605189609999998,9.78604622835,0.03756821214917795,-0.006566801310628666,-0.03390302071998985,0.040740000000000005,0.29862,-0.20748000000000003,22.5,1,430,318,594,1655,33.5016796875,96484,20.725698572638144,1013.1062131869122,0,,,,N/A,False
2024-04-02T10:43:50,1.3040883169999997,-0.11006983959999998,9.792626490499998,0.041080687268816536,-0.004581489286485115,-0.040622538340168025,0.03626000000000001,0.30450000000000005,-0.20734000000000002,22.5,1,430,318,594,1655,33.602265625,94116,20.774765405956934,1013.1297522225146,0,,,,N/A,False
2024-04-02T10:43:50,1.3286147486499997,-0.19082760235,10.015757197949998,0.04214970143566306,-0.0054977871437821395,-0.038331793696925465,0.050260000000000006,0.30422000000000005,-0.20160000000000003,22.5,1,430,318,594,1655,33.602265625,94116,20.774765405956934,1013.1297522225146,0,,,,N/A,False
2024-04-02T10:43:51,1.37527478935,-0.12861421474999998,9.98225768155,0.04489859500755413,-0.0056505034533316425,-0.04001167310197001,0.03934,0.30422000000000005,-0.20874,22.5,0,430,318,594,1654,33.7309765625,97150,20.83104185790705,1013.1179788335944,0,,,,N/A,False
2024-04-02T10:43:51,1.2885349701,-0.3026920589,9.846464998999998,0.04123340357836604,-0.0038179077387375964,-0.038179077387375956,0.04802,0.29582,-0.21056000000000002,22.5,0,430,318,594,1654,33.7309765625,97150,20.83104185790705,1013.1179788335944,0,,,,N/A,False
2024-04-02T10:43:51,1.3920245475499997,-0.18005990065000002,10.0474620974,0.04550946024575215,-0.006261368691529657,-0.041386119887915546,0.03934,0.30590000000000006,-0.20846,22.5,0,430,318,594,1654,33.7309765625,97150,20.83104185790705,1013.1179788335944,0,,,,N/A,False
2024-04-02T10:43:51,1.32143628085,-0.17407784415000002,9.94157969735,0.04321871560250959,0.0007635815477475193,-0.03924809155422249,0.046900000000000004,0.29946000000000006,-0.22078000000000003,23.5,0,430,318,594,1654,33.4346875,90125,20.838112523424094,1013.1230642303893,0,,,,N/A,False
2024-04-02T10:43:51,1.2873385588,-0.11425727914999999,9.776474937949999,0.043982297150257116,-0.005039638215133627,-0.038637226316024474,0.04102,0.30814,-0.22218000000000004,22.5,0,431,318,595,1657,33.4346875,90125,20.838112523424094,1013.1230642303893,0,,,,N/A,False
2024-04-02T10:43:52,1.2873385588,-0.12562318649999998,9.8931250397,0.04046982203061852,-0.006108652381980154,-0.04046982203061852,0.03542,0.3017,-0.21546,22.5,1,431,318,595,1657,33.39015625,94889,20.87236599096335,1013.1008386661181,0,,,,N/A,False
2024-04-02T10:43:52,1.3387842447,-0.18005990065000002,10.004391290600001,0.04703662334124718,-0.0054977871437821395,-0.04077525464971753,0.042140000000000004,0.30282000000000003,-0.20986000000000002,22.5,1,431,318,595,1657,33.39015625,94889,20.87236599096335,1013.1008386661181,0,,,,N/A,False
2024-04-02T10:43:52,1.2987044661499998,-0.11964112999999998,9.8380901199,0.041691552507014555,-0.002901609881440573,-0.04077525464971753,0.049980000000000004,0.2975,-0.20636000000000002,23.5,1,431,318,595,1657,33.39015625,94889,20.87236599096335,1013.1008386661181,0,,,,N/A,False
2024-04-02T10:43:52,1.35972144245,-0.11964112999999998,9.96431151205,0.04718933965079669,-0.0016798794050445422,-0.041080687268816536,0.046060000000000004,0.29862,-0.20846,22.5,1,431,318,595,1657,33.1321484375,87146,20.935055001727626,1013.1085235032872,0,,,,N/A,False
2024-04-02T10:43:52,1.2526426310999998,-0.12622139215,9.7818587888,0.04245513405476207,-0.008857545953871223,-0.03802636107782646,0.032060000000000005,0.30338000000000004,-0.21028000000000002,22.5,1,431,318,595,1657,33.1321484375,87146,20.935055001727626,1013.1085235032872,0,,,,N/A,False
2024-04-02T10:43:53,1.3740783780499999,-0.18544375149999998,10.0582297991,0.04245513405476207,-0.0007635815477475193,-0.04016438941151951,0.0413,0.29890000000000005,-0.2044,22.5,0,432,319,596,1660,33.128828125,91792,20.998592521661493,1013.0886802738713,0,,,,N/A,False
2024-04-02T10:43:53,1.2352946672499998,-0.09332008139999999,9.71067231645,0.04230241774521256,-0.004123340357836604,-0.039553524173321496,0.037660000000000006,0.29134000000000004,-0.20132000000000003,22.5,0,432,319,596,1660,32.9208203125,85296,21.11239746501302,1013.1092898076023,0,,,,N/A,False
2024-04-02T10:43:53,1.3824532571500001,-0.11186445655,9.91525864875,0.047952921198544204,-0.00015271630954950385,-0.04016438941151951,0.0371,0.29302000000000006,-0.20860000000000004,22.5,0,432,319,596,1660,32.9208203125,85296,21.11239746501302,1013.1092898076023,0,,,,N/A,False
2024-04-02T10:43:53,1.3052847283,-0.14416756165,9.990034354999999,0.04520402762665314,0.038331793696925465,-0.039095375244672985,0.03486000000000001,0.29974,-0.20846,22.5,0,432,319,596,1660,32.959296875,89837,21.194729700896865,1013.1000789671758,0,,,,N/A,False
2024-04-02T10:43:53,1.2849457361999996,-0.14895320685,9.8201439504,0.040317105721069016,-0.009926560120717751,-0.03787364476827696,0.039900000000000005,0.2933,-0.2079,23.5,1,433,320,598,1663,32.959296875,89837,21.194729700896865,1013.1000789671758,0,,,,N/A,False
2024-04-02T10:43:54,1.3112667848,-0.1639083481,9.750153889349999,0.04520402762665314,-0.009621127501618741,-0.04046982203061852,0.04522,0.29582,-0.21686000000000002,22.5,1,433,320,598,1663,33.164765625,93833,21.256332770606694,1013.0987146498271,0,,,,N/A,False
2024-04-02T10:43:54,1.3088739621999996,-0.11724830739999999,9.869196813699999,0.04428772976935611,0.00045814892864851157,-0.04459316238845512,0.03486000000000001,0.28938,-0.2212,22.5,0,435,322,600,1671,33.164765625,93833,21.256332770606694,1013.0987146498271,0,,,,N/A,False
2024-04-02T10:43:54,1.3136596073999998,-0.10468598874999999,9.78724263965,0.041386119887915546,-0.005039638215133627,-0.03726277953007894,0.04914000000000001,0.30534000000000006,-0.21126000000000003,22.5,0,435,322,600,1671,33.164765625,93833,21.256332770606694,1013.0987146498271,0,,,,N/A,False
2024-04-02T10:43:54,1.3070793452499998,-0.16271193679999998,9.91286582615,0.04718933965079669,-0.00015271630954950385,-0.03436116964863837,0.041580000000000006,0.29442,-0.2121,22.5,0,435,322,600,1671,33.0399609375,88240,21.31189982578837,1013.1093225822287,0,,,,N/A,False
2024-04-02T10:43:54,1.3328021881999996,-0.0729810893,9.838688325549999,0.04459316238845512,0.004123340357836604,-0.04276056667386108,0.04186000000000001,0.29190000000000005,-0.22050000000000003,22.5,0,435,322,600,1671,33.1005078125,92395,21.374561870002314,1013.0928863568525,0,,,,N/A,False
2024-04-02T10:43:54,1.27357982885,-0.06759723845,9.754341328899999,0.04581489286485116,-0.0056505034533316425,-0.04046982203061852,0.0413,0.29890000000000005,-0.20314000000000002,22.5,0,435,322,600,1671,33.1005078125,92395,21.374561870002314,1013.0928863568525,0,,,,N/A,False
2024-04-02T10:43:54,1.3286147486499997,-0.20398812665,9.955338427300001,0.048411070127192715,-0.007788531787024696,-0.03695734691097993,0.03654,0.30898000000000003,-0.2058,22.5,0,435,322,600,1671,33.3221875,95103,21.426783741889132,1013.0926198935076,0,,,,N/A,False
2024-04-02T10:43:54,1.34416809555,-0.12263215824999998,9.884750160599998,0.04489859500755413,0.00045814892864851157,-0.04153883619746505,0.038500000000000006,0.29582,-0.21336000000000002,22.5,0,435,322,600,1671,33.3221875,95103,21.426783741889132,1013.0926198935076,0,,,,N/A,False
2024-04-02T10:43:54,1.3627124707,-0.13818550515,9.82911703515,0.0007635815477475193,-0.005192354524683131,-0.03695734691097993,0.04494000000000001,0.29610000000000003,-0.20818,22.5,0,435,322,600,1671,33.5723828125,97039,21.470340256415472,1013.1008075457829,0,,,,N/A,False
2024-04-02T10:43:55,1.4081761001,-0.16271193679999998,9.98345409285,0.0433714319120591,0.0015271630954950385,-0.038942658935123484,0.0511,0.29610000000000003,-0.20286,22.5,1,438,323,603,1679,33.828046875,98627,21.509004004399813,1013.0905759500997,0,,,,N/A,False
2024-04-02T10:43:55,1.28793676445,-0.1387837108,9.844670382049998,0.04444044607890562,-0.003054326190990077,-0.03756821214917795,0.041580000000000006,0.29162,-0.21658000000000002,22.5,1,438,323,603,1679,33.828046875,98627,21.509004004399813,1013.0905759500997,0,,,,N/A,False
2024-04-02T10:43:55,1.3220344865,-0.17108681589999997,9.90329453575,0.04016438941151951,-0.004886921905584123,-0.038331793696925465,0.03514,0.29358000000000006,-0.20328000000000002,22.5,1,438,323,603,1679,34.0001171875,97997,21.526020080130824,1013.1151177880841,0,,,,N/A,False
2024-04-02T10:43:55,1.34536450685,-0.1734796385,9.994820000199999,0.04321871560250959,0.001069014166846527,-0.04001167310197001,0.046900000000000004,0.30114,-0.20006000000000004,22.5,1,438,323,603,1679,34.1075390625,98627,21.52262044740269,1013.1369644287879,0,,,,N/A,False
2024-04-02T10:43:55,1.2508480141499998,-0.11605189609999998,9.794421107449999,0.03420845333908886,-0.0068722339297276735,-0.04001167310197001,0.037660000000000006,0.3017,-0.20496,22.5,0,440,325,607,1689,34.1075390625,98627,21.52262044740269,1013.1369644287879,0,,,,N/A,False
2024-04-02T10:43:56,1.25443724805,-0.11246266220000001,9.76092159105,0.03726277953007894,-0.004123340357836604,-0.037110063220529434,0.038220000000000004,0.29442,-0.21644000000000002,22.5,0,440,325,607,1689,34.2137890625,100746,21.519142673638846,1013.1369942802364,0,,,,N/A,False
2024-04-02T10:43:56,1.36929273285,-0.1292124204,9.9577312499,0.04306599929296009,-0.003207042500539581,-0.039706240482871004,0.03402,0.29666000000000003,-0.20370000000000002,22.5,0,440,325,607,1689,34.2137890625,100746,21.519142673638846,1013.1369942802364,0,,,,N/A,False
2024-04-02T10:43:56,1.2981062605,-0.13100703735,9.886544777549998,0.04596760917440065,-0.001069014166846527,-0.037110063220529434,0.04494000000000001,0.28686,-0.21168,22.5,0,440,325,607,1689,34.2137890625,100746,21.519142673638846,1013.1369942802364,0,,,,N/A,False
2024-04-02T10:43:56,1.3477573294499998,-0.11066804524999999,9.910473003549999,0.04444044607890562,-0.0025961772623415654,-0.041996985126113565,0.04018000000000001,0.2975,-0.21602000000000002,22.5,1,442,327,610,1699,33.9395703125,93959,21.404361750633516,1013.1570881666595,0,,,,N/A,False
2024-04-02T10:43:56,1.2586246875999998,-0.1363908882,9.774680320999998,0.03634648167278191,-0.01069014166846527,-0.04046982203061852,0.040740000000000005,0.30786,-0.22190000000000004,22.5,1,442,327,610,1699,33.9395703125,93959,21.404361750633516,1013.1570881666595,0,,,,N/A,False
2024-04-02T10:43:57,1.2251251712,-0.16031911419999997,9.9122676205,0.038179077387375956,-0.0070249502392771765,-0.038331793696925465,0.03626000000000001,0.30282000000000003,-0.19306000000000004,22.5,0,445,329,615,1712,33.860859375,97940,21.420408748060098,1013.1387133923824,0,,,,N/A,False
2024-04-02T10:43:57,1.2885349701,-0.11784651304999999,9.7555377402,0.04123340357836604,-0.008857545953871223,-0.038637226316024474,0.03318,0.30758,-0.20076000000000002,22.5,0,445,329,615,1712,33.860859375,97940,21.420408748060098,1013.1387133923824,0,,,,N/A,False
2024-04-02T10:43:57,1.2987044661499998,-0.18544375149999998,9.82911703515,0.04016438941151951,-0.007788531787024696,-0.0357356164345839,0.03234,0.29722000000000004,-0.20566000000000004,22.5,0,445,329,615,1712,33.860859375,97940,21.420408748060098,1013.1387133923824,0,,,,N/A,False
2024-04-02T10:43:57,1.3004990831,-0.12143574694999999,9.891330422749999,0.04291328298341058,-0.006108652381980154,-0.03787364476827696,0.03794,0.29610000000000003,-0.20636000000000002,22.5,0,445,329,615,1712,33.4989453125,91196,21.305340931496367,1013.1486386030393,0,,,,N/A,False
2024-04-02T10:43:57,1.34536450685,-0.17048861024999998,10.04925671435,0.048716502746291725,-0.0035124751196385882,-0.037110063220529434,0.03458000000000001,0.29302000000000006,-0.21532,23.5,0,445,329,615,1712,33.4989453125,91196,21.305340931496367,1013.1486386030393,0,,,,N/A,False
2024-04-02T10:43:58,1.31306140175,-0.1328016543,9.905089152699999,0.041844268816564056,-0.0012217304763960308,-0.038942658935123484,0.032060000000000005,0.29946000000000006,-0.20104000000000002,22.5,1,446,331,618,1720,33.4091015625,94011,21.336633646779944,1013.1299721550256,0,,,,N/A,False
2024-04-02T10:43:58,1.3328021881999996,-0.19800607015,9.850652438549998,0.03787364476827696,-0.0044287729769356115,-0.03695734691097993,0.03374,0.30058,-0.21658000000000002,22.5,1,446,331,618,1720,33.4091015625,94011,21.336633646779944,1013.1299721550256,0,,,,N/A,False
2024-04-02T10:43:58,1.4009976322999997,-0.1579262916,9.8273224182,0.04382958084070761,0.0007635815477475193,-0.03741549583962844,0.04354000000000001,0.30058,-0.20762000000000003,22.5,1,446,331,618,1720,33.4091015625,94011,21.336633646779944,1013.1299721550256,0,,,,N/A,False
2024-04-02T10:43:58,1.3363914221,-0.18544375149999998,10.046863891749998,0.04092797095926703,-0.0006108652381980154,-0.038789942625573975,0.04494000000000001,0.29414000000000007,-0.21224,23.5,0,448,332,622,1732,33.0813671875,87056,21.3199969758108,1013.1355144254143,0,,,,N/A,False
2024-04-02T10:43:58,1.2819547079499998,-0.07776673449999999,9.77767134925,0.041996985126113565,-0.0022907446432425577,-0.038331793696925465,0.03486000000000001,0.29498,-0.20566000000000004,22.5,0,448,332,622,1732,33.0813671875,87056,21.3199969758108,1013.1355144254143,0,,,,N/A,False
2024-04-02T10:43:59,1.3064811395999998,-0.15433705769999997,9.8931250397,0.038484510006474966,-0.008399397025222712,-0.03130684345764829,0.035980000000000005,0.30002000000000006,-0.20412000000000002,22.5,1,450,333,626,1741,33.0372265625,92294,21.35966090058237,1013.1156686334015,0,,,,N/A,False
2024-04-02T10:43:59,1.2675977723499998,-0.08015955709999999,9.695118969549998,0.039706240482871004,-0.005803219762881146,-0.03756821214917795,0.030380000000000004,0.29554,-0.20902,22.5,1,450,333,626,1741,33.0372265625,92294,21.35966090058237,1013.1156686334015,0,,,,N/A,False
2024-04-02T10:43:59,1.33938245035,-0.1698904046,9.6622176588,0.04489859500755413,-0.011301006906663285,-0.041386119887915546,0.04242,0.29162,-0.20258,22.5,1,450,333,626,1741,33.0372265625,92294,21.35966090058237,1013.1156686334015,0,,,,N/A,False
2024-04-02T10:43:59,1.2681959779999998,-0.09750752095,9.88295554365,0.0435241482216086,-0.0003054326190990077,-0.041844268816564056,0.03122,0.27986,-0.19082000000000002,22.5,1,450,333,626,1741,32.8591015625,87056,21.379688968672674,1013.127358981235,0,,,,N/A,False
2024-04-02T10:43:59,1.29750805485,-0.14955141249999998,9.789635462249999,0.03741549583962844,-0.008246680715673207,-0.03665191429188092,0.037380000000000004,0.30058,-0.19950000000000004,22.5,1,450,333,626,1741,32.8591015625,87056,21.379688968672674,1013.127358981235,0,,,,N/A,False
2024-04-02T10:43:59,1.2939188209499997,-0.08434699664999999,9.7998049583,0.04474587869800463,-0.002901609881440573,-0.04016438941151951,0.028980000000000002,0.29134000000000004,-0.21924000000000002,22.5,1,450,333,626,1741,32.9051953125,91295,21.436063651112253,1013.1179944856123,0,,,,N/A,False
2024-04-02T10:43:59,1.3668999102499997,-0.13339985995,9.990034354999999,0.04382958084070761,-0.0013744467859455349,-0.038942658935123484,0.04242,0.29554,-0.2044,22.5,1,450,333,626,1741,32.9051953125,91295,21.436063651112253,1013.1179944856123,0,,,,N/A,False
2024-04-02T10:43:59,1.3160524299999998,-0.21355941705,9.9242317335,0.04382958084070761,-0.005345070834232635,-0.03787364476827696,0.03794,0.29386,-0.20146,22.5,1,450,333,626,1741,33.1216015625,95103,21.48261638318269,1013.1129243806267,0,,,,N/A,False
2024-04-02T10:43:59,1.2969098491999997,-0.0634097989,9.7950193131,0.038789942625573975,-0.006108652381980154,-0.038179077387375956,0.039900000000000005,0.29582,-0.20734000000000002,22.5,1,450,333,626,1741,33.1216015625,95103,21.48261638318269,1013.1129243806267,0,,,,N/A,False
2024-04-02T10:44:00,1.3591232368,-0.10408778309999998,9.87218784195,0.041996985126113565,0.0018325957145940463,-0.038484510006474966,0.0357,0.29638000000000003,-0.19642,22.5,0,450,333,627,1747,33.39640625,96318,21.533193439123064,1013.1110445685908,0,,,,N/A,False
2024-04-02T10:44:00,1.3603196481,-0.17048861024999998,9.980463064599999,0.04566217655530165,-0.003054326190990077,-0.03543018381548489,0.043820000000000005,0.29638000000000003,-0.21154000000000003,22.5,0,450,333,627,1747,33.39640625,96318,21.533193439123064,1013.1110445685908,0,,,,N/A,False
2024-04-02T10:44:00,1.36809632155,-0.13938191645,9.88295554365,0.04291328298341058,0.0038179077387375964,-0.03726277953007894,0.04046,0.30254000000000003,-0.21364000000000002,22.5,0,450,333,627,1747,33.39640625,96318,21.533193439123064,1013.1110445685908,0,,,,N/A,False
2024-04-02T10:44:00,1.3890335192999999,-0.14356935599999998,9.945767136899999,0.0476474885794452,-0.0016798794050445422,-0.04077525464971753,0.037380000000000004,0.2975,-0.19852,22.5,0,450,333,627,1747,33.3743359375,93211,21.515683927959905,1013.1345078419673,0,,,,N/A,False
2024-04-02T10:44:00,1.2771690627499999,-0.10348957745,9.742975421549998,0.039706240482871004,-0.009315694882519735,-0.03665191429188092,0.039900000000000005,0.28518,-0.21056000000000002,22.5,0,450,333,627,1747,33.3743359375,93211,21.515683927959905,1013.1345078419673,0,,,,N/A,False
2024-04-02T10:44:01,1.3549357972499998,-0.18125631194999997,9.8153583052,0.039553524173321496,-0.008552113334772215,-0.038179077387375956,0.030380000000000004,0.29414000000000007,-0.19824,22.5,1,453,336,632,1761,33.4536328125,95447,21.542406414019343,1013.130556498843,0,,,,N/A,False
2024-04-02T10:44:01,1.2550354536999997,-0.08135596839999999,9.713663344699999,0.04474587869800463,-0.004123340357836604,-0.04214970143566306,0.03794,0.30114,-0.20818,22.5,0,453,336,634,1766,33.4536328125,95447,21.542406414019343,1013.130556498843,0,,,,N/A,False
2024-04-02T10:44:01,1.3082757565499998,-0.00658026215,9.758528768449999,0.04214970143566306,-0.010842857978014774,-0.03756821214917795,0.03122,0.29834000000000005,-0.20706000000000002,22.5,0,453,336,634,1766,33.4536328125,95447,21.542406414019343,1013.130556498843,0,,,,N/A,False
2024-04-02T10:44:01,1.2550354536999997,-0.11545369045,9.746564655449998,0.07742716894159844,-0.008857545953871223,-0.038484510006474966,0.029820000000000003,0.2975,-0.20804000000000003,22.5,0,453,336,634,1766,33.16984375,89078,21.50720964497302,1013.1304425215117,0,,,,N/A,False
2024-04-02T10:44:01,1.30349011135,-0.16689937635,10.0115697584,0.04612032548395016,-0.0018325957145940463,-0.04001167310197001,0.03682,0.2905,-0.20510000000000003,22.5,0,453,336,634,1766,33.16984375,89078,21.50720964497302,1013.1304425215117,0,,,,N/A,False
2024-04-02T10:44:02,1.4548361408000001,-0.09511469834999998,9.873384253249998,0.04260785036431157,0.00045814892864851157,-0.038484510006474966,0.03682,0.29078000000000004,-0.20384000000000002,22.5,1,454,337,636,1773,33.14015625,93418,21.542558887045082,1013.1125918329873,0,,,,N/A,False
2024-04-02T10:44:02,1.3387842447,-0.1950150419,9.95593663295,0.040622538340168025,-0.011606439525762293,-0.03787364476827696,0.037660000000000006,0.29162,-0.21756000000000003,22.5,1,454,337,636,1773,33.14015625,93418,21.542558887045082,1013.1125918329873,0,,,,N/A,False
2024-04-02T10:44:02,1.3417752729499999,-0.09391828705,9.911669414849998,0.04123340357836604,-0.00015271630954950385,-0.07788531787024697,0.04046,0.29414000000000007,-0.21798,22.5,1,454,337,636,1773,33.14015625,93418,21.542558887045082,1013.1125918329873,0,,,,N/A,False
2024-04-02T10:44:02,1.5020943871499999,-0.11964112999999998,10.028917722249998,0.048716502746291725,-0.0013744467859455349,-0.04046982203061852,0.03794,0.29638000000000003,-0.20860000000000004,22.5,1,454,337,636,1773,32.8950390625,86788,21.531348071551545,1013.1212192757109,0,,,,N/A,False
2024-04-02T10:44:02,1.2927224096499998,-0.07118647234999999,9.8380901199,0.041996985126113565,-0.0003054326190990077,-0.03466660226773738,0.033460000000000004,0.30282000000000003,-0.20454000000000003,22.5,1,454,337,636,1773,32.903828125,91493,21.601295820988952,1013.0995440993325,0,,,,N/A,False
2024-04-02T10:44:03,1.31545422435,-0.09571290399999999,9.8249295956,0.04092797095926703,-0.011759155835311796,-0.039706240482871004,0.034300000000000004,0.29806,-0.20356000000000002,22.5,0,455,337,638,1778,33.10265625,94889,21.646794779213277,1013.0981982680563,0,,,,N/A,False
2024-04-02T10:44:03,1.3088739621999996,-0.1339980656,10.012766169699999,0.04657847441259867,0.005039638215133627,-0.04046982203061852,0.035980000000000005,0.30254000000000003,-0.19390000000000002,22.5,0,457,339,641,1788,33.10265625,94889,21.646794779213277,1013.0981982680563,0,,,,N/A,False
2024-04-02T10:44:03,1.2646067441,-0.0897308475,9.8189475391,0.04474587869800463,-0.0025961772623415654,-0.039095375244672985,0.030940000000000002,0.29834000000000005,-0.21602000000000002,22.5,0,457,339,641,1788,33.10265625,94889,21.646794779213277,1013.0981982680563,0,,,,N/A,False
2024-04-02T10:44:03,1.3052847283,-0.11485548479999999,9.873384253249998,0.04505131131710364,-0.003970624048287101,-0.04612032548395016,0.030380000000000004,0.28826000000000007,-0.20468,22.5,0,457,339,641,1788,32.906953125,87690,21.628192264694487,1013.1064520275482,0,,,,N/A,False
2024-04-02T10:44:03,1.2825529135999998,-0.11066804524999999,9.7435736272,0.041386119887915546,-0.008399397025222712,-0.036804630601430424,0.033460000000000004,0.28714000000000006,-0.20118,22.5,0,457,339,641,1788,32.906953125,87690,21.628192264694487,1013.1064520275482,0,,,,N/A,False
2024-04-02T10:44:04,1.3411770672999999,-0.17168502154999998,9.993025383249998,0.0435241482216086,-0.010231992739816757,-0.038484510006474966,0.043820000000000005,0.28658000000000006,-0.2121,22.5,0,458,340,644,1795,32.9378125,92395,21.678332945984675,1013.0847982465515,0,,,,N/A,False
2024-04-02T10:44:04,1.3064811395999998,-0.1280160091,9.826724212550001,0.0433714319120591,-0.010537425358915765,-0.07727445263204895,0.030100000000000002,0.28714000000000006,-0.20034000000000002,22.5,0,458,340,644,1795,32.9378125,92395,21.678332945984675,1013.0847982465515,0,,,,N/A,False
2024-04-02T10:44:04,1.3124631961,-0.19322042494999997,9.895517862299998,0.04260785036431157,-0.0015271630954950385,-0.04092797095926703,0.03178,0.29638000000000003,-0.2058,22.5,0,458,340,644,1795,32.9378125,92395,21.678332945984675,1013.0847982465515,0,,,,N/A,False
2024-04-02T10:44:04,1.2921242039999998,-0.10289137179999999,9.748359272399998,0.041386119887915546,-0.007177666548826681,-0.04123340357836604,0.03962,0.30422000000000005,-0.19334000000000004,22.5,0,458,340,644,1795,32.788203125,86432,21.71089724461103,1013.0961769394582,0,,,,N/A,False
2024-04-02T10:44:04,1.2604193045499996,-0.08434699664999999,9.7340023368,0.038179077387375956,-0.007941248096574201,-0.03527746750593539,0.04102,0.3073,-0.20552,22.5,0,458,340,644,1795,32.788203125,86432,21.71089724461103,1013.0961769394582,0,,,,N/A,False
2024-04-02T10:44:04,1.31545422435,-0.07776673449999999,9.85424167245,0.04596760917440065,-0.0003054326190990077,-0.04321871560250959,0.042980000000000004,0.30310000000000004,-0.20454000000000003,22.5,0,458,340,644,1795,32.8399609375,88148,21.778510919469955,1013.1032882599116,0,,,,N/A,False
2024-04-02T10:44:04,1.33579321645,-0.19621145319999997,9.955338427300001,0.04321871560250959,-0.0056505034533316425,-0.03695734691097993,0.025900000000000003,0.30562,-0.20944000000000002,22.5,0,458,340,644,1795,32.8399609375,88148,21.778510919469955,1013.1032882599116,0,,,,N/A,False
2024-04-02T10:44:04,1.3674981158999997,-0.19860427579999998,9.97986485895,0.04489859500755413,-0.0036651914291880926,-0.03695734691097993,0.03458000000000001,0.30086,-0.20986000000000002,22.5,1,460,341,646,1801,32.8399609375,88148,21.778510919469955,1013.1032882599116,0,,,,N/A,False
2024-04-02T10:44:04,1.34656091815,-0.1447657673,10.0163554036,0.043676864531158106,0.0016798794050445422,-0.038942658935123484,0.030100000000000002,0.29638000000000003,-0.21196,22.5,1,460,341,646,1801,32.9958203125,92395,21.84794138437193,1013.0894714878019,0,,,,N/A,False
2024-04-02T10:44:05,1.3112667848,-0.10109675484999998,9.750752095,0.04566217655530165,-0.005192354524683131,-0.038179077387375956,0.04046,0.29526,-0.20944000000000002,22.5,1,460,341,646,1801,33.2540234375,94169,21.908427608865026,1013.0912739258191,0,,,,N/A,False
2024-04-02T10:44:05,1.3573286198499999,-0.17886348935000002,10.0115697584,0.04581489286485116,0.0019853120241435504,-0.04123340357836604,0.0427,0.29358000000000006,-0.21308000000000002,22.5,1,460,341,646,1801,33.374140625,93418,21.92202999495691,1013.1197639688166,0,,,,N/A,False
2024-04-02T10:44:05,1.2885349701,-0.1459621786,9.927222761749999,0.039858956792420505,-0.00595593607243065,-0.0006108652381980154,0.03682,0.28434000000000004,-0.21546,22.5,1,460,341,646,1801,33.374140625,93418,21.92202999495691,1013.1197639688166,0,,,,N/A,False
2024-04-02T10:44:05,1.3304093655999998,-0.14656038424999998,9.7340023368,0.038637226316024474,-0.002138028333693054,-0.036499197982331415,0.04018000000000001,0.28714000000000006,-0.19278000000000003,22.5,1,460,340,646,1803,33.514765625,94910,21.95312944269139,1013.1131508949769,0,,,,N/A,False
2024-04-02T10:44:05,1.3501501520499999,-0.09990034354999999,9.88774118885,0.04260785036431157,0.0,-0.041996985126113565,0.03626000000000001,0.29666000000000003,-0.20398000000000002,22.5,1,460,340,646,1803,33.514765625,94910,21.95312944269139,1013.1131508949769,0,,,,N/A,False
2024-04-02T10:44:06,1.3172488412999999,-0.16689937635,9.835697297299998,0.039553524173321496,-0.006414085001079162,-0.036804630601430424,0.03682,0.29190000000000005,-0.19754000000000002,22.5,0,461,342,650,1811,33.720234375,98110,21.994099076462827,1013.1076610522275,0,,,,N/A,False
2024-04-02T10:44:06,1.2263215824999998,-0.12263215824999998,9.7244310464,0.04642575810304917,-0.012980886311707827,-0.03481931857728687,0.03626000000000001,0.29190000000000005,-0.20244000000000004,22.5,0,461,342,650,1811,33.720234375,98110,21.994099076462827,1013.1076610522275,0,,,,N/A,False
2024-04-02T10:44:06,1.27357982885,-0.1782652837,9.8632147572,0.039553524173321496,-0.010537425358915765,-0.03512475119638588,0.032900000000000006,0.29414000000000007,-0.2093,22.5,0,461,342,650,1811,33.720234375,98110,21.994099076462827,1013.1076610522275,0,,,,N/A,False
2024-04-02T10:44:06,1.3106685791500001,-0.10408778309999998,9.712466933399998,0.03726277953007894,-0.011759155835311796,-0.04276056667386108,0.032060000000000005,0.29778000000000004,-0.21084000000000003,22.5,0,461,342,650,1811,33.4282421875,91000,21.86684623097552,1013.1179495731175,0,,,,N/A,False
2024-04-02T10:44:06,1.3800604345499998,-0.18005990065000002,10.05763159345,0.04596760917440065,-0.006261368691529657,-0.041080687268816536,0.03654,0.29638000000000003,-0.20370000000000002,23.5,0,461,342,650,1811,33.4282421875,91000,21.86684623097552,1013.1179495731175,0,,,,N/A,False
2024-04-02T10:44:07,1.29990087745,-0.09032905315,9.851250644199999,0.04077525464971753,-0.004123340357836604,-0.036193765363232405,0.03234,0.2947000000000001,-0.20216000000000003,23.5,0,462,343,652,1818,33.376875,93802,21.8900906971758,1013.1116073649864,0,,,,N/A,False
2024-04-02T10:44:07,1.31425781305,-0.14117653339999997,9.945168931249999,0.04505131131710364,-0.0019853120241435504,-0.04413501345980661,0.03654,0.2933,-0.2121,22.5,0,462,343,652,1818,33.376875,93802,21.8900906971758,1013.1116073649864,0,,,,N/A,False
2024-04-02T10:44:07,1.3064811395999998,-0.0849452023,9.822536773,0.041691552507014555,-0.0054977871437821395,-0.039706240482871004,0.032900000000000006,0.29862,-0.21000000000000002,22.5,0,462,343,652,1818,33.376875,93802,21.8900906971758,1013.1116073649864,0,,,,N/A,False
2024-04-02T10:44:07,1.3172488412999999,-0.12382856954999999,9.8799645154,0.04535674393620265,0.0007635815477475193,-0.04092797095926703,0.028980000000000002,0.29974,-0.19754000000000002,22.5,0,462,343,652,1818,33.1434765625,89267,21.820596760025264,1013.1180154998667,0,,,,N/A,False
2024-04-02T10:44:07,1.2634103328,-0.14057832774999998,9.8452685877,0.038789942625573975,-0.0038179077387375964,-0.03802636107782646,0.028140000000000005,0.28938,-0.22414,23.5,0,462,343,652,1818,33.1434765625,89267,21.820596760025264,1013.1180154998667,0,,,,N/A,False
2024-04-02T10:44:08,1.3339985995,-0.13938191645,9.82911703515,0.0433714319120591,-0.00595593607243065,-0.03756821214917795,0.03486000000000001,0.29246000000000005,-0.20608,22.5,1,464,344,655,1828,33.1395703125,93938,21.84172438460488,1013.0936100004833,0,,,,N/A,False
2024-04-02T10:44:08,1.2795618853499997,-0.07357929495,9.84706320465,0.043982297150257116,0.0007635815477475193,-0.041386119887915546,0.03178,0.29162,-0.21546,22.5,1,464,344,655,1828,33.1395703125,93938,21.84172438460488,1013.0936100004833,0,,,,N/A,False
2024-04-02T10:44:08,1.2723834175499997,-0.13998012209999997,9.76690364755,0.03420845333908886,-0.006566801310628666,-0.03481931857728687,0.04494000000000001,0.29554,-0.21126000000000003,22.5,1,464,344,655,1828,33.1395703125,93938,21.84172438460488,1013.0936100004833,0,,,,N/A,False
2024-04-02T10:44:08,1.2604193045499996,-0.11246266220000001,9.739386187649998,0.039400807863771994,-0.008093964406123704,-0.03497203488683638,0.029540000000000004,0.29806,-0.22568000000000005,23.5,1,464,344,655,1828,32.86828125,86344,21.748383320810692,1013.1045230702895,0,,,,N/A,False
2024-04-02T10:44:08,1.3178470469499999,-0.19980068709999999,10.0115697584,0.04734205596034619,-0.007941248096574201,-0.038331793696925465,0.03654,0.30086,-0.22022000000000003,22.5,1,464,344,655,1828,32.86828125,86344,21.748383320810692,1013.1045230702895,0,,,,N/A,False
2024-04-02T10:44:09,1.3070793452499998,-0.09032905315,10.066006472549999,0.0435241482216086,0.002901609881440573,-0.04092797095926703,0.032900000000000006,0.3003,-0.21574000000000002,23.5,1,464,344,655,1830,32.8673046875,91098,21.7857164069137,1013.0885135329904,0,,,,N/A,False
2024-04-02T10:44:09,1.3268201317,-0.18245272324999998,10.0319087505,0.04886921905584123,-0.0027488935718910697,-0.03802636107782646,0.03542,0.30310000000000004,-0.21952000000000002,22.5,1,464,344,655,1830,32.8673046875,91098,21.7857164069137,1013.0885135329904,0,,,,N/A,False
2024-04-02T10:44:09,1.33938245035,-0.13459627124999998,9.861420140249999,0.04657847441259867,0.0003054326190990077,-0.04260785036431157,0.03458000000000001,0.30198,-0.21280000000000002,22.5,1,464,344,655,1830,32.8673046875,91098,21.7857164069137,1013.0885135329904,0,,,,N/A,False
2024-04-02T10:44:09,1.3477573294499998,-0.21355941705,9.8799645154,0.04077525464971753,-0.00595593607243065,-0.03604104905368291,0.03486000000000001,0.28826000000000007,-0.22316000000000003,23.5,1,464,344,655,1830,32.724140625,86167,21.74392549647071,1013.1067732852212,0,,,,N/A,False
2024-04-02T10:44:09,1.3890335192999999,-0.13579268255,9.97866844765,0.04596760917440065,-0.004886921905584123,-0.03802636107782646,0.03458000000000001,0.30310000000000004,-0.2058,22.5,1,464,344,655,1830,32.724140625,86167,21.74392549647071,1013.1067732852212,0,,,,N/A,False
2024-04-02T10:44:09,1.3914263418999997,-0.19621145319999997,9.972686391149999,0.0433714319120591,-0.005803219762881146,-0.07773260156069746,0.03962,0.29862,-0.22288000000000002,23.5,1,464,344,655,1830,32.7942578125,91295,21.780742053024934,1013.0862546355361,0,,,,N/A,False
2024-04-02T10:44:09,1.3375878333999998,-0.13220344865,9.802197780899998,0.04245513405476207,-0.0054977871437821395,-0.04001167310197001,0.030940000000000002,0.29806,-0.21042000000000002,22.5,1,464,344,655,1830,32.7942578125,91295,21.780742053024934,1013.0862546355361,0,,,,N/A,False
2024-04-02T10:44:09,1.2705888005999997,-0.11365907349999999,9.835697297299998,0.03787364476827696,-0.008857545953871223,-0.03741549583962844,0.02926,0.30254000000000003,-0.21798,22.5,1,464,344,656,1833,32.7942578125,91295,21.780742053024934,1013.0862546355361,0,,,,N/A,False
2024-04-02T10:44:09,1.3112667848,-0.1280160091,9.844670382049998,0.04001167310197001,-0.007635815477475193,-0.036499197982331415,0.03654,0.2905,-0.21518,22.5,1,464,344,656,1833,33.029609375,94253,21.80212688784887,1013.0924114413522,0,,,,N/A,False
2024-04-02T10:44:10,1.24965160285,-0.1363908882,9.757930562799999,0.03726277953007894,-0.006719517620178169,-0.0355829001250344,0.03486000000000001,0.29386,-0.22078000000000003,23.5,1,464,344,656,1833,33.3227734375,96484,21.83820996488561,1013.0935767711857,0,,,,N/A,False
2024-04-02T10:44:10,1.2753744458,-0.0897308475,9.8979106849,0.04291328298341058,-0.0015271630954950385,-0.04016438941151951,0.03878,0.29218,-0.21126000000000003,23.5,0,465,345,658,1838,33.3227734375,96484,21.83820996488561,1013.0935767711857,0,,,,N/A,False
2024-04-02T10:44:10,1.2430713406999998,-0.0897308475,9.7399843933,0.04046982203061852,-0.01114829059711378,-0.03741549583962844,0.03654,0.30058,-0.19936,23.5,0,465,345,658,1838,33.3227734375,96484,21.83820996488561,1013.0935767711857,0,,,,N/A,False
2024-04-02T10:44:10,1.2430713406999998,-0.08673981925,9.750153889349999,0.039553524173321496,-0.007788531787024696,-0.03344487179134134,0.03794,0.3017,-0.2023,23.5,0,465,345,658,1838,33.2161328125,91196,21.74534811835857,1013.1159195312096,0,,,,N/A,False
2024-04-02T10:44:10,1.3657034989499999,-0.16630117069999997,9.9577312499,0.039553524173321496,-0.0007635815477475193,-0.03481931857728687,0.03458000000000001,0.2947000000000001,-0.20202,23.5,0,465,345,658,1838,33.2161328125,91196,21.74534811835857,1013.1159195312096,0,,,,N/A,False
2024-04-02T10:44:11,1.3399806559999998,-0.13698909385,9.865607579799999,0.04291328298341058,0.0016798794050445422,-0.039706240482871004,0.04242,0.3003,-0.21252000000000001,23.5,1,465,345,659,1840,33.2716015625,95317,21.75982395189416,1013.1019544424582,0,,,,N/A,False
2024-04-02T10:44:11,1.3818550515,-0.20219350969999997,9.97866844765,0.048411070127192715,-0.003970624048287101,-0.03695734691097993,0.03682,0.29218,-0.20538000000000003,23.5,1,465,345,659,1840,33.2716015625,95317,21.75982395189416,1013.1019544424582,0,,,,N/A,False
2024-04-02T10:44:11,1.34656091815,-0.12442677519999999,10.006784113199998,0.0435241482216086,0.0007635815477475193,-0.03481931857728687,0.030660000000000003,0.29582,-0.21854,23.5,1,465,345,659,1840,33.2716015625,95317,21.75982395189416,1013.1019544424582,0,,,,N/A,False
2024-04-02T10:44:11,1.4051850718499999,-0.14057832774999998,10.104291634149998,0.043676864531158106,-0.002901609881440573,-0.039706240482871004,0.03402,0.29554,-0.20804000000000003,23.5,1,465,345,659,1840,33.076484375,88891,21.6984331328438,1013.1077123883201,0,,,,N/A,False
2024-04-02T10:44:11,1.31425781305,-0.09511469834999998,9.76092159105,0.04321871560250959,0.0015271630954950385,-0.03787364476827696,0.03486000000000001,0.29638000000000003,-0.20118,22.5,1,465,345,659,1840,33.076484375,88891,21.6984331328438,1013.1077123883201,0,,,,N/A,False
2024-04-02T10:44:12,1.3088739621999996,-0.1950150419,9.843473970749999,0.041996985126113565,-0.007330382858376185,-0.03756821214917795,0.03542,0.29722000000000004,-0.21896000000000002,23.5,1,467,346,660,1845,33.098359375,93211,21.715949475969783,1013.0911791760706,0,,,,N/A,False
2024-04-02T10:44:12,1.2963116435499997,-0.10408778309999998,9.802197780899998,0.04703662334124718,0.0035124751196385882,-0.038637226316024474,0.038220000000000004,0.2947000000000001,-0.20524,23.5,1,467,346,660,1845,32.87765625,86610,21.706290649644913,1013.1036263353027,0,,,,N/A,False
2024-04-02T10:44:12,1.3800604345499998,-0.20518453794999997,10.112666513249998,0.04734205596034619,-0.006719517620178169,-0.04077525464971753,0.04046,0.29582,-0.21168,22.5,1,467,346,660,1845,32.87765625,86610,21.706290649644913,1013.1036263353027,0,,,,N/A,False
2024-04-02T10:44:12,1.35373938595,-0.17647066675,9.88893760015,0.04276056667386108,-0.004276056667386108,-0.039095375244672985,0.03318,0.30086,-0.21322000000000002,22.5,1,467,346,661,1848,32.9044140625,90902,21.75618410749847,1013.0878887017534,0,,,,N/A,False
