Timestamp,Accel_X,Accel_Y,Accel_Z,Gyro_X,Gyro_Y,Gyro_Z,Mag_X,Mag_Y,Mag_Z,LSM9DS1_Temp,Proximity,Color_R,Color_G,Color_B,Color_C,BME680_Temp,Gas,Humidity,Pressure,Switch_Pressed,GPS_Latitude,GPS_Longitude,GPS_Speed,GPS_Timestamp
2024-03-25T15:19:11,-3.2321051269499996,1.5517454561000001,9.6035935051,0.03512475119638588,0.00473420559603462,-0.03543018381548489,0.16002000000000002,0.23058,-0.44338000000000005,7.5,0,0,0,0,0,33.574921875,89078,100,695.662002676745,0,40.689405,-73.991995,,17:26:23
2024-03-25T15:19:11,-3.2279176873999997,1.5804593272999998,9.553344230499999,0.03420845333908886,0.0027488935718910697,-0.03634648167278191,0.16702,0.23394000000000004,-0.43722000000000005,7.5,0,0,0,0,0,33.574921875,89078,100,695.662002676745,0,40.689405,-73.991995,,17:26:23
2024-03-25T15:19:11,-3.19621278795,1.5583257182499999,9.5653083435,0.03741549583962844,0.005345070834232635,-0.03604104905368291,0.16506,0.22386,-0.43302,7.5,0,0,0,0,0,33.574921875,89078,100,695.662002676745,0,40.689405,-73.991995,,17:26:23
2024-03-25T15:19:11,-3.2368907721499993,1.58464676685,9.583254513,0.03604104905368291,0.0054977871437821395,-0.03741549583962844,0.16058,0.2233,-0.4438000000000001,7.5,1,9351,8981,14109,33950,33.574921875,89078,100,695.662002676745,0,40.689405,-73.991995,,17:26:23
2024-03-25T15:19:11,-3.2147571630999994,1.58464676685,9.56949578305,0.03466660226773738,0.0013744467859455349,-0.0355829001250344,0.1589,0.23170000000000002,-0.44982000000000005,7.5,1,9351,8981,14109,33950,13.2628125,3813,26.56020829094467,1027.4741462673162,0,40.689405,-73.991995,,17:26:23
2024-03-25T15:19:11,-3.22373024785,1.5912270289999997,9.567102960449999,0.03634648167278191,0.0038179077387375964,-0.03420845333908886,0.15834,0.22274000000000002,-0.43904000000000004,7.5,1,9351,8981,14109,33950,13.2628125,3813,26.56020829094467,1027.4741462673162,0,40.689405,-73.991995,,17:26:23
2024-03-25T15:19:11,-3.1998020218499996,1.56311136345,9.62213788025,0.03359758810089085,0.0016798794050445422,-0.03481931857728687,0.15750000000000003,0.22050000000000003,-0.43288000000000004,7.5,1,9351,8981,14109,33950,13.2628125,3813,26.56020829094467,1027.4741462673162,0,40.689405,-73.991995,,17:26:23
2024-03-25T15:19:11,-3.1884361144999995,1.5930216459499997,9.59581683165,0.03252857393404432,-0.0013744467859455349,-0.036499197982331415,0.15554,0.22358,-0.4529,7.5,1,9351,8981,14109,33950,13.2628125,3813,26.56020829094467,1027.4741462673162,0,40.689171,-73.991698,2.04,19:19:11
2024-03-25T15:19:11,-3.2147571630999994,1.5714862425499996,9.5688975774,0.03924809155422249,0.004581489286485115,-0.02977968036215325,0.16534000000000001,0.22806000000000004,-0.44506000000000007,7.5,1,9351,8981,14109,33950,13.4993359375,4835,26.624613774591882,1027.4412096191447,0,40.689171,-73.991698,2.04,19:19:11
2024-03-25T15:19:11,-3.1160532308499995,1.5637095691,9.597013242949998,0.03497203488683638,0.002138028333693054,-0.036499197982331415,0.16338000000000003,0.22694000000000003,-0.44394000000000006,7.5,1,9351,8981,14109,33950,13.4993359375,4835,26.624613774591882,1027.4412096191447,0,40.68917,-73.991696,2.04,19:19:12
2024-03-25T15:19:12,-3.2171499857,1.5912270289999997,9.5916293921,0.03527746750593539,0.00595593607243065,-0.0319177086958463,0.16618,0.22218000000000004,-0.44226000000000004,7.5,0,9352,8979,14110,33960,13.8971875,5841,26.695013206207772,1027.4274782590321,0,40.68917,-73.991696,2.04,19:19:12
2024-03-25T15:19:12,-3.21535536875,1.5756736821,9.561120903949998,0.03741549583962844,0.0036651914291880926,-0.0355829001250344,0.15526,0.22414,-0.43708,7.5,0,9352,8979,14110,33960,13.8971875,5841,26.695013206207772,1027.4274782590321,0,40.68917,-73.991696,2.04,19:19:12
2024-03-25T15:19:12,-3.2081769009499994,1.5732808595,9.5724868113,0.04001167310197001,0.0038179077387375964,-0.037110063220529434,0.16058,0.23002,-0.4501,7.5,0,9352,8979,14110,33960,13.8971875,5841,26.695013206207772,1027.4274782590321,0,40.68917,-73.991696,2.07,19:19:12
2024-03-25T15:19:12,-3.08135730315,1.5996019081,9.55992449265,0.03237585762449482,0.005345070834232635,-0.038484510006474966,0.16058,0.23114,-0.43918000000000007,7.5,0,9352,8979,14110,33960,13.8971875,5841,26.695013206207772,1027.4274782590321,0,40.68917,-73.991696,2.07,19:19:12
2024-03-25T15:19:12,-3.23090871565,1.5822539442499999,9.5880401582,0.03695734691097993,0.00473420559603462,-0.036804630601430424,0.16282000000000002,0.23534000000000002,-0.44352,7.5,0,9352,8979,14110,33960,13.867109375,6378,26.4951368568647,1027.4518056163952,0,40.689166,-73.991691,2.07,19:19:13
2024-03-25T15:19:13,-3.2297123043499996,1.5702898312499998,9.595218626,0.038637226316024474,0.0016798794050445422,-0.03604104905368291,0.16870000000000002,0.22498,-0.43932000000000004,7.5,1,9347,8974,14097,33935,14.058125,7761,26.54578003896621,1027.4321804954361,0,40.689166,-73.991691,2.07,19:19:13
2024-03-25T15:19:13,-3.2171499857,1.5864413838,9.552746024849998,0.03604104905368291,0.0035124751196385882,-0.03466660226773738,0.15554,0.22610000000000002,-0.43484,7.5,1,9347,8974,14097,33935,14.058125,7761,26.54578003896621,1027.4321804954361,0,40.689166,-73.991691,2.07,19:19:13
2024-03-25T15:19:13,-3.2267212760999997,1.5822539442499999,9.534201649699998,0.039095375244672985,0.004276056667386108,-0.03436116964863837,0.16142,0.23366000000000003,-0.4424,7.5,1,9347,8974,14097,33935,14.058125,7761,26.54578003896621,1027.4321804954361,0,40.689166,-73.991691,2.07,19:19:13
2024-03-25T15:19:13,-3.2380871834499994,1.5661023916999999,9.57667425085,0.03634648167278191,0.003207042500539581,-0.036499197982331415,0.16142,0.23198000000000002,-0.44716,7.5,1,9347,8974,14097,33935,14.058125,7761,26.54578003896621,1027.4321804954361,0,40.689166,-73.991691,2.07,19:19:13
2024-03-25T15:19:13,-3.22014101395,1.5936198515999997,9.51924650845,0.04046982203061852,0.002901609881440573,-0.03695734691097993,0.1673,0.23058,-0.43442000000000003,7.5,1,9347,8974,14097,33935,14.0016796875,8446,26.360278598835734,1027.4521493802279,0,40.689166,-73.991691,2.07,19:19:13
2024-03-25T15:19:13,-3.2189446026499997,1.5361921092,9.5294160045,0.03695734691097993,0.0006108652381980154,-0.03741549583962844,0.1659,0.22974,-0.44282000000000005,7.5,1,9347,8974,14097,33935,14.0016796875,8446,26.360278598835734,1027.4521493802279,0,40.689166,-73.991691,2.07,19:19:13
2024-03-25T15:19:13,-3.25483694165,1.56311136345,9.55992449265,0.03252857393404432,-0.0009162978572970231,-0.036499197982331415,0.15750000000000003,0.23198000000000002,-0.4438000000000001,7.5,1,9347,8974,14097,33935,14.0016796875,8446,26.360278598835734,1027.4521493802279,0,40.689166,-73.991691,2.07,19:19:13
2024-03-25T15:19:13,-3.2039894614,1.57507547645,9.5641119322,0.03665191429188092,0.004886921905584123,-0.03543018381548489,0.15918000000000002,0.23198000000000002,-0.44142000000000003,7.5,1,9347,8974,14097,33935,14.0016796875,8446,26.360278598835734,1027.4521493802279,0,40.689166,-73.991691,2.07,19:19:13
2024-03-25T15:19:13,-3.2362925664999995,1.5661023916999999,9.59581683165,0.03634648167278191,0.002138028333693054,-0.03512475119638588,0.15582000000000001,0.22806000000000004,-0.44254000000000004,7.5,1,9347,8974,14097,33935,14.17375,9937,26.41488085810828,1027.4230921020799,0,40.689166,-73.991691,0.71,19:19:13
2024-03-25T15:19:13,-3.2033912557499997,1.5942180572499998,9.601798888149998,0.038637226316024474,0.0012217304763960308,-0.03543018381548489,0.16058,0.23114,-0.44366,7.5,1,9347,8974,14097,33935,14.17375,9937,26.41488085810828,1027.4230921020799,0,40.689166,-73.991691,0.71,19:19:13
2024-03-25T15:19:13,-3.21176613485,1.6037893476499998,9.607780944649999,0.03741549583962844,0.005039638215133627,-0.03604104905368291,0.15946000000000002,0.22638000000000003,-0.42308000000000007,7.5,1,9347,8974,14097,33935,14.17375,9937,26.41488085810828,1027.4230921020799,0,40.689166,-73.991693,0.71,19:19:14
2024-03-25T15:19:14,-3.2488548851499996,1.5690934199499997,9.4971128994,0.03436116964863837,0.001069014166846527,-0.00015271630954950385,0.15666000000000002,0.22106000000000003,-0.43078000000000005,7.5,0,9344,8975,14098,33926,14.508515625,11413,26.443449091117056,1027.417006906381,0,40.689166,-73.991693,0.71,19:19:14
2024-03-25T15:19:14,-3.21176613485,1.5667005973499997,9.57667425085,0.03237585762449482,0.0009162978572970231,-0.0357356164345839,0.15806,0.22750000000000004,-0.43988000000000005,7.5,0,9344,8975,14098,33926,14.508515625,11413,26.443449091117056,1027.417006906381,0,40.689166,-73.991693,0.71,19:19:14
2024-03-25T15:19:14,-3.2087751065999996,1.5756736821,9.6012006825,0.03130684345764829,0.0024434609527920616,-0.041080687268816536,0.15778,0.22834000000000004,-0.43848000000000004,7.5,0,9344,8975,14098,33926,14.508515625,11413,26.443449091117056,1027.417006906381,0,40.689166,-73.991693,0.65,19:19:14
2024-03-25T15:19:14,-3.2297123043499996,1.6019947307,9.579665279099999,0.03375030441044035,-0.0003054326190990077,-0.03527746750593539,0.1617,0.22190000000000004,-0.44282000000000005,7.5,0,9344,8975,14098,33926,14.508515625,11413,26.443449091117056,1027.417006906381,0,40.689166,-73.991693,0.65,19:19:14
2024-03-25T15:19:14,-3.212962546149999,1.5762718877499997,9.584450924299999,0.03695734691097993,0.0024434609527920616,-0.03512475119638588,0.16394000000000003,0.22750000000000004,-0.42658,7.5,0,9344,8975,14098,33926,14.4876171875,11917,26.260406859459568,1027.441209611131,0,40.689164,-73.991691,0.65,19:19:15
2024-03-25T15:19:15,-3.2177481913499997,1.5900306176999999,9.558728081349999,0.03344487179134134,0.003970624048287101,-0.03390302071998985,0.16506,0.22778000000000004,-0.4432400000000001,7.5,0,9341,8972,14099,33920,14.643671875,13626,26.308579174990953,1027.4232064611354,0,40.689164,-73.991691,0.65,19:19:15
2024-03-25T15:19:15,-3.2297123043499996,1.5876377951,9.6000042712,0.03359758810089085,0.0007635815477475193,-0.03359758810089085,0.15526,0.22218000000000004,-0.4543000000000001,7.5,0,9341,8972,14099,33920,14.643671875,13626,26.308579174990953,1027.4232064611354,0,40.689164,-73.991691,0.65,19:19:15
2024-03-25T15:19:15,-3.2195428083000004,1.5942180572499998,9.57906707345,0.036804630601430424,0.002901609881440573,-0.03665191429188092,0.16450000000000004,0.22694000000000003,-0.4502400000000001,7.5,0,9341,8972,14099,33920,14.643671875,13626,26.308579174990953,1027.4232064611354,0,40.689164,-73.991691,0.33,19:19:15
2024-03-25T15:19:15,-3.2303105099999994,1.57507547645,9.56949578305,0.038331793696925465,0.003970624048287101,-0.03252857393404432,0.1603,0.22778000000000004,-0.42812000000000006,7.5,0,9338,8971,14093,33910,14.643671875,13626,26.308579174990953,1027.4232064611354,0,40.689164,-73.991691,0.33,19:19:15
2024-03-25T15:19:15,-3.2321051269499996,1.57268265385,9.58145989605,0.03313943917224234,0.0054977871437821395,-0.03756821214917795,0.16954000000000002,0.23002,-0.43596,7.5,0,9338,8971,14093,33910,14.5008984375,13951,26.058670505614558,1027.4461695503032,0,40.689164,-73.991691,0.33,19:19:16
2024-03-25T15:19:16,-3.24287282865,1.5984054967999999,9.535398060999999,0.03497203488683638,0.0024434609527920616,-0.03787364476827696,0.15834,0.22218000000000004,-0.4494,7.5,1,9342,8969,14092,33907,14.6016796875,15742,26.086916478415358,1027.427496527414,0,40.689164,-73.991691,0.33,19:19:16
2024-03-25T15:19:16,-3.21655178005,1.5577275125999999,9.58624554125,0.03329215548179184,-0.002901609881440573,-0.03527746750593539,0.16058,0.22246000000000002,-0.44142000000000003,7.5,1,9342,8969,14092,33907,14.6016796875,15742,26.086916478415358,1027.427496527414,0,40.689164,-73.991691,0.33,19:19:16
2024-03-25T15:19:16,-3.11007117435,1.6002001137499997,9.482755963799999,0.03344487179134134,0.004886921905584123,-0.03283400655314333,0.15554,0.21966000000000002,-0.43498000000000003,7.5,1,9342,8969,14092,33907,14.6016796875,15742,26.086916478415358,1027.427496527414,0,40.689164,-73.991691,0.35,19:19:16
2024-03-25T15:19:16,-3.2560333529499994,1.5954144685499996,9.5007021333,0.03283400655314333,0.005345070834232635,-0.037110063220529434,0.15722000000000003,0.22834000000000004,-0.44016000000000005,7.5,1,9342,8969,14092,33907,14.4661328125,16139,25.864607175821,1027.4433894162905,0,40.689164,-73.991691,0.35,19:19:16
2024-03-25T15:19:16,-3.1932217597,1.5655041860499999,9.598807859899999,0.03665191429188092,0.004276056667386108,-0.03451388595818787,0.1617,0.23338000000000003,-0.4478600000000001,7.5,1,9342,8969,14092,33907,14.4661328125,16139,25.864607175821,1027.4433894162905,0,40.689166,-73.991696,0.35,19:19:17
2024-03-25T15:19:17,-3.2458638569,1.5595221295499997,9.57547783955,0.03222314131494531,0.0036651914291880926,-0.03802636107782646,0.15554,0.22946,-0.4536,7.5,0,9345,8971,14095,33912,14.48078125,17390,25.817730757550223,1027.4664359708029,0,40.689166,-73.991696,0.35,19:19:17
2024-03-25T15:19:17,-3.1848468806,1.6002001137499997,9.582058101699998,0.031764992386296806,0.0015271630954950385,-0.037110063220529434,0.16366000000000003,0.23534000000000002,-0.45304,7.5,0,9345,8971,14095,33912,14.48078125,17390,25.817730757550223,1027.4664359708029,0,40.689166,-73.991696,0.35,19:19:17
2024-03-25T15:19:17,-3.3655049868999996,1.5972090855,9.5724868113,0.03466660226773738,-0.00045814892864851157,-0.03543018381548489,0.16058,0.23058,-0.42896000000000006,7.5,0,9345,8971,14095,33912,14.48078125,17390,25.817730757550223,1027.4664359708029,0,40.689166,-73.991696,1.04,19:19:17
2024-03-25T15:19:17,-3.3499516399999996,1.5906288233499997,9.597611448599999,0.03634648167278191,0.03741549583962844,-0.03695734691097993,0.16954000000000002,0.23366000000000003,-0.4466,7.5,0,9345,8971,14095,33912,14.48078125,17390,25.817730757550223,1027.4664359708029,0,40.689166,-73.991696,1.04,19:19:17
2024-03-25T15:19:17,-3.2297123043499996,1.5541382787,9.552746024849998,0.0357356164345839,-0.00015271630954950385,-0.03772092845872745,0.1589,0.22302000000000002,-0.44450000000000006,7.5,0,9345,8971,14095,33912,14.3313671875,17998,25.616304816600113,1027.4797871558558,0,40.689163,-73.991693,1.04,19:19:18
2024-03-25T15:19:18,-3.2464620625499996,1.5852449725,9.574879633899998,0.036193765363232405,-0.0019853120241435504,-0.041844268816564056,0.15862,0.22526000000000002,-0.44702000000000003,7.5,1,9341,8968,14090,33912,14.4450390625,20322,25.661165896553744,1027.4497327779713,0,40.689163,-73.991693,1.04,19:19:18
2024-03-25T15:19:18,-3.1740791789,1.5517454561000001,9.61854864635,0.037110063220529434,0.003054326190990077,-0.03466660226773738,0.16142,0.22918000000000002,-0.43554000000000004,7.5,1,9341,8968,14090,33912,14.4450390625,20322,25.661165896553744,1027.4497327779713,0,40.689163,-73.991693,1.04,19:19:18
2024-03-25T15:19:18,-3.1728827676,1.59182523465,9.508478806749999,0.03283400655314333,0.0012217304763960308,-0.039706240482871004,0.15498,0.23338000000000003,-0.44842000000000004,7.5,1,9341,8968,14090,33912,14.4450390625,20322,25.661165896553744,1027.4497327779713,0,40.689163,-73.991693,1.04,19:19:18
2024-03-25T15:19:18,-3.1986056105499996,1.5906288233499997,9.5868437469,0.03512475119638588,0.007941248096574201,-0.038637226316024474,0.16646,0.22834000000000004,-0.4473000000000001,7.5,1,9349,8972,14095,33931,14.3508984375,20579,25.474364032551765,1027.462051176207,0,40.689163,-73.991693,1.04,19:19:18
2024-03-25T15:19:19,-3.22373024785,1.6097714041500002,9.632307376299998,0.03375030441044035,-0.012370021073509813,-0.03268129024359383,0.15666000000000002,0.22946,-0.43610000000000004,7.5,1,9349,8972,14095,33931,14.3934765625,21881,25.424205134998523,1027.4780772751033,0,40.689163,-73.991693,1.04,19:19:18
2024-03-25T15:19:19,-3.2267212760999997,1.5637095691,9.56351372655,0.03298672286269283,0.005803219762881146,-0.0357356164345839,0.16310000000000002,0.23562000000000002,-0.42924000000000007,7.5,1,9355,8977,14099,33948,14.5102734375,23308,25.400244624634787,1027.4795643053592,0,40.689163,-73.991693,1.04,19:19:18
2024-03-25T15:19:19,-3.1842486749499996,1.495514125,9.483952375099998,0.03390302071998985,-0.0003054326190990077,-0.031459559767197796,0.15834,0.23254000000000002,-0.44198000000000004,7.5,1,9355,8977,14099,33948,14.5102734375,23308,25.400244624634787,1027.4795643053592,0,40.689163,-73.991693,1.04,19:19:18
2024-03-25T15:19:19,-3.09691065005,1.57746829905,9.644869694949998,0.03405573702953936,0.01069014166846527,-0.03359758810089085,0.16086,0.22442,-0.45948,7.5,1,9355,8977,14099,33948,14.5102734375,23308,25.400244624634787,1027.4795643053592,0,40.689163,-73.991693,1.04,19:19:18
2024-03-25T15:19:19,-3.2554351472999996,1.5451651939499997,9.6442714893,0.03466660226773738,0.0054977871437821395,-0.036499197982331415,0.15778,0.22554000000000002,-0.45248,7.5,1,9355,8977,14099,33948,14.6380078125,24710,25.366419378210608,1027.485482492185,0,40.689163,-73.991693,0.23,19:19:18
2024-03-25T15:19:20,-3.337987527,1.5828521499,9.61137017855,0.039553524173321496,-0.07681630370340044,-0.03313943917224234,0.16506,0.22834000000000004,-0.43834,7.5,0,9356,8976,14101,33955,14.858125,27210,25.391839882931404,1027.4670910023865,0,40.689163,-73.991693,0.23,19:19:18
2024-03-25T15:19:20,-3.19621278795,1.6139588436999999,9.615557618099999,0.03741549583962844,-0.0007635815477475193,-0.03497203488683638,0.16310000000000002,0.22918000000000002,-0.43302,7.5,0,9356,8976,14101,33955,14.858125,27210,25.391839882931404,1027.4670910023865,0,40.689164,-73.991693,0.23,19:19:19
2024-03-25T15:19:20,-3.0807590974999997,1.57746829905,9.3810610033,0.03665191429188092,-0.0006108652381980154,-0.03207042500539581,0.15862,0.22722000000000003,-0.43694000000000005,7.5,0,9356,8976,14101,33955,14.858125,27210,25.391839882931404,1027.4670910023865,0,40.689164,-73.991693,0.23,19:19:19
2024-03-25T15:19:20,-3.142972485099999,1.58464676685,9.589834775149999,0.03665191429188092,0.0036651914291880926,-0.039706240482871004,0.16394000000000003,0.22918000000000002,-0.43778,7.5,0,9356,8976,14101,33955,15.0122265625,27819,25.317370881342555,1027.4911176631203,0,40.689164,-73.991693,0.23,19:19:19
2024-03-25T15:19:20,-3.1902307314499994,1.56071854085,9.5509514079,0.03726277953007894,-0.0012217304763960308,-0.03604104905368291,0.15974000000000002,0.23002,-0.43834,8.5,0,9356,8976,14101,33955,15.0122265625,27819,25.317370881342555,1027.4911176631203,0,40.689164,-73.991693,1.53,19:19:19
2024-03-25T15:19:20,-3.2219356309,1.5655041860499999,9.606584533349999,0.036193765363232405,0.005192354524683131,-0.03741549583962844,0.16422000000000003,0.22526000000000002,-0.4438000000000001,7.5,0,9356,8976,14101,33955,15.0122265625,27819,25.317370881342555,1027.4911176631203,0,40.689164,-73.991693,1.53,19:19:19
2024-03-25T15:19:20,-3.2303105099999994,1.56311136345,9.551549613549998,0.03497203488683638,0.005192354524683131,-0.03222314131494531,0.15666000000000002,0.22050000000000003,-0.43512000000000006,7.5,0,9356,8976,14101,33955,15.0122265625,27819,25.317370881342555,1027.4911176631203,0,40.689166,-73.991695,1.53,19:19:20
2024-03-25T15:19:20,-3.29910415975,1.5900306176999999,9.61376300115,0.03375030441044035,-0.0036651914291880926,-0.03481931857728687,0.15834,0.22974,-0.4491200000000001,7.5,0,9356,8976,14101,33955,15.2161328125,30164,25.331119192299404,1027.4782581325048,0,40.689166,-73.991695,1.53,19:19:20
2024-03-25T15:19:20,-3.2321051269499996,1.5888342063999998,9.588638363849999,0.03375030441044035,0.01145372321621279,-0.03756821214917795,0.15974000000000002,0.22442,-0.43246,7.5,0,9398,9004,14138,34083,15.4985546875,32016,25.34490890449703,1027.4663585441924,0,40.689166,-73.991695,1.53,19:19:20
2024-03-25T15:19:21,-3.2524441190499997,1.5649059803999998,9.51565727455,0.03268129024359383,0.006261368691529657,-0.031459559767197796,0.1617,0.22582000000000002,-0.43610000000000004,7.5,0,9398,9004,14138,34083,15.5993359375,32114,25.245598526408934,1027.4840706292898,0,40.689166,-73.991695,1.55,19:19:20
2024-03-25T15:19:21,-3.2135607518,1.5481562222,9.55992449265,0.03665191429188092,-0.0016798794050445422,-0.036499197982331415,0.15974000000000002,0.22918000000000002,-0.44534,7.5,0,9404,9006,14140,34107,15.595234375,32813,25.165775735623768,1027.4964443146794,0,40.689166,-73.991695,1.55,19:19:20
2024-03-25T15:19:22,-3.1070801461,1.5601203352,9.52881779885,0.03451388595818787,-0.03313943917224234,-0.03588833274413341,0.15918000000000002,0.22778000000000004,-0.44422,7.5,0,9404,9006,14140,34107,15.557734375,33730,25.08376076417943,1027.499735501632,0,40.68917,-73.991698,1.55,19:19:21
2024-03-25T15:19:22,-3.2015966387999995,1.6049857589499996,9.543174734449998,0.03527746750593539,0.012980886311707827,-0.03252857393404432,0.16310000000000002,0.22554000000000002,-0.44716,7.5,0,9396,9000,14135,34083,15.526875,34671,24.9969614634245,1027.5037186610127,0,40.68917,-73.991698,1.55,19:19:21
2024-03-25T15:19:22,-3.2189446026499997,1.6067803759,9.4947200768,0.036499197982331415,-0.004886921905584123,-0.03634648167278191,0.1547,0.22890000000000005,-0.42910000000000004,7.5,0,9396,9000,14135,34083,15.4938671875,35788,24.93653970085297,1027.509329162033,0,40.68917,-73.991698,1.55,19:19:21
2024-03-25T15:19:23,-3.11485681955,1.5475580165499996,9.527023181899999,0.03466660226773738,-0.0025961772623415654,-0.03527746750593539,0.16254000000000002,0.22526000000000002,-0.44478,7.5,1,9402,9006,14144,34103,15.4692578125,36914,24.860850947364312,1027.5150974415194,0,40.68917,-73.991698,0.97,19:19:21
2024-03-25T15:19:23,-3.212962546149999,1.59900370245,9.57069219435,0.0355829001250344,0.003970624048287101,-0.03436116964863837,0.15722000000000003,0.2247,-0.43036,7.5,1,9402,9006,14144,34103,15.4466015625,37840,24.801197343501336,1027.5048612441874,0,40.68917,-73.991698,0.97,19:19:21
2024-03-25T15:19:23,-3.2650064377,1.5547364843499998,9.5365944723,0.03512475119638588,0.0027488935718910697,-0.03604104905368291,0.1547,0.22358,-0.44338000000000005,7.5,1,9405,9008,14149,34107,15.4278515625,38743,24.731272532115547,1027.502984724557,0,40.689171,-73.991703,0.97,19:19:22
2024-03-25T15:19:24,-3.21655178005,1.60139652505,9.57787066215,0.040317105721069016,0.004581489286485115,-0.036499197982331415,0.15162,0.22862000000000005,-0.42504000000000003,7.5,0,9372,8983,14111,33997,15.4216015625,40142,24.662217897244933,1027.5152280575446,0,40.689171,-73.991703,0.97,19:19:22
2024-03-25T15:19:24,-3.3439695835,1.5756736821,9.522237536699999,0.03527746750593539,0.004581489286485115,-0.038331793696925465,0.15358000000000002,0.23646000000000003,-0.43400000000000005,7.5,0,9372,8983,14111,33997,15.4216015625,40142,24.662217897244933,1027.5152280575446,0,40.689171,-73.991703,0.97,19:19:22
2024-03-25T15:19:24,-3.2470602682,1.5810575329499996,9.608977355949998,0.03924809155422249,0.005039638215133627,-0.03527746750593539,0.15554,0.2233,-0.44548000000000004,8.5,0,9372,8983,14111,33997,15.4216015625,40142,24.662217897244933,1027.5152280575446,0,40.689171,-73.991703,0.45,19:19:22
2024-03-25T15:19:24,-3.20219484445,1.58703958945,9.5617191096,0.03512475119638588,0.0070249502392771765,-0.0357356164345839,0.15974000000000002,0.22778000000000004,-0.4459,7.5,0,9372,8983,14111,33997,15.4216015625,40142,24.662217897244933,1027.5152280575446,0,40.689171,-73.991703,0.45,19:19:22
2024-03-25T15:19:24,-3.2015966387999995,1.5702898312499998,9.562915520899999,0.03466660226773738,0.0016798794050445422,-0.002138028333693054,0.16114,0.22386,-0.43302,7.5,0,9372,8983,14111,33997,15.1083203125,39138,24.42019777268728,1027.5098801042102,0,40.68917,-73.991701,0.45,19:19:23
2024-03-25T15:19:25,-3.2356943608499997,1.5744772707999999,9.59581683165,0.036804630601430424,0.004886921905584123,-0.03543018381548489,0.16310000000000002,0.23506000000000002,-0.45584,7.5,0,9372,8983,14111,33997,15.1083203125,39138,24.42019777268728,1027.5098801042102,0,40.68917,-73.991701,0.45,19:19:23
2024-03-25T15:19:25,-3.21655178005,1.5619149521499998,9.57069219435,0.03329215548179184,0.0009162978572970231,-0.03405573702953936,0.15834,0.23002,-0.43428000000000005,7.5,0,9372,8983,14111,33997,15.1083203125,39138,24.42019777268728,1027.5098801042102,0,40.68917,-73.991701,0.45,19:19:23
2024-03-25T15:19:25,-3.22612307045,1.5822539442499999,9.56471013785,0.03481931857728687,0.0054977871437821395,-0.03466660226773738,0.16198,0.22806000000000004,-0.43736,7.5,0,9354,8970,14095,33944,15.1083203125,39138,24.42019777268728,1027.5098801042102,0,40.68917,-73.991701,0.45,19:19:23
2024-03-25T15:19:25,-3.22253383655,1.5768700934,9.578468867799998,0.03130684345764829,0.006108652381980154,-0.03665191429188092,0.16058,0.22218000000000004,-0.43610000000000004,7.5,0,9354,8970,14095,33944,15.0962109375,42527,24.44573566216664,1027.4718530360642,0,40.68917,-73.991701,0.45,19:19:23
2024-03-25T15:19:25,-3.2255248647999997,1.5427723713499997,9.52044291975,0.038637226316024474,0.00015271630954950385,-0.03787364476827696,0.15386000000000002,0.23198000000000002,-0.4368000000000001,7.5,0,9354,8970,14095,33944,15.0962109375,42527,24.44573566216664,1027.4718530360642,0,40.68917,-73.991701,0.45,19:19:23
2024-03-25T15:19:25,-3.2656046433499997,1.5942180572499998,9.5856473356,0.038942658935123484,0.0038179077387375964,-0.03359758810089085,0.16198,0.22918000000000002,-0.44002,7.5,0,9354,8970,14095,33944,15.0962109375,42527,24.44573566216664,1027.4718530360642,0,40.68917,-73.991701,0.45,19:19:23
2024-03-25T15:19:25,-3.2380871834499994,1.5744772707999999,9.5736832226,0.03924809155422249,0.0038179077387375964,-0.036193765363232405,0.16086,0.2247,-0.4397400000000001,7.5,0,9354,8970,14095,33944,15.0962109375,42527,24.44573566216664,1027.4718530360642,0,40.68917,-73.991701,0.45,19:19:23
2024-03-25T15:19:25,-3.2566315585999996,1.5834503555499997,9.552746024849998,0.03481931857728687,0.006261368691529657,-0.03604104905368291,0.16058,0.2233,-0.4397400000000001,7.5,0,9354,8970,14095,33944,15.2926953125,45117,24.479680765261115,1027.4621462751609,0,40.68917,-73.991701,0.45,19:19:23
2024-03-25T15:19:25,-3.2356943608499997,1.5876377951,9.583852718649998,0.031764992386296806,0.0038179077387375964,-0.03543018381548489,0.1589,0.23310000000000003,-0.44702000000000003,8.5,0,9354,8970,14095,33944,15.2926953125,45117,24.479680765261115,1027.4621462751609,0,40.68917,-73.991701,0.43,19:19:23
2024-03-25T15:19:25,-3.2243284535,1.5553346899999998,9.628718142399999,0.03665191429188092,0.003970624048287101,-0.041691552507014555,0.15638000000000002,0.23114,-0.42994000000000004,7.5,0,9354,8970,14095,33944,15.2926953125,45117,24.479680765261115,1027.4621462751609,0,40.68917,-73.991701,0.43,19:19:23
2024-03-25T15:19:25,-3.3678978095,1.5924234403,9.54197832315,0.03222314131494531,0.006414085001079162,-0.03695734691097993,0.16086,0.2247,-0.44310000000000005,7.5,0,9354,8970,14095,33944,15.2926953125,45117,24.479680765261115,1027.4621462751609,0,40.689166,-73.991696,0.43,19:19:24
2024-03-25T15:19:25,-3.2410782117,1.5822539442499999,9.562915520899999,0.03466660226773738,0.007635815477475193,-0.03634648167278191,0.15918000000000002,0.22778000000000004,-0.43568000000000007,7.5,0,9354,8970,14095,33944,15.5700390625,47772,24.49263657778009,1027.4538416142102,0,40.689166,-73.991696,0.43,19:19:24
2024-03-25T15:19:25,-3.2171499857,1.5804593272999998,9.5772724565,0.03741549583962844,0.005345070834232635,-0.03695734691097993,0.16310000000000002,0.22526000000000002,-0.44520000000000004,7.5,0,9354,8970,14095,33944,15.5700390625,47772,24.49263657778009,1027.4538416142102,0,40.689166,-73.991696,0.43,19:19:24
2024-03-25T15:19:25,-3.2279176873999997,1.5780665047,9.556933464399998,0.03436116964863837,0.0022907446432425577,-0.03329215548179184,0.15722000000000003,0.22918000000000002,-0.43134000000000006,7.5,0,9354,8970,14095,33944,15.5700390625,47772,24.49263657778009,1027.4538416142102,0,40.689166,-73.991696,0.25,19:19:24
2024-03-25T15:19:25,-3.2530423247,1.58464676685,9.56590654915,0.038484510006474966,0.002138028333693054,-0.03802636107782646,0.15974000000000002,0.23114,-0.44506000000000007,7.5,0,9354,8970,14095,33944,15.5700390625,47772,24.49263657778009,1027.4538416142102,0,40.689166,-73.991696,0.25,19:19:24
2024-03-25T15:19:25,-3.2392835947500003,1.5469598108999998,9.5365944723,0.03237585762449482,0.0038179077387375964,-0.03420845333908886,0.15246,0.22666000000000003,-0.42910000000000004,7.5,0,9354,8970,14095,33944,15.8591015625,49597,24.506420016681258,1027.452700377763,0,40.689166,-73.991693,0.25,19:19:25
2024-03-25T15:19:25,-3.218346397,1.5876377951,9.53838908925,0.03436116964863837,0.001069014166846527,-0.039095375244672985,0.15666000000000002,0.22722000000000003,-0.43708,7.5,0,9354,8970,14095,33944,15.8591015625,49597,24.506420016681258,1027.452700377763,0,40.689166,-73.991693,0.25,19:19:25
2024-03-25T15:19:25,-3.2231320422,1.57746829905,9.5461657627,0.03405573702953936,0.0070249502392771765,-0.03756821214917795,0.16226000000000002,0.2247,-0.43190000000000006,7.5,0,9348,8965,14093,33930,15.8591015625,49597,24.506420016681258,1027.452700377763,0,40.689166,-73.991693,0.25,19:19:25
2024-03-25T15:19:25,-3.21176613485,1.5595221295499997,9.62692352545,0.036499197982331415,0.003207042500539581,-0.038179077387375956,0.15918000000000002,0.23170000000000002,-0.43946,7.5,0,9348,8965,14093,33930,15.8591015625,49597,24.506420016681258,1027.452700377763,0,40.689166,-73.991693,1.03,19:19:25
2024-03-25T15:19:25,-3.21535536875,1.5744772707999999,9.432506689199998,0.03359758810089085,0.003207042500539581,-0.040317105721069016,0.15246,0.23114,-0.43750000000000006,7.5,0,9348,8965,14093,33930,16.13234375,51286,24.50337743274329,1027.4472878765746,0,40.689166,-73.991693,1.03,19:19:25
2024-03-25T15:19:25,-3.2333015382499997,1.56789700865,9.566504754799999,0.03451388595818787,0.008704829644321718,-0.039553524173321496,0.16282000000000002,0.23338000000000003,-0.43526000000000004,7.5,0,9348,8965,14093,33930,16.13234375,51286,24.50337743274329,1027.4472878765746,0,40.689178,-73.991701,1.03,19:19:26
2024-03-25T15:19:26,-3.22133742525,1.5780665047,9.562317315249999,0.038637226316024474,0.0033597588100890844,-0.036193765363232405,0.15862,0.22946,-0.43638000000000005,7.5,0,9348,8965,14093,33930,16.378046875,52794,24.503823444664636,1027.4477379930943,0,40.689178,-73.991701,1.03,19:19:26
2024-03-25T15:19:26,-3.22373024785,1.5876377951,9.5653083435,0.03481931857728687,0.002138028333693054,-0.03802636107782646,0.15414000000000003,0.22582000000000002,-0.4443600000000001,7.5,0,9348,8965,14093,33930,16.378046875,52794,24.503823444664636,1027.4477379930943,0,40.689178,-73.991701,1.03,19:19:26
2024-03-25T15:19:26,-3.21655178005,1.5810575329499996,9.57547783955,0.03787364476827696,0.004886921905584123,-0.03436116964863837,0.15862,0.23198000000000002,-0.43596,7.5,0,9348,8965,14093,33930,16.378046875,52794,24.503823444664636,1027.4477379930943,0,40.689178,-73.991701,2.24,19:19:26
2024-03-25T15:19:26,-3.2177481913499997,1.58703958945,9.5545406418,0.03405573702953936,0.0036651914291880926,-0.04276056667386108,0.16926000000000002,0.23982000000000003,-0.43428000000000005,7.5,0,9348,8965,14093,33930,16.378046875,52794,24.503823444664636,1027.4477379930943,0,40.689178,-73.991701,2.24,19:19:26
2024-03-25T15:19:26,-3.2033912557499997,1.5864413838,9.539585500549999,0.03741549583962844,0.0018325957145940463,-0.03237585762449482,0.15638000000000002,0.22610000000000002,-0.4459,7.5,0,9348,8965,14093,33930,16.4387890625,51348,24.407545104427065,1027.483564058145,0,40.68919,-73.991708,2.24,19:19:27
2024-03-25T15:19:27,-3.2362925664999995,1.5708880368999998,9.57667425085,0.03420845333908886,0.0022907446432425577,-0.03359758810089085,0.16506,0.22386,-0.45738000000000006,7.5,1,9339,8959,14078,33893,16.5003125,54219,24.395784279456343,1027.4644497628888,0,40.68919,-73.991708,2.24,19:19:27
2024-03-25T15:19:27,-3.2315069213,1.5792629159999998,9.530014210149998,0.03634648167278191,0.003970624048287101,-0.03497203488683638,0.16086,0.21826,-0.4548600000000001,7.5,1,9339,8959,14078,33893,16.5003125,54219,24.395784279456343,1027.4644497628888,0,40.68919,-73.991708,2.24,19:19:27
2024-03-25T15:19:27,-3.19501637665,1.57746829905,9.607780944649999,0.03741549583962844,0.0036651914291880926,-0.03497203488683638,0.16394000000000003,0.23058,-0.44646,7.5,1,9339,8959,14078,33893,16.5003125,54219,24.395784279456343,1027.4644497628888,0,40.68919,-73.991708,1.97,19:19:27
2024-03-25T15:19:27,-3.21535536875,1.5649059803999998,9.6095755616,0.03634648167278191,-0.0018325957145940463,-0.03268129024359383,0.17122000000000004,0.22414,-0.44716,7.5,1,9339,8959,14078,33893,16.5003125,54219,24.395784279456343,1027.4644497628888,0,40.68919,-73.991708,1.97,19:19:27
2024-03-25T15:19:27,-3.2099715178999992,1.5936198515999997,9.574879633899998,0.03756821214917795,-0.0009162978572970231,-0.03588833274413341,0.15750000000000003,0.22722000000000003,-0.44534,7.5,1,9339,8959,14078,33893,16.0630078125,50128,24.10358801611226,1027.4724111648336,0,40.689188,-73.991706,1.97,19:19:28
2024-03-25T15:19:28,-3.2285158930499995,1.5625131578,9.543174734449998,0.040622538340168025,0.004276056667386108,-0.040317105721069016,0.15610000000000002,0.22722000000000003,-0.4426800000000001,7.5,1,9335,8955,14076,33888,15.92765625,53769,24.105284747199452,1027.450913672979,0,40.689188,-73.991706,1.97,19:19:28
2024-03-25T15:19:28,-3.2243284535,1.5732808595,9.562317315249999,0.031001410838549282,0.007483099167925688,-0.03512475119638588,0.15806,0.22274000000000002,-0.44310000000000005,7.5,1,9335,8955,14076,33888,15.92765625,53769,24.105284747199452,1027.450913672979,0,40.689188,-73.991706,1.97,19:19:28
2024-03-25T15:19:28,-3.2327033326,1.5643077747499998,9.551549613549998,0.03359758810089085,0.001069014166846527,-0.03604104905368291,0.16058,0.23086,-0.44282000000000005,7.5,1,9335,8955,14076,33888,15.92765625,53769,24.105284747199452,1027.450913672979,0,40.689188,-73.991706,1.97,19:19:28
2024-03-25T15:19:28,-3.2321051269499996,1.57268265385,9.6035935051,0.03772092845872745,0.0012217304763960308,-0.04046982203061852,0.14378,0.22722000000000003,-0.44170000000000004,7.5,1,9335,8955,14076,33888,15.92765625,53769,24.105284747199452,1027.450913672979,0,40.689188,-73.991706,1.97,19:19:28
2024-03-25T15:19:28,-3.2219356309,1.5595221295499997,9.57547783955,0.03481931857728687,-0.0003054326190990077,-0.03298672286269283,0.1547,0.22946,-0.44310000000000005,7.5,1,9335,8955,14076,33888,15.5762890625,51161,23.882889783884963,1027.4731862011247,0,40.689188,-73.991706,1.97,19:19:28
2024-03-25T15:19:28,-3.2937203089,1.57268265385,9.583254513,0.03665191429188092,0.003970624048287101,-0.037110063220529434,0.15694000000000002,0.22106000000000003,-0.44170000000000004,7.5,1,9335,8955,14076,33888,15.5762890625,51161,23.882889783884963,1027.4731862011247,0,40.689188,-73.991706,1.97,19:19:28
2024-03-25T15:19:28,-3.22133742525,1.5810575329499996,9.57667425085,0.03772092845872745,0.004581489286485115,-0.03359758810089085,0.16198,0.22414,-0.45052000000000003,7.5,1,9335,8955,14076,33888,15.5762890625,51161,23.882889783884963,1027.4731862011247,0,40.689188,-73.991706,1.97,19:19:28
2024-03-25T15:19:28,-3.1824540579999994,1.56311136345,9.56829937175,0.03451388595818787,0.0013744467859455349,-0.0357356164345839,0.15554,0.22806000000000004,-0.43820000000000003,7.5,1,9335,8955,14076,33888,15.5762890625,51161,23.882889783884963,1027.4731862011247,0,40.689188,-73.991706,1.97,19:19:28
2024-03-25T15:19:28,-3.2243284535,1.5948162628999998,9.559326287,0.03420845333908886,0.005039638215133627,-0.0355829001250344,0.15610000000000002,0.2233,-0.4501,7.5,1,9335,8955,14076,33888,15.5175,54889,23.910586007172284,1027.452762220036,0,40.689188,-73.991706,0.88,19:19:28
2024-03-25T15:19:28,-3.24167641735,1.5792629159999998,9.5904329808,0.03268129024359383,0.007483099167925688,-0.03665191429188092,0.15358000000000002,0.23114,-0.43288000000000004,7.5,0,9332,8950,14069,33881,15.5175,54889,23.910586007172284,1027.452762220036,0,40.689188,-73.991706,0.88,19:19:28
2024-03-25T15:19:28,-3.2159535744,1.5619149521499998,9.6095755616,0.039400807863771994,0.0012217304763960308,-0.03634648167278191,0.15022000000000002,0.22162000000000004,-0.4502400000000001,7.5,0,9332,8950,14069,33881,15.5175,54889,23.910586007172284,1027.452762220036,0,40.689191,-73.99171,0.88,19:19:29
2024-03-25T15:19:29,-3.2350961551999995,1.5720844482,9.53719267795,0.037110063220529434,0.002901609881440573,-0.038331793696925465,0.15946000000000002,0.23366000000000003,-0.43148000000000003,7.5,0,9332,8950,14069,33881,15.6684765625,58062,23.915075709187363,1027.4500031292773,0,40.689191,-73.99171,0.88,19:19:29
2024-03-25T15:19:29,-3.21655178005,1.61096781545,9.560522698299998,0.03665191429188092,0.0025961772623415654,-0.03772092845872745,0.1603,0.21966000000000002,-0.42868000000000006,7.5,0,9332,8950,14069,33881,15.6684765625,58062,23.915075709187363,1027.4500031292773,0,40.689191,-73.99171,0.88,19:19:29
2024-03-25T15:19:29,-3.2111679291999993,1.57507547645,9.55633525875,0.03252857393404432,0.003970624048287101,-0.036499197982331415,0.16142,0.22974,-0.43918000000000007,7.5,0,9328,8948,14065,33868,15.6684765625,58062,23.915075709187363,1027.4500031292773,0,40.689191,-73.99171,0.9,19:19:29
2024-03-25T15:19:29,-3.2434710343,1.58464676685,9.567701166099999,0.03588833274413341,0.006108652381980154,-0.038789942625573975,0.16338000000000003,0.21910000000000002,-0.43694000000000005,7.5,1,9328,8948,14065,33868,15.6684765625,58062,23.915075709187363,1027.4500031292773,0,40.689191,-73.99171,0.9,19:19:29
2024-03-25T15:19:29,-3.24287282865,1.56789700865,9.539585500549999,0.038789942625573975,0.003970624048287101,-0.03772092845872745,0.16058,0.22834000000000004,-0.42784000000000005,7.5,1,9328,8948,14065,33868,15.4688671875,54675,23.734419010129695,1027.4600314016127,0,40.689193,-73.99171,0.9,19:19:30
2024-03-25T15:19:30,-3.2279176873999997,1.5738790651499999,9.5401837062,0.03787364476827696,0.002901609881440573,-0.03772092845872745,0.16086,0.2303,-0.4424,8.5,1,9324,8947,14060,33859,15.4938671875,58667,23.756981627362304,1027.4461462387724,0,40.689193,-73.99171,0.9,19:19:30
2024-03-25T15:19:30,-3.2033912557499997,1.5589239239,9.58624554125,0.0319177086958463,0.0038179077387375964,-0.03512475119638588,0.16254000000000002,0.22890000000000005,-0.43834,7.5,1,9324,8947,14060,33859,15.4938671875,58667,23.756981627362304,1027.4461462387724,0,40.689193,-73.99171,0.9,19:19:30
2024-03-25T15:19:30,-3.22253383655,1.57268265385,9.5282195932,0.03543018381548489,0.003054326190990077,-0.03741549583962844,0.15330000000000002,0.22246000000000002,-0.4478600000000001,7.5,1,9324,8947,14060,33859,15.4938671875,58667,23.756981627362304,1027.4461462387724,0,40.689193,-73.99171,0.35,19:19:30
2024-03-25T15:19:30,-3.2063822839999996,1.5936198515999997,9.547362174,0.03466660226773738,0.0024434609527920616,-0.03344487179134134,0.15302000000000002,0.21966000000000002,-0.44450000000000006,7.5,1,9324,8947,14060,33859,15.4938671875,58667,23.756981627362304,1027.4461462387724,0,40.689193,-73.99171,0.35,19:19:30
2024-03-25T15:19:30,-3.22253383655,1.5828521499,9.593424009049999,0.03405573702953936,0.00473420559603462,-0.039858956792420505,0.1617,0.23450000000000004,-0.43484,7.5,1,9324,8947,14060,33859,15.2477734375,55722,23.56850279915743,1027.4686226065724,0,40.689195,-73.991714,0.35,19:19:31
2024-03-25T15:19:31,-3.24167641735,1.5858431781499998,9.576076045199999,0.0003054326190990077,0.0016798794050445422,-0.038637226316024474,0.16618,0.23478000000000002,-0.43596,7.5,0,9320,8942,14051,33840,15.2673046875,59790,23.601132299668222,1027.4472717438578,0,40.689195,-73.991714,0.35,19:19:31
2024-03-25T15:19:31,-3.1896325257999996,1.5810575329499996,9.5449693514,0.03298672286269283,0.005192354524683131,-0.0355829001250344,0.15722000000000003,0.2303,-0.44464000000000004,7.5,0,9320,8942,14051,33840,15.2673046875,59790,23.601132299668222,1027.4472717438578,0,40.689195,-73.991714,0.35,19:19:31
2024-03-25T15:19:31,-3.2338997439,1.5804593272999998,9.547960379649998,0.03802636107782646,-0.001069014166846527,-0.036193765363232405,0.15582000000000001,0.22750000000000004,-0.43260000000000004,7.5,0,9320,8942,14051,33840,15.2673046875,59790,23.601132299668222,1027.4472717438578,0,40.689195,-73.991714,0.34,19:19:31
2024-03-25T15:19:31,-3.2177481913499997,1.5780665047,9.53240703275,0.036193765363232405,-0.0006108652381980154,-0.03512475119638588,0.16282000000000002,0.23198000000000002,-0.44338000000000005,7.5,0,9320,8942,14051,33840,15.2673046875,59790,23.601132299668222,1027.4472717438578,0,40.689195,-73.991714,0.34,19:19:31
2024-03-25T15:19:31,-3.2255248647999997,1.5852449725,9.567102960449999,0.0319177086958463,0.003207042500539581,-0.03420845333908886,0.15386000000000002,0.23114,-0.43316000000000004,7.5,0,9320,8942,14051,33840,15.0628125,56887,23.436577608694044,1027.45568980058,0,40.689195,-73.991716,0.34,19:19:32
2024-03-25T15:19:32,-3.2446674455999998,1.5523436617499997,9.5736832226,0.036804630601430424,0.0036651914291880926,-0.03497203488683638,0.16282000000000002,0.21378000000000003,-0.42518000000000006,8.5,1,9313,8935,14036,33823,15.114375,61177,23.48162930776808,1027.4324212434078,0,40.689195,-73.991716,0.34,19:19:32
2024-03-25T15:19:32,-3.1818558523499996,1.567298803,9.57906707345,0.038637226316024474,0.0054977871437821395,-0.03665191429188092,0.15526,0.21910000000000002,-0.43568000000000007,7.5,1,9313,8935,14036,33823,15.114375,61177,23.48162930776808,1027.4324212434078,0,40.689195,-73.991716,0.34,19:19:32
2024-03-25T15:19:32,-3.22612307045,1.6019947307,9.547362174,0.03588833274413341,0.001069014166846527,-0.0357356164345839,0.1589,0.22610000000000002,-0.44464000000000004,7.5,1,9313,8935,14036,33823,15.114375,61177,23.48162930776808,1027.4324212434078,0,40.689195,-73.991716,0.04,19:19:32
2024-03-25T15:19:32,-3.2745777280999997,1.57746829905,9.6000042712,0.03237585762449482,0.0024434609527920616,-0.03634648167278191,0.15582000000000001,0.22218000000000004,-0.44534,7.5,1,9313,8935,14036,33823,15.114375,61177,23.48162930776808,1027.4324212434078,0,40.689195,-73.991716,0.04,19:19:32
2024-03-25T15:19:32,-3.2009984331499997,1.57268265385,9.562915520899999,0.03451388595818787,0.0033597588100890844,-0.03405573702953936,0.16534000000000001,0.22638000000000003,-0.44702000000000003,7.5,1,9313,8935,14036,33823,14.9341015625,58504,23.32929267523884,1027.4536254881812,0,40.689198,-73.991718,0.04,19:19:33
2024-03-25T15:19:33,-3.2195428083000004,1.5900306176999999,9.585049129949999,0.03543018381548489,0.00473420559603462,-0.03726277953007894,0.16394000000000003,0.22834000000000004,-0.43456000000000006,7.5,1,9311,8936,14035,33824,15.00578125,62630,23.380766746573173,1027.4398759662986,0,40.689198,-73.991718,0.04,19:19:33
2024-03-25T15:19:33,-3.2177481913499997,1.56311136345,9.619146851999998,0.03543018381548489,0.0068722339297276735,-0.03237585762449482,0.15610000000000002,0.22414,-0.43358,7.5,1,9311,8936,14035,33824,15.00578125,62630,23.380766746573173,1027.4398759662986,0,40.689198,-73.991718,0.04,19:19:33
2024-03-25T15:19:33,-3.2368907721499993,1.5834503555499997,9.59222759775,0.03588833274413341,0.0025961772623415654,-0.038942658935123484,0.1589,0.21966000000000002,-0.44534,8.5,1,9311,8936,14035,33824,15.00578125,62630,23.380766746573173,1027.4398759662986,0,40.689198,-73.991718,0.04,19:19:33
2024-03-25T15:19:33,-3.19381996535,1.5732808595,9.53479985535,0.03634648167278191,0.006108652381980154,-0.03436116964863837,0.16198,0.22778000000000004,-0.44422,7.5,1,9311,8936,14035,33824,14.838984375,60173,23.229469235260822,1027.4539869281248,0,40.689198,-73.991718,0.04,19:19:33
2024-03-25T15:19:33,-3.2039894614,1.5565311012999998,9.583254513,0.03436116964863837,0.003054326190990077,-0.03390302071998985,0.15750000000000003,0.23310000000000003,-0.4508000000000001,7.5,1,9311,8936,14035,33824,14.838984375,60173,23.229469235260822,1027.4539869281248,0,40.689198,-73.991718,0.04,19:19:33
2024-03-25T15:19:33,-3.2333015382499997,1.5816557385999996,9.589834775149999,0.03359758810089085,0.005803219762881146,-0.03543018381548489,0.16450000000000004,0.23170000000000002,-0.43470000000000003,7.5,0,9312,8934,14039,33822,14.838984375,60173,23.229469235260822,1027.4539869281248,0,40.689198,-73.991718,0.04,19:19:33
2024-03-25T15:19:33,-3.2614172037999998,1.5523436617499997,9.5401837062,0.03390302071998985,0.0003054326190990077,-0.038484510006474966,0.15582000000000001,0.2303,-0.44828,7.5,0,9312,8934,14039,33822,14.838984375,60173,23.229469235260822,1027.4539869281248,0,40.689198,-73.991718,0.04,19:19:33
2024-03-25T15:19:33,-3.2333015382499997,1.56789700865,9.535996266649999,0.038331793696925465,0.0025961772623415654,-0.038484510006474966,0.16198,0.23114,-0.44884,7.5,0,9312,8934,14039,33822,14.924921875,64448,23.26612401262081,1027.4363392671676,0,40.689198,-73.991718,0.04,19:19:33
2024-03-25T15:19:33,-3.1914271427500003,1.5541382787,9.549754996599999,0.031764992386296806,0.0044287729769356115,-0.03665191429188092,0.16310000000000002,0.23114,-0.45388000000000006,7.5,0,9312,8934,14039,33822,14.924921875,64448,23.26612401262081,1027.4363392671676,0,40.689198,-73.991718,0.9,19:19:33
2024-03-25T15:19:33,-3.2344979495499997,1.5900306176999999,9.57188860565,0.03756821214917795,0.00595593607243065,-0.03451388595818787,0.16506,0.23086,-0.42994000000000004,7.5,0,9312,8934,14039,33822,14.924921875,64448,23.26612401262081,1027.4363392671676,0,40.689198,-73.991718,0.9,19:19:33
2024-03-25T15:19:33,-3.2285158930499995,1.5613167465000002,9.51805009715,0.038637226316024474,0.0025961772623415654,-0.03604104905368291,0.16058,0.23058,-0.44632000000000005,8.5,0,9312,8934,14039,33822,14.924921875,64448,23.26612401262081,1027.4363392671676,0,40.689198,-73.99172,0.9,19:19:34
2024-03-25T15:19:34,-3.22612307045,1.5601203352,9.583254513,0.03665191429188092,0.003970624048287101,-0.038331793696925465,0.16646,0.21798,-0.43708,7.5,0,9307,8931,14034,33812,15.1915234375,67435,23.314150898283465,1027.4383837064972,0,40.689198,-73.99172,0.9,19:19:34
2024-03-25T15:19:34,-3.21655178005,1.5643077747499998,9.5389872949,0.04077525464971753,-0.0012217304763960308,-0.03726277953007894,0.16282000000000002,0.22386,-0.43820000000000003,7.5,0,9307,8931,14034,33812,15.1915234375,67435,23.314150898283465,1027.4383837064972,0,40.689198,-73.99172,0.9,19:19:34
2024-03-25T15:19:34,-3.20698048965,1.5762718877499997,9.57069219435,0.03665191429188092,0.0025961772623415654,-0.03665191429188092,0.1673,0.22610000000000002,-0.44128,7.5,0,9307,8931,14034,33812,15.1915234375,67435,23.314150898283465,1027.4383837064972,0,40.689198,-73.99172,0.92,19:19:34
2024-03-25T15:19:34,-3.23090871565,1.5595221295499997,9.5724868113,0.030695978219450276,0.0068722339297276735,-0.03207042500539581,0.15862,0.22834000000000004,-0.42700000000000005,7.5,0,9307,8931,14034,33812,15.1915234375,67435,23.314150898283465,1027.4383837064972,0,40.689198,-73.99172,0.92,19:19:34
2024-03-25T15:19:34,-3.2392835947500003,1.5816557385999996,9.5904329808,0.03405573702953936,0.006414085001079162,-0.036804630601430424,0.16310000000000002,0.2233,-0.43372000000000005,7.5,0,9307,8931,14034,33812,15.1091015625,64399,23.19422330383308,1027.4568267719485,0,40.689198,-73.991726,0.92,19:19:35
2024-03-25T15:19:35,-3.2099715178999992,1.5810575329499996,9.580263484749999,0.030848694528999777,0.0006108652381980154,-0.03756821214917795,0.16310000000000002,0.22386,-0.44100000000000006,7.5,1,9307,8931,14031,33804,15.217109375,68866,23.221843273195468,1027.4535951583534,0,40.689198,-73.991726,0.92,19:19:35
2024-03-25T15:19:35,-3.2344979495499997,1.567298803,9.549754996599999,0.03237585762449482,0.0025961772623415654,-0.03329215548179184,0.15946000000000002,0.22638000000000003,-0.44184,7.5,1,9307,8931,14031,33804,15.217109375,68866,23.221843273195468,1027.4535951583534,0,40.689198,-73.991726,0.92,19:19:35
2024-03-25T15:19:35,-3.2219356309,1.59661087985,9.491729048549999,0.03726277953007894,0.002138028333693054,-0.03390302071998985,0.16310000000000002,0.22190000000000004,-0.43596,7.5,1,9307,8931,14031,33804,15.217109375,68866,23.221843273195468,1027.4535951583534,0,40.689198,-73.991726,0.89,19:19:35
2024-03-25T15:19:35,-3.212962546149999,1.5816557385999996,9.58624554125,0.038179077387375956,0.0024434609527920616,-0.03497203488683638,0.16002000000000002,0.22750000000000004,-0.43442000000000003,7.5,1,9307,8931,14031,33804,15.217109375,68866,23.221843273195468,1027.4535951583534,0,40.689198,-73.991726,0.89,19:19:35
2024-03-25T15:19:35,-3.2291140986999998,1.5798611216499998,9.56351372655,0.0355829001250344,0.0003054326190990077,-0.03466660226773738,0.16758,0.22414,-0.42616000000000004,7.5,1,9307,8931,14031,33804,15.03625,64994,23.069840315303097,1027.4738886747746,0,40.689201,-73.991728,0.89,19:19:36
2024-03-25T15:19:36,-3.2015966387999995,1.5876377951,9.59222759775,0.03481931857728687,0.005039638215133627,-0.03451388595818787,0.16142,0.22750000000000004,-0.4389,7.5,1,9305,8933,14030,33803,15.1040234375,69547,23.115730949473203,1027.4605139803066,0,40.689201,-73.991728,0.89,19:19:36
2024-03-25T15:19:36,-3.2344979495499997,1.5876377951,9.5641119322,0.03405573702953936,0.0044287729769356115,-0.03451388595818787,0.16282000000000002,0.22302000000000002,-0.43442000000000003,7.5,1,9307,8935,14030,33803,15.1040234375,69547,23.115730949473203,1027.4605139803066,0,40.689201,-73.991728,0.89,19:19:36
2024-03-25T15:19:36,-3.2590243811999993,1.5625131578,9.580263484749999,0.03313943917224234,0.003207042500539581,-0.03695734691097993,0.15974000000000002,0.23142000000000001,-0.44954,7.5,0,9307,8935,14030,33803,15.1040234375,69547,23.115730949473203,1027.4605139803066,0,40.689201,-73.991728,0.83,19:19:36
2024-03-25T15:19:36,-3.20219484445,1.5702898312499998,9.509675218049999,0.03604104905368291,0.00473420559603462,-0.037110063220529434,0.1547,0.2247,-0.44184,7.5,0,9307,8935,14030,33803,14.9282421875,66479,22.97465432862164,1027.473521205508,0,40.689201,-73.991728,0.83,19:19:36
2024-03-25T15:19:36,-3.27278311115,1.5936198515999997,9.5557370531,0.0357356164345839,0.0018325957145940463,-0.036193765363232405,0.15722000000000003,0.23086,-0.43946,7.5,0,9307,8935,14030,33803,14.9282421875,66479,22.97465432862164,1027.473521205508,0,40.689205,-73.991731,0.83,19:19:37
2024-03-25T15:19:37,-3.2464620625499996,1.5708880368999998,9.55992449265,0.036804630601430424,0.0027488935718910697,-0.03665191429188092,0.1603,0.23058,-0.43666000000000005,8.5,1,9305,8934,14031,33810,15.005390625,71071,23.031477294736305,1027.4409688106455,0,40.689205,-73.991731,0.83,19:19:37
2024-03-25T15:19:37,-3.2207392195999995,1.5900306176999999,9.560522698299998,0.038484510006474966,0.005192354524683131,-0.03588833274413341,0.16646,0.23198000000000002,-0.4397400000000001,7.5,1,9305,8934,14031,33810,15.005390625,71071,23.031477294736305,1027.4409688106455,0,40.689205,-73.991731,0.83,19:19:37
2024-03-25T15:19:37,-3.2303105099999994,1.5714862425499996,9.57069219435,0.03543018381548489,0.003207042500539581,-0.03665191429188092,0.16282000000000002,0.2303,-0.43736,8.5,1,9305,8934,14031,33810,15.005390625,71071,23.031477294736305,1027.4409688106455,0,40.689205,-73.991731,0.77,19:19:37
2024-03-25T15:19:37,-3.22492665915,1.5714862425499996,9.56351372655,0.03497203488683638,0.003207042500539581,-0.03665191429188092,0.15974000000000002,0.22778000000000004,-0.4501,7.5,1,9305,8934,14031,33810,15.005390625,71071,23.031477294736305,1027.4409688106455,0,40.689205,-73.991731,0.77,19:19:37
2024-03-25T15:19:37,-3.2303105099999994,1.5960126742,9.535996266649999,0.03252857393404432,0.0006108652381980154,-0.036804630601430424,0.16226000000000002,0.23254000000000002,-0.42490000000000006,7.5,1,9305,8934,14031,33810,14.851875,67543,22.89193195757867,1027.4565145260822,0,40.689205,-73.991733,0.77,19:19:38
2024-03-25T15:19:38,-3.2350961551999995,1.5637095691,9.5724868113,0.03375030441044035,0.0038179077387375964,-0.03481931857728687,0.16534000000000001,0.22442,-0.43568000000000007,7.5,1,9306,8933,14035,33823,14.942890625,72475,22.954753403734273,1027.43693281797,0,40.689205,-73.991733,0.77,19:19:38
2024-03-25T15:19:38,-3.2081769009499994,1.5822539442499999,9.5437729401,0.03313943917224234,0.0027488935718910697,-0.036499197982331415,0.15078,0.22582000000000002,-0.43414,7.5,1,9306,8933,14035,33823,14.942890625,72475,22.954753403734273,1027.43693281797,0,40.689205,-73.991733,0.77,19:19:38
2024-03-25T15:19:38,-3.2075786952999996,1.5684952143,9.585049129949999,0.03634648167278191,0.003207042500539581,-0.03588833274413341,0.16114,0.21882000000000001,-0.44310000000000005,7.5,1,9306,8933,14035,33823,14.942890625,72475,22.954753403734273,1027.43693281797,0,40.689205,-73.991733,0.77,19:19:38
2024-03-25T15:19:38,-3.2362925664999995,1.5792629159999998,9.5509514079,0.03756821214917795,0.0035124751196385882,-0.036804630601430424,0.1519,0.22694000000000003,-0.44408000000000003,7.5,1,9306,8933,14035,33823,14.942890625,72475,22.954753403734273,1027.43693281797,0,40.689205,-73.991733,0.77,19:19:38
2024-03-25T15:19:38,-3.2273194817499995,1.5690934199499997,9.52881779885,0.036804630601430424,0.002901609881440573,-0.03802636107782646,0.15610000000000002,0.22442,-0.43358,7.5,1,9306,8933,14035,33823,14.7907421875,69376,22.836200423409455,1027.452995505936,0,40.689205,-73.991733,0.77,19:19:38
2024-03-25T15:19:38,-3.218346397,1.5810575329499996,9.3966143502,0.03497203488683638,0.0019853120241435504,-0.03344487179134134,0.15778,0.22498,-0.44226000000000004,7.5,0,9306,8935,14036,33824,14.7907421875,69376,22.836200423409455,1027.452995505936,0,40.689205,-73.991733,0.77,19:19:38
2024-03-25T15:19:38,-3.2207392195999995,1.5744772707999999,9.594022214699999,0.03497203488683638,0.0036651914291880926,-0.03741549583962844,0.15694000000000002,0.22862000000000005,-0.44744000000000006,8.5,0,9306,8935,14036,33824,14.7907421875,69376,22.836200423409455,1027.452995505936,0,40.689205,-73.991733,0.77,19:19:38
2024-03-25T15:19:38,-3.218346397,1.567298803,9.57428142825,0.038942658935123484,0.0003054326190990077,-0.03375030441044035,0.15862,0.22498,-0.43862000000000007,7.5,0,9306,8935,14036,33824,14.8852734375,74261,22.883596187736053,1027.4306219567409,0,40.689205,-73.991733,0.77,19:19:38
2024-03-25T15:19:38,-3.2243284535,1.5954144685499996,9.59581683165,0.037110063220529434,0.0006108652381980154,-0.03604104905368291,0.1617,0.22526000000000002,-0.43708,7.5,0,9306,8935,14036,33824,14.8852734375,74261,22.883596187736053,1027.4306219567409,0,40.689205,-73.991733,1.34,19:19:38
2024-03-25T15:19:38,-3.2338997439,1.5762718877499997,9.58145989605,0.03787364476827696,0.0027488935718910697,-0.03497203488683638,0.16394000000000003,0.22526000000000002,-0.44548000000000004,7.5,0,9306,8935,14036,33824,14.8852734375,74261,22.883596187736053,1027.4306219567409,0,40.689205,-73.991733,1.34,19:19:38
2024-03-25T15:19:38,-3.23090871565,1.5613167465000002,9.55513884745,0.03436116964863837,0.0022907446432425577,-0.03405573702953936,0.16198,0.23170000000000002,-0.44338000000000005,7.5,0,9306,8935,14036,33824,14.8852734375,74261,22.883596187736053,1027.4306219567409,0,40.689206,-73.991735,1.34,19:19:39
2024-03-25T15:19:39,-3.2350961551999995,1.5924234403,9.54197832315,0.03588833274413341,0.0022907446432425577,-0.03237585762449482,0.16366000000000003,0.2247,-0.43512000000000006,8.5,0,9303,8929,14032,33808,15.1565625,77966,22.931570206214772,1027.424853474793,0,40.689206,-73.991735,1.34,19:19:39
2024-03-25T15:19:39,-3.2273194817499995,1.6055839645999996,9.560522698299998,0.039095375244672985,0.0015271630954950385,-0.03481931857728687,0.15722000000000003,0.21882000000000001,-0.4426800000000001,8.5,0,9303,8929,14032,33808,15.1565625,77966,22.931570206214772,1027.424853474793,0,40.689206,-73.991735,1.34,19:19:39
2024-03-25T15:19:39,-3.3433713778499996,1.5786647103499998,9.576076045199999,0.03634648167278191,0.0024434609527920616,-0.03268129024359383,0.15722000000000003,0.22526000000000002,-0.45108000000000004,7.5,0,9303,8929,14032,33808,15.1565625,77966,22.931570206214772,1027.424853474793,0,40.689206,-73.991735,0.66,19:19:39
2024-03-25T15:19:39,-3.2039894614,1.5762718877499997,9.52403215365,0.03512475119638588,0.007330382858376185,-0.03436116964863837,0.16338000000000003,0.22162000000000004,-0.4432400000000001,7.5,0,9303,8929,14032,33808,15.1565625,77966,22.931570206214772,1027.424853474793,0,40.689206,-73.991735,0.66,19:19:39
2024-03-25T15:19:39,-3.2105697235499995,1.5577275125999999,9.58145989605,0.03802636107782646,0.006566801310628666,-0.03512475119638588,0.15610000000000002,0.22666000000000003,-0.44884,7.5,0,9303,8929,14032,33808,15.0766796875,74195,22.82263471650665,1027.444072016524,0,40.689205,-73.991736,0.66,19:19:40
2024-03-25T15:19:40,-3.190828937099999,1.5888342063999998,9.6035935051,0.03405573702953936,0.0036651914291880926,-0.03481931857728687,0.15582000000000001,0.22134000000000004,-0.43736,7.5,0,9304,8930,14033,33817,15.1846875,78620,22.855294032261575,1027.4373456811222,0,40.689205,-73.991736,0.66,19:19:40
2024-03-25T15:19:40,-3.2279176873999997,1.58703958945,9.57308501695,0.03298672286269283,0.0006108652381980154,-0.03252857393404432,0.1603,0.22442,-0.44072,7.5,0,9304,8930,14033,33817,15.1846875,78620,22.855294032261575,1027.4373456811222,0,40.689205,-73.991736,0.66,19:19:40
2024-03-25T15:19:40,-3.2380871834499994,1.5708880368999998,9.57188860565,0.03527746750593539,0.002138028333693054,-0.03741549583962844,0.1617,0.2303,-0.44520000000000004,7.5,0,9304,8930,14033,33817,15.1846875,78620,22.855294032261575,1027.4373456811222,0,40.689205,-73.991736,0.24,19:19:40
2024-03-25T15:19:40,-3.24406923995,1.5667005973499997,9.508478806749999,0.03344487179134134,0.0035124751196385882,-0.03802636107782646,0.16282000000000002,0.22190000000000004,-0.4424,7.5,0,9304,8930,14033,33817,15.1846875,78620,22.855294032261575,1027.4373456811222,0,40.689205,-73.991736,0.24,19:19:40
2024-03-25T15:19:40,-3.26440823205,1.5577275125999999,9.5928258034,0.036804630601430424,0.0056505034533316425,-0.03741549583962844,0.15554,0.21434000000000003,-0.43638000000000005,7.5,0,9304,8930,14033,33817,15.026875,74987,22.741640965954087,1027.4545193656809,0,40.689198,-73.991728,0.24,19:19:41
2024-03-25T15:19:41,-3.2159535744,1.5906288233499997,9.578468867799998,0.03375030441044035,0.005345070834232635,-0.03527746750593539,0.15498,0.2373,-0.42672000000000004,7.5,0,9299,8927,14022,33788,15.1051953125,79359,22.78282017001961,1027.4344321653557,0,40.689198,-73.991728,0.24,19:19:41
2024-03-25T15:19:41,-3.2177481913499997,1.5864413838,9.57428142825,0.03726277953007894,0.003970624048287101,-0.03436116964863837,0.1589,0.22862000000000005,-0.4473000000000001,7.5,0,9299,8927,14022,33788,15.1051953125,79359,22.78282017001961,1027.4344321653557,0,40.689198,-73.991728,0.24,19:19:41
2024-03-25T15:19:41,-3.2386853890999996,1.5667005973499997,9.5904329808,0.03329215548179184,0.005803219762881146,-0.03375030441044035,0.16422000000000003,0.22862000000000005,-0.44422,8.5,0,9299,8927,14022,33788,15.1051953125,79359,22.78282017001961,1027.4344321653557,0,40.689198,-73.991728,0.17,19:19:41
2024-03-25T15:19:41,-3.2081769009499994,1.5577275125999999,9.5617191096,0.03359758810089085,0.0012217304763960308,-0.03726277953007894,0.16282000000000002,0.23338000000000003,-0.4526200000000001,7.5,0,9299,8927,14022,33788,15.1051953125,79359,22.78282017001961,1027.4344321653557,0,40.689198,-73.991728,0.17,19:19:41
2024-03-25T15:19:41,-3.1854450862499997,1.5852449725,9.588638363849999,0.036804630601430424,0.0022907446432425577,-0.03726277953007894,0.16786,0.22498,-0.4443600000000001,7.5,0,9299,8927,14022,33788,14.91359375,74987,22.651643954836654,1027.4469809041266,0,40.689199,-73.99173,0.17,19:19:42
2024-03-25T15:19:42,-3.2273194817499995,1.5595221295499997,9.54197832315,0.03298672286269283,0.0044287729769356115,-0.03787364476827696,0.16842000000000001,0.22274000000000002,-0.44898000000000005,7.5,0,9296,8923,14022,33770,14.981953125,80265,22.707729420619128,1027.4328809523897,0,40.689199,-73.99173,0.17,19:19:42
2024-03-25T15:19:42,-3.0646075449499994,1.5876377951,9.57787066215,0.03695734691097993,0.001069014166846527,-0.03527746750593539,0.1603,0.22946,-0.43876000000000004,8.5,0,9296,8923,14022,33770,14.981953125,80265,22.707729420619128,1027.4328809523897,0,40.689199,-73.99173,0.17,19:19:42
2024-03-25T15:19:42,-3.2099715178999992,1.5792629159999998,9.58145989605,0.03359758810089085,0.0022907446432425577,-0.03604104905368291,0.15778,0.22750000000000004,-0.44142000000000003,7.5,0,9296,8923,14022,33770,14.981953125,80265,22.707729420619128,1027.4328809523897,0,40.689199,-73.99173,1.05,19:19:42
2024-03-25T15:19:42,-3.21655178005,1.5948162628999998,9.559326287,0.038179077387375956,0.004886921905584123,-0.03802636107782646,0.16226000000000002,0.22722000000000003,-0.45122,7.5,0,9296,8923,14022,33770,14.981953125,80265,22.707729420619128,1027.4328809523897,0,40.689199,-73.99173,1.05,19:19:42
2024-03-25T15:19:42,-3.2344979495499997,1.5690934199499997,9.608977355949998,0.03436116964863837,0.0024434609527920616,-0.03543018381548489,0.15498,0.22246000000000002,-0.4508000000000001,7.5,0,9296,8923,14022,33770,14.828046875,76206,22.599737623940925,1027.4530106399593,0,40.689199,-73.99173,1.05,19:19:43
2024-03-25T15:19:43,-3.2380871834499994,1.5786647103499998,9.59103118645,0.037110063220529434,0.0006108652381980154,-0.03527746750593539,0.16758,0.2233,-0.43176000000000003,7.5,0,9296,8923,14017,33758,14.920234375,81822,22.64167380416428,1027.435421795485,0,40.689199,-73.99173,1.05,19:19:43
2024-03-25T15:19:43,-3.2506495021,1.5744772707999999,9.607182738999999,0.03802636107782646,0.0009162978572970231,-0.03298672286269283,0.15694000000000002,0.22778000000000004,-0.43624000000000007,7.5,0,9296,8923,14017,33758,14.920234375,81822,22.64167380416428,1027.435421795485,0,40.689199,-73.99173,1.05,19:19:43
2024-03-25T15:19:43,-3.2386853890999996,1.5661023916999999,9.5557370531,0.03436116964863837,0.00045814892864851157,-0.038484510006474966,0.16394000000000003,0.22498,-0.42882000000000003,7.5,1,9291,8920,14009,33740,14.920234375,81822,22.64167380416428,1027.435421795485,0,40.689199,-73.99173,1.05,19:19:43
2024-03-25T15:19:43,-3.2410782117,1.56311136345,9.574879633899998,0.039553524173321496,0.0036651914291880926,-0.036193765363232405,0.16254000000000002,0.23114,-0.4548600000000001,8.5,1,9291,8920,14009,33740,14.920234375,81822,22.64167380416428,1027.435421795485,0,40.689199,-73.99173,1.05,19:19:43
2024-03-25T15:19:43,-3.24526565125,1.5583257182499999,9.623932497199998,0.038484510006474966,-0.0027488935718910697,-0.038637226316024474,0.1603,0.22526000000000002,-0.44072,7.5,1,9291,8920,14009,33740,14.7669140625,77751,22.554541065062544,1027.454744852415,0,40.689199,-73.99173,1.05,19:19:43
2024-03-25T15:19:43,-3.21535536875,1.5864413838,9.57308501695,0.03451388595818787,0.001069014166846527,-0.038179077387375956,0.1617,0.23786000000000002,-0.42812000000000006,7.5,1,9291,8920,14009,33740,14.7669140625,77751,22.554541065062544,1027.454744852415,0,40.689199,-73.99173,1.05,19:19:43
2024-03-25T15:19:43,-3.2297123043499996,1.5798611216499998,9.574879633899998,0.038484510006474966,0.0022907446432425577,-0.03543018381548489,0.16646,0.23086,-0.43750000000000006,7.5,1,9291,8920,14009,33740,14.7669140625,77751,22.554541065062544,1027.454744852415,0,40.689199,-73.99173,1.05,19:19:43
2024-03-25T15:19:43,-3.1998020218499996,1.5936198515999997,9.606584533349999,0.0355829001250344,0.004276056667386108,-0.036193765363232405,0.16086,0.22862000000000005,-0.43582000000000004,8.5,1,9291,8920,14009,33740,14.7669140625,77751,22.554541065062544,1027.454744852415,0,40.689199,-73.99173,1.05,19:19:43
2024-03-25T15:19:43,-3.21176613485,1.59661087985,9.571290399999999,0.03527746750593539,0.004581489286485115,-0.03665191429188092,0.1603,0.22582000000000002,-0.4513600000000001,7.5,1,9291,8920,14009,33740,14.8630078125,83276,22.596684888658338,1027.4297664355772,0,40.689199,-73.99173,0.53,19:19:43
2024-03-25T15:19:43,-3.22612307045,1.5565311012999998,9.547960379649998,0.03665191429188092,0.007635815477475193,-0.03527746750593539,0.15554,0.23002,-0.43498000000000003,8.5,1,9291,8920,14009,33740,14.8630078125,83276,22.596684888658338,1027.4297664355772,0,40.689199,-73.99173,0.53,19:19:43
2024-03-25T15:19:43,-3.2219356309,1.5690934199499997,9.5365944723,0.038484510006474966,0.0024434609527920616,-0.03466660226773738,0.15862,0.2247,-0.4389,8.5,1,9291,8920,14009,33740,14.8630078125,83276,22.596684888658338,1027.4297664355772,0,40.689198,-73.991726,0.53,19:19:44
2024-03-25T15:19:44,-3.1992038162,1.58464676685,9.601798888149998,0.0355829001250344,0.006108652381980154,-0.03359758810089085,0.15274000000000001,0.21966000000000002,-0.44702000000000003,7.5,0,9289,8917,14011,33735,15.1352734375,87508,22.65483956071432,1027.4256769248893,0,40.689198,-73.991726,0.53,19:19:44
2024-03-25T15:19:44,-3.2512477077499997,1.5720844482,9.54556755705,0.036499197982331415,0.005345070834232635,-0.036804630601430424,0.15974000000000002,0.22442,-0.43820000000000003,7.5,0,9289,8917,14011,33735,15.1352734375,87508,22.65483956071432,1027.4256769248893,0,40.689198,-73.991726,0.53,19:19:44
2024-03-25T15:19:44,-3.2446674455999998,1.57507547645,9.55633525875,0.038789942625573975,0.003970624048287101,-0.036499197982331415,0.15218,0.22022000000000003,-0.4473000000000001,7.5,0,9289,8917,14011,33735,15.1352734375,87508,22.65483956071432,1027.4256769248893,0,40.689198,-73.991726,0.31,19:19:44
2024-03-25T15:19:44,-3.2039894614,1.5708880368999998,9.587441952549998,0.03451388595818787,0.0036651914291880926,-0.0357356164345839,0.16226000000000002,0.23058,-0.44492000000000004,8.5,0,9289,8917,14011,33735,15.1352734375,87508,22.65483956071432,1027.4256769248893,0,40.689198,-73.991726,0.31,19:19:44
2024-03-25T15:19:44,-3.2135607518,1.5613167465000002,9.585049129949999,0.03497203488683638,0.004276056667386108,-0.03436116964863837,0.1617,0.22610000000000002,-0.45654,7.5,0,9289,8917,14011,33735,15.0403515625,82786,22.540095468352362,1027.4369820228155,0,40.689199,-73.991721,0.31,19:19:45
2024-03-25T15:19:45,-3.2279176873999997,1.5858431781499998,9.587441952549998,0.03787364476827696,0.004123340357836604,-0.036499197982331415,0.15386000000000002,0.22610000000000002,-0.42364,7.5,0,9290,8917,14015,33736,15.1462109375,88240,22.598426086388326,1027.4283922563623,0,40.689199,-73.991721,0.31,19:19:45
2024-03-25T15:19:45,-3.19621278795,1.5888342063999998,9.6083791503,0.03283400655314333,0.003054326190990077,-0.03466660226773738,0.15750000000000003,0.21994000000000002,-0.4496800000000001,7.5,0,9290,8917,14015,33736,15.1462109375,88240,22.598426086388326,1027.4283922563623,0,40.689199,-73.991721,0.31,19:19:45
2024-03-25T15:19:45,-3.212962546149999,1.5816557385999996,9.5485585853,0.03924809155422249,0.0025961772623415654,-0.038789942625573975,0.15946000000000002,0.22750000000000004,-0.44212000000000007,8.5,0,9290,8917,14015,33736,15.1462109375,88240,22.598426086388326,1027.4283922563623,0,40.689199,-73.991721,0.23,19:19:45
2024-03-25T15:19:45,-3.1854450862499997,1.5888342063999998,9.61137017855,0.0355829001250344,0.0035124751196385882,-0.03497203488683638,0.16282000000000002,0.22106000000000003,-0.44478,7.5,0,9290,8917,14015,33736,15.1462109375,88240,22.598426086388326,1027.4283922563623,0,40.689199,-73.991721,0.23,19:19:45
2024-03-25T15:19:45,-3.2027930501,1.5804593272999998,9.552746024849998,0.03390302071998985,0.001069014166846527,-0.03313943917224234,0.1659,0.22554000000000002,-0.43344000000000005,8.5,0,9290,8917,14015,33736,14.9721875,82704,22.458207032756317,1027.4444165676928,0,40.689199,-73.991716,0.23,19:19:46
2024-03-25T15:19:46,-3.22133742525,1.5834503555499997,9.5330052384,0.036804630601430424,0.003207042500539581,-0.036193765363232405,0.15806,0.21714000000000003,-0.43414,8.5,1,9292,8919,14018,33745,15.0454296875,88056,22.50930042762642,1027.426281012471,0,40.689199,-73.991716,0.23,19:19:46
2024-03-25T15:19:46,-3.19621278795,1.5714862425499996,9.589834775149999,0.03634648167278191,0.0035124751196385882,-0.0355829001250344,0.16450000000000004,0.22442,-0.44646,7.5,1,9292,8919,14018,33745,15.0454296875,88056,22.50930042762642,1027.426281012471,0,40.689199,-73.991716,0.23,19:19:46
2024-03-25T15:19:46,-3.2380871834499994,1.5744772707999999,9.552746024849998,0.036499197982331415,0.005039638215133627,-0.039553524173321496,0.16702,0.22078000000000003,-0.43638000000000005,7.5,1,9292,8919,14018,33745,15.0454296875,88056,22.50930042762642,1027.426281012471,0,40.689199,-73.991716,0.33,19:19:46
2024-03-25T15:19:46,-3.2099715178999992,1.5906288233499997,9.566504754799999,0.03802636107782646,0.0044287729769356115,-0.03665191429188092,0.16982000000000003,0.22498,-0.44996,7.5,1,9292,8919,14018,33745,15.0454296875,88056,22.50930042762642,1027.426281012471,0,40.689199,-73.991716,0.33,19:19:46
2024-03-25T15:19:46,-3.1824540579999994,1.6187444888999998,9.539585500549999,0.039400807863771994,0.0024434609527920616,-0.03497203488683638,0.16002000000000002,0.22694000000000003,-0.43862000000000007,7.5,1,9292,8919,14018,33745,14.879609375,83939,22.39044883006942,1027.450845580413,0,40.689205,-73.991718,0.33,19:19:47
2024-03-25T15:19:47,-3.2285158930499995,1.5619149521499998,9.606584533349999,0.03359758810089085,0.0038179077387375964,-0.03695734691097993,0.1547,0.22190000000000004,-0.42938000000000004,7.5,0,9294,8915,14017,33751,14.9618359375,89456,22.44203791525918,1027.4269018749574,0,40.689205,-73.991718,0.33,19:19:47
2024-03-25T15:19:47,-3.19381996535,1.5738790651499999,9.553344230499999,0.04016438941151951,0.006261368691529657,-0.036804630601430424,0.15554,0.23450000000000004,-0.43848000000000004,8.5,0,9294,8915,14017,33751,14.9618359375,89456,22.44203791525918,1027.4269018749574,0,40.689205,-73.991718,0.33,19:19:47
2024-03-25T15:19:47,-3.2171499857,1.59661087985,9.6047899164,0.03405573702953936,0.007483099167925688,-0.030848694528999777,0.16478000000000004,0.22638000000000003,-0.44310000000000005,7.5,0,9294,8915,14017,33751,14.9618359375,89456,22.44203791525918,1027.4269018749574,0,40.689205,-73.991718,0.39,19:19:47
2024-03-25T15:19:47,-3.21655178005,1.5768700934,9.60060247685,0.036193765363232405,0.002901609881440573,-0.03741549583962844,0.15610000000000002,0.22358,-0.43568000000000007,7.5,0,9294,8915,14017,33751,14.9618359375,89456,22.44203791525918,1027.4269018749574,0,40.689205,-73.991718,0.39,19:19:47
2024-03-25T15:19:47,-3.24287282865,1.5637095691,9.53479985535,0.03329215548179184,0.0022907446432425577,-0.03543018381548489,0.15414000000000003,0.22358,-0.4333000000000001,7.5,0,9294,8915,14017,33751,14.8096875,84697,22.33446962639856,1027.4412271161902,0,40.689206,-73.991716,0.39,19:19:48
2024-03-25T15:19:48,-3.2279176873999997,1.5643077747499998,9.56829937175,0.03405573702953936,0.003970624048287101,-0.03634648167278191,0.15274000000000001,0.22834000000000004,-0.43806000000000006,7.5,1,9289,8913,14013,33735,14.904609375,90221,22.40749469726578,1027.4212575948754,0,40.689206,-73.991716,0.39,19:19:48
2024-03-25T15:19:48,-3.2111679291999993,1.5864413838,9.55992449265,0.03802636107782646,0.0018325957145940463,-0.03588833274413341,0.15862,0.2303,-0.43288000000000004,7.5,1,9289,8913,14013,33735,14.904609375,90221,22.40749469726578,1027.4212575948754,0,40.689206,-73.991716,0.39,19:19:48
2024-03-25T15:19:48,-3.2267212760999997,1.5732808595,9.57547783955,0.03665191429188092,0.00473420559603462,-0.03756821214917795,0.16422000000000003,0.22526000000000002,-0.43834,7.5,1,9289,8913,14013,33735,14.904609375,90221,22.40749469726578,1027.4212575948754,0,40.689206,-73.991716,0.39,19:19:48
2024-03-25T15:19:48,-3.2105697235499995,1.5768700934,9.553344230499999,0.03375030441044035,0.004276056667386108,-0.03756821214917795,0.16086,0.22442,-0.43918000000000007,7.5,1,9289,8913,14013,33735,14.904609375,90221,22.40749469726578,1027.4212575948754,0,40.689206,-73.991716,0.39,19:19:48
2024-03-25T15:19:48,-3.2075786952999996,1.5684952143,9.560522698299998,0.0355829001250344,-0.0006108652381980154,-0.03420845333908886,0.16506,0.23254000000000002,-0.45192,7.5,1,9289,8913,14013,33735,14.7680859375,86167,22.29575203170804,1027.4427032763406,0,40.689206,-73.991716,0.39,19:19:48
2024-03-25T15:19:48,-3.2231320422,1.5810575329499996,9.57667425085,0.0357356164345839,0.00916297857297023,-0.03665191429188092,0.16310000000000002,0.23170000000000002,-0.43344000000000005,7.5,1,9289,8913,14013,33735,14.7680859375,86167,22.29575203170804,1027.4427032763406,0,40.689206,-73.991716,0.39,19:19:48
2024-03-25T15:19:48,-3.2291140986999998,1.5834503555499997,9.558129875699999,0.036499197982331415,0.00595593607243065,-0.03481931857728687,0.16338000000000003,0.22834000000000004,-0.44520000000000004,8.5,1,9289,8913,14013,33735,14.7680859375,86167,22.29575203170804,1027.4427032763406,0,40.689206,-73.991716,0.39,19:19:48
2024-03-25T15:19:48,-3.22014101395,1.5828521499,9.559326287,0.036804630601430424,0.005039638215133627,-0.03436116964863837,0.15834,0.2303,-0.44492000000000004,7.5,1,9289,8913,14013,33735,14.7680859375,86167,22.29575203170804,1027.4427032763406,0,40.689206,-73.991716,0.39,19:19:48
2024-03-25T15:19:48,-3.2327033326,1.5996019081,9.57787066215,0.03497203488683638,0.003970624048287101,-0.0355829001250344,0.15694000000000002,0.23310000000000003,-0.43820000000000003,7.5,1,9289,8913,14013,33735,14.873359375,91792,22.359014320128956,1027.4262423890698,0,40.689206,-73.991716,0.39,19:19:48
2024-03-25T15:19:48,-3.2177481913499997,1.5936198515999997,9.560522698299998,0.03344487179134134,0.0013744467859455349,-0.03481931857728687,0.1547,0.23394000000000004,-0.44100000000000006,7.5,1,9289,8913,14013,33735,14.873359375,91792,22.359014320128956,1027.4262423890698,0,40.689206,-73.991716,0.39,19:19:48
2024-03-25T15:19:48,-3.2530423247,1.5649059803999998,9.58265630735,0.03359758810089085,-0.0033597588100890844,-0.03512475119638588,0.16142,0.23254000000000002,-0.44072,7.5,1,9289,8913,14013,33735,14.873359375,91792,22.359014320128956,1027.4262423890698,0,40.689205,-73.99171,0.39,19:19:49
2024-03-25T15:19:49,-3.2368907721499993,1.5690934199499997,9.526424976249999,0.03268129024359383,0.0015271630954950385,-0.03420845333908886,0.15414000000000003,0.22806000000000004,-0.44170000000000004,7.5,0,9288,8913,14006,33726,15.150703125,93698,22.417247196245405,1027.4289748445701,0,40.689205,-73.99171,0.39,19:19:49
2024-03-25T15:19:49,-3.2410782117,1.5864413838,9.57787066215,0.03512475119638588,0.0019853120241435504,-0.03726277953007894,0.16142,0.23114,-0.44254000000000004,7.5,0,9288,8913,14006,33726,15.150703125,93698,22.417247196245405,1027.4289748445701,0,40.689205,-73.99171,0.39,19:19:49
2024-03-25T15:19:49,-3.2386853890999996,1.6031911419999998,9.5557370531,0.03451388595818787,0.002901609881440573,-0.0355829001250344,0.16142,0.22694000000000003,-0.44688000000000005,7.5,0,9288,8913,14006,33726,15.150703125,93698,22.417247196245405,1027.4289748445701,0,40.689205,-73.99171,0.33,19:19:49
2024-03-25T15:19:49,-3.2075786952999996,1.57746829905,9.56949578305,0.03695734691097993,0.0015271630954950385,-0.0357356164345839,0.15526,0.23086,-0.43260000000000004,7.5,0,9288,8913,14006,33726,15.150703125,93698,22.417247196245405,1027.4289748445701,0,40.689205,-73.99171,0.33,19:19:49
2024-03-25T15:19:49,-3.3535408738999997,1.5661023916999999,9.510871629349998,0.0357356164345839,0.0016798794050445422,-0.03543018381548489,0.16058,0.22526000000000002,-0.44310000000000005,7.5,0,9288,8913,14006,33726,15.0563671875,90512,22.30280142276991,1027.4412776101049,0,40.689205,-73.991703,0.33,19:19:50
2024-03-25T15:19:50,-3.2004002274999994,1.5780665047,9.56829937175,0.03512475119638588,0.005345070834232635,-0.03588833274413341,0.15974000000000002,0.23002,-0.43526000000000004,7.5,0,9290,8916,14011,33725,15.1614453125,94169,22.355748412159027,1027.4278507969811,0,40.689205,-73.991703,0.33,19:19:50
2024-03-25T15:19:50,-3.0729824240499997,1.5714862425499996,9.594022214699999,0.03634648167278191,0.0035124751196385882,-0.03665191429188092,0.15526,0.2303,-0.44352,7.5,0,9290,8916,14011,33725,15.1614453125,94169,22.355748412159027,1027.4278507969811,0,40.689205,-73.991703,0.33,19:19:50
2024-03-25T15:19:50,-3.2494530907999994,1.5756736821,9.57188860565,0.03787364476827696,0.0027488935718910697,-0.03298672286269283,0.15498,0.23254000000000002,-0.4467400000000001,7.5,1,9291,8914,14015,33737,15.1614453125,94169,22.355748412159027,1027.4278507969811,0,40.689205,-73.991703,0.77,19:19:50
2024-03-25T15:19:50,-3.2356943608499997,1.5792629159999998,9.511469835,0.03665191429188092,0.0035124751196385882,-0.036804630601430424,0.1603,0.22750000000000004,-0.44576000000000005,7.5,1,9291,8914,14015,33737,15.1614453125,94169,22.355748412159027,1027.4278507969811,0,40.689205,-73.991703,0.77,19:19:50
2024-03-25T15:19:50,-3.2482566795,1.5696916255999998,9.580263484749999,0.03787364476827696,0.006414085001079162,-0.03787364476827696,0.16814,0.22890000000000005,-0.44954,8.5,1,9291,8914,14015,33737,14.9848828125,90415,22.24675609404097,1027.4518674094625,0,40.689206,-73.991703,0.77,19:19:51
2024-03-25T15:19:51,-3.2356943608499997,1.5864413838,9.567102960449999,0.03772092845872745,0.007635815477475193,-0.038179077387375956,0.15778,0.23674,-0.44632000000000005,7.5,0,9285,8909,14009,33724,15.056953125,93959,22.28731377580605,1027.431745572299,0,40.689206,-73.991703,0.77,19:19:51
2024-03-25T15:19:51,-3.2147571630999994,1.5667005973499997,9.587441952549998,0.03756821214917795,0.003970624048287101,-0.04123340357836604,0.15666000000000002,0.23114,-0.43918000000000007,7.5,0,9285,8909,14009,33724,15.056953125,93959,22.28731377580605,1027.431745572299,0,40.689206,-73.991703,0.77,19:19:51
2024-03-25T15:19:51,-3.2458638569,1.5792629159999998,9.57308501695,0.03787364476827696,0.0003054326190990077,-0.03375030441044035,0.15582000000000001,0.23562000000000002,-0.43848000000000004,7.5,0,9285,8909,14009,33724,15.056953125,93959,22.28731377580605,1027.431745572299,0,40.689206,-73.991703,0.29,19:19:51
2024-03-25T15:19:51,-3.22014101395,1.5714862425499996,9.5724868113,0.03481931857728687,0.003054326190990077,-0.03527746750593539,0.16534000000000001,0.23394000000000004,-0.44814000000000004,7.5,0,9285,8909,14009,33724,15.056953125,93959,22.28731377580605,1027.431745572299,0,40.689206,-73.991703,0.29,19:19:51
2024-03-25T15:19:51,-3.2285158930499995,1.5828521499,9.602995299449999,0.03665191429188092,0.0018325957145940463,-0.03451388595818787,0.16114,0.22778000000000004,-0.44296,7.5,0,9285,8909,14009,33724,14.89328125,90902,22.194713689684573,1027.4511860258315,0,40.689208,-73.991703,0.29,19:19:52
2024-03-25T15:19:52,-3.22492665915,1.5493526335,9.523433948,0.03604104905368291,0.004276056667386108,-0.03741549583962844,0.15218,0.23534000000000002,-0.43274000000000007,7.5,1,9283,8909,14002,33715,14.9786328125,95339,22.24637946830968,1027.4307704982764,0,40.689208,-73.991703,0.29,19:19:52
2024-03-25T15:19:52,-3.2027930501,1.5744772707999999,9.56949578305,0.03726277953007894,0.005039638215133627,-0.03543018381548489,0.15610000000000002,0.22918000000000002,-0.43484,7.5,1,9283,8909,14002,33715,14.9786328125,95339,22.24637946830968,1027.4307704982764,0,40.689208,-73.991703,0.29,19:19:52
2024-03-25T15:19:52,-3.2303105099999994,1.56789700865,9.567701166099999,0.03451388595818787,0.004276056667386108,-0.036193765363232405,0.15974000000000002,0.23338000000000003,-0.43302,8.5,1,9283,8909,14002,33715,14.9786328125,95339,22.24637946830968,1027.4307704982764,0,40.689208,-73.991703,0.52,19:19:52
2024-03-25T15:19:52,-3.2189446026499997,1.6007983193999997,9.551549613549998,0.039706240482871004,0.0019853120241435504,-0.04016438941151951,0.15386000000000002,0.2247,-0.44002,7.5,1,9283,8909,14002,33715,14.9786328125,95339,22.24637946830968,1027.4307704982764,0,40.689208,-73.991703,0.52,19:19:52
2024-03-25T15:19:52,-3.2243284535,1.58703958945,9.56949578305,0.03772092845872745,0.0054977871437821395,-0.03481931857728687,0.16450000000000004,0.22750000000000004,-0.44156000000000006,7.5,1,9283,8909,14002,33715,14.827265625,91792,22.149414244969126,1027.4499352858202,0,40.689205,-73.991698,0.52,19:19:53
2024-03-25T15:19:53,-3.2285158930499995,1.5696916255999998,9.513264451949999,0.03466660226773738,0.0013744467859455349,-0.03481931857728687,0.15750000000000003,0.22526000000000002,-0.4478600000000001,7.5,0,9284,8910,14006,33714,14.9227734375,96374,22.21716322692851,1027.4379645497743,0,40.689205,-73.991698,0.52,19:19:53
2024-03-25T15:19:53,-3.2506495021,1.5804593272999998,9.527621387549999,0.03512475119638588,0.002138028333693054,-0.03222314131494531,0.15554,0.22610000000000002,-0.43876000000000004,7.5,0,9284,8910,14006,33714,14.9227734375,96374,22.21716322692851,1027.4379645497743,0,40.689205,-73.991698,0.52,19:19:53
2024-03-25T15:19:53,-3.2446674455999998,1.5810575329499996,9.59940606555,0.03543018381548489,0.0018325957145940463,-0.03375030441044035,0.16002000000000002,0.22582000000000002,-0.4526200000000001,7.5,0,9284,8910,14006,33714,14.9227734375,96374,22.21716322692851,1027.4379645497743,0,40.689205,-73.991698,0.52,19:19:53
2024-03-25T15:19:53,-3.2015966387999995,1.5762718877499997,9.537790883599998,0.03451388595818787,0.003970624048287101,-0.03665191429188092,0.15414000000000003,0.22246000000000002,-0.43946,7.5,0,9284,8910,14006,33714,14.9227734375,96374,22.21716322692851,1027.4379645497743,0,40.689205,-73.991698,0.52,19:19:53
2024-03-25T15:19:53,-3.2470602682,1.5972090855,9.560522698299998,0.03695734691097993,0.005192354524683131,-0.0316122760767473,0.16002000000000002,0.22750000000000004,-0.43372000000000005,7.5,0,9284,8910,14006,33714,14.7825390625,93006,22.131238841900675,1027.454891346018,0,40.689205,-73.991698,0.52,19:19:53
2024-03-25T15:19:53,-3.2267212760999997,1.5397813431,9.58145989605,0.03512475119638588,0.005192354524683131,-0.036193765363232405,0.16702,0.23198000000000002,-0.42252000000000006,7.5,0,9284,8910,14006,33714,14.7825390625,93006,22.131238841900675,1027.454891346018,0,40.689205,-73.991698,0.52,19:19:53
2024-03-25T15:19:53,-3.2333015382499997,1.5619149521499998,9.601798888149998,0.03543018381548489,0.0019853120241435504,-0.03298672286269283,0.16142,0.22134000000000004,-0.43778,7.5,0,9284,8910,14006,33714,14.7825390625,93006,22.131238841900675,1027.454891346018,0,40.689205,-73.991698,0.52,19:19:53
2024-03-25T15:19:53,-3.1986056105499996,1.5900306176999999,9.4923272542,0.036193765363232405,0.005039638215133627,-0.036193765363232405,0.16198,0.22414,-0.44044000000000005,7.5,0,9284,8910,14006,33714,14.7825390625,93006,22.131238841900675,1027.454891346018,0,40.689205,-73.991698,0.52,19:19:53
2024-03-25T15:19:53,-3.2291140986999998,1.59900370245,9.58624554125,0.038484510006474966,0.0035124751196385882,-0.03527746750593539,0.1617,0.23142000000000001,-0.42924000000000007,7.5,0,9284,8910,14006,33714,14.88625,97039,22.194291217842537,1027.4410415589464,0,40.689205,-73.991698,0.51,19:19:53
2024-03-25T15:19:53,-3.24167641735,1.5577275125999999,9.56590654915,0.03283400655314333,0.0035124751196385882,-0.03604104905368291,0.15974000000000002,0.22078000000000003,-0.4389,7.5,0,9284,8910,14006,33714,14.88625,97039,22.194291217842537,1027.4410415589464,0,40.689205,-73.991698,0.51,19:19:53
2024-03-25T15:19:53,-3.2327033326,1.5696916255999998,9.585049129949999,0.038637226316024474,0.00473420559603462,-0.03420845333908886,0.16282000000000002,0.22890000000000005,-0.43498000000000003,7.5,0,9284,8910,14006,33714,14.88625,97039,22.194291217842537,1027.4410415589464,0,40.68921,-73.991698,0.51,19:19:54
2024-03-25T15:19:54,-3.22612307045,1.5978072911499999,9.59462042035,0.0357356164345839,0.006414085001079162,-0.03527746750593539,0.16142,0.22526000000000002,-0.43862000000000007,7.5,0,9285,8910,14004,33712,15.1645703125,101657,22.242075852742932,1027.4401538150887,0,40.68921,-73.991698,0.51,19:19:54
2024-03-25T15:19:54,-3.2333015382499997,1.567298803,9.56590654915,0.03466660226773738,0.0027488935718910697,-0.03436116964863837,0.15750000000000003,0.22498,-0.43106000000000005,7.5,0,9285,8910,14004,33712,15.1645703125,101657,22.242075852742932,1027.4401538150887,0,40.68921,-73.991698,0.51,19:19:54
2024-03-25T15:19:54,-3.2350961551999995,1.58703958945,9.583852718649998,0.036804630601430424,-0.0027488935718910697,-0.03665191429188092,0.15274000000000001,0.22498,-0.44422,7.5,0,9285,8910,14004,33712,15.1645703125,101657,22.242075852742932,1027.4401538150887,0,40.68921,-73.991698,0.72,19:19:54
2024-03-25T15:19:54,-3.218346397,1.5798611216499998,9.56949578305,0.03756821214917795,-0.0007635815477475193,-0.03436116964863837,0.15862,0.22722000000000003,-0.44758000000000003,7.5,0,9285,8910,14004,33712,15.0731640625,95990,22.15383864267849,1027.4574175949874,0,40.68921,-73.991698,0.72,19:19:54
2024-03-25T15:19:54,-3.22373024785,1.5690934199499997,9.576076045199999,0.038637226316024474,0.004581489286485115,-0.03802636107782646,0.16338000000000003,0.22974,-0.4529,7.5,0,9285,8910,14004,33712,15.0731640625,95990,22.15383864267849,1027.4574175949874,0,40.689213,-73.991698,0.72,19:19:55
2024-03-25T15:19:55,-3.2279176873999997,1.5900306176999999,9.561120903949998,0.038637226316024474,0.004276056667386108,-0.03375030441044035,0.15694000000000002,0.22666000000000003,-0.4467400000000001,7.5,0,9278,8904,13996,33689,15.17921875,102273,22.196409588672108,1027.4403744165475,0,40.689213,-73.991698,0.72,19:19:55
2024-03-25T15:19:55,-3.2159535744,1.5696916255999998,9.587441952549998,0.03344487179134134,0.0019853120241435504,-0.03543018381548489,0.15554,0.22806000000000004,-0.4467400000000001,7.5,0,9278,8904,13996,33689,15.17921875,102273,22.196409588672108,1027.4403744165475,0,40.689213,-73.991698,0.72,19:19:55
2024-03-25T15:19:55,-3.2297123043499996,1.60139652505,9.53838908925,0.0357356164345839,0.003207042500539581,-0.037110063220529434,0.15498,0.22806000000000004,-0.43848000000000004,7.5,0,9278,8904,13996,33689,15.17921875,102273,22.196409588672108,1027.4403744165475,0,40.689213,-73.991698,0.23,19:19:55
2024-03-25T15:19:55,-3.2087751065999996,1.57746829905,9.58145989605,0.036804630601430424,0.004123340357836604,-0.03543018381548489,0.15778,0.23422000000000004,-0.4426800000000001,7.5,0,9278,8904,13996,33689,15.17921875,102273,22.196409588672108,1027.4403744165475,0,40.689213,-73.991698,0.23,19:19:55
2024-03-25T15:19:55,-3.2273194817499995,1.5858431781499998,9.530014210149998,0.03436116964863837,0.0025961772623415654,-0.03375030441044035,0.15414000000000003,0.23310000000000003,-0.43960000000000005,7.5,0,9278,8904,13996,33689,14.998359375,95935,22.09768111235245,1027.451871010538,0,40.68921,-73.991696,0.23,19:19:56
2024-03-25T15:19:56,-3.2434710343,1.57746829905,9.6035935051,0.03604104905368291,0.0024434609527920616,-0.03298672286269283,0.15246,0.22974,-0.43442000000000003,7.5,1,9278,8904,13999,33696,15.0676953125,101351,22.15351000380287,1027.420102741371,0,40.68921,-73.991696,0.23,19:19:56
2024-03-25T15:19:56,-3.2458638569,1.5738790651499999,9.5772724565,0.03634648167278191,0.0022907446432425577,-0.03298672286269283,0.15862,0.2303,-0.43316000000000004,8.5,1,9278,8904,13999,33696,15.0676953125,101351,22.15351000380287,1027.420102741371,0,40.68921,-73.991696,0.23,19:19:56
2024-03-25T15:19:56,-3.2464620625499996,1.5768700934,9.571290399999999,0.03283400655314333,0.005803219762881146,-0.0357356164345839,0.16450000000000004,0.22806000000000004,-0.43316000000000004,7.5,1,9278,8904,13999,33696,15.0676953125,101351,22.15351000380287,1027.420102741371,0,40.68921,-73.991696,0.2,19:19:56
2024-03-25T15:19:56,-3.2141589574499996,1.5852449725,9.6215396746,0.03313943917224234,0.002901609881440573,-0.03543018381548489,0.16198,0.22722000000000003,-0.43988000000000005,7.5,1,9278,8904,13999,33696,15.0676953125,101351,22.15351000380287,1027.420102741371,0,40.68921,-73.991696,0.2,19:19:56
2024-03-25T15:19:56,-3.2482566795,1.5816557385999996,9.578468867799998,0.03298672286269283,0.0019853120241435504,-0.03420845333908886,0.16702,0.22890000000000005,-0.44002,7.5,1,9278,8904,13999,33696,14.9087109375,96594,22.07165710575875,1027.440472179113,0,40.689208,-73.991693,0.2,19:19:57
2024-03-25T15:19:57,-3.2356943608499997,1.5547364843499998,9.583852718649998,0.038484510006474966,0.0006108652381980154,-0.03283400655314333,0.1589,0.22666000000000003,-0.44296,7.5,1,9280,8905,13999,33696,14.9942578125,102273,22.12326435990164,1027.422133009155,0,40.689208,-73.991693,0.2,19:19:57
2024-03-25T15:19:57,-3.2464620625499996,1.5834503555499997,9.643075077999999,0.03543018381548489,0.004886921905584123,-0.03634648167278191,0.15302000000000002,0.2233,-0.4424,7.5,1,9280,8905,13999,33696,14.9942578125,102273,22.12326435990164,1027.422133009155,0,40.689208,-73.991693,0.2,19:19:57
2024-03-25T15:19:57,-3.2177481913499997,1.5786647103499998,9.56351372655,0.03420845333908886,0.004581489286485115,-0.03130684345764829,0.15694000000000002,0.22750000000000004,-0.43232000000000004,7.5,1,9280,8905,13999,33696,14.9942578125,102273,22.12326435990164,1027.422133009155,0,40.689208,-73.991693,0.86,19:19:57
2024-03-25T15:19:57,-3.1926235540500003,1.5720844482,9.59581683165,0.03420845333908886,0.003970624048287101,-0.038942658935123484,0.15946000000000002,0.23142000000000001,-0.4466,7.5,1,9279,8904,14000,33694,14.9942578125,102273,22.12326435990164,1027.422133009155,0,40.689208,-73.991693,0.86,19:19:57
2024-03-25T15:19:57,-3.2494530907999994,1.57746829905,9.562317315249999,0.03924809155422249,0.0036651914291880926,-0.038484510006474966,0.16198,0.2247,-0.44114000000000003,7.5,1,9279,8904,14000,33694,14.8430859375,96983,22.031601497520622,1027.4469013403232,0,40.689211,-73.991693,0.86,19:19:58
2024-03-25T15:19:58,-3.2368907721499993,1.5858431781499998,9.6131647955,0.03405573702953936,0.005192354524683131,-0.03390302071998985,0.16198,0.22722000000000003,-0.44184,7.5,1,9285,8907,14009,33709,14.93703125,103401,22.088843173786504,1027.4322792718713,0,40.689211,-73.991693,0.86,19:19:58
2024-03-25T15:19:58,-3.2285158930499995,1.5517454561000001,9.54676396835,0.03772092845872745,0.00473420559603462,-0.03481931857728687,0.16450000000000004,0.2373,-0.43820000000000003,7.5,1,9285,8907,14009,33709,14.93703125,103401,22.088843173786504,1027.4322792718713,0,40.689211,-73.991693,0.86,19:19:58
2024-03-25T15:19:58,-3.24167641735,1.5978072911499999,9.5557370531,0.03329215548179184,0.004123340357836604,-0.03466660226773738,0.16002000000000002,0.22806000000000004,-0.43666000000000005,7.5,1,9285,8907,14009,33709,14.93703125,103401,22.088843173786504,1027.4322792718713,0,40.689211,-73.991693,0.86,19:19:58
2024-03-25T15:19:58,-3.20698048965,1.5451651939499997,9.530612415799999,0.041996985126113565,0.0013744467859455349,-0.0357356164345839,0.16142,0.22218000000000004,-0.44310000000000005,7.5,1,9285,8907,14009,33709,14.93703125,103401,22.088843173786504,1027.4322792718713,0,40.689211,-73.991693,0.86,19:19:58
2024-03-25T15:19:58,-3.22014101395,1.57268265385,9.556933464399998,0.00045814892864851157,0.0016798794050445422,-0.04046982203061852,0.16618,0.22442,-0.44296,7.5,1,9285,8907,14009,33709,14.796796875,98053,22.013359665181312,1027.4509698337213,0,40.689211,-73.991693,0.86,19:19:58
2024-03-25T15:19:58,-3.2506495021,1.5786647103499998,9.53719267795,0.031459559767197796,0.003054326190990077,-0.03481931857728687,0.15638000000000002,0.23058,-0.43288000000000004,7.5,1,9285,8907,14009,33709,14.796796875,98053,22.013359665181312,1027.4509698337213,0,40.689211,-73.991693,0.86,19:19:58
2024-03-25T15:19:58,-3.2093733122499994,1.5900306176999999,9.583852718649998,0.03527746750593539,0.00015271630954950385,-0.03405573702953936,0.16086,0.22414,-0.44226000000000004,7.5,1,9285,8907,14009,33709,14.796796875,98053,22.013359665181312,1027.4509698337213,0,40.689211,-73.991693,0.86,19:19:58
2024-03-25T15:19:58,-3.2512477077499997,1.5714862425499996,9.566504754799999,0.03298672286269283,0.006108652381980154,-0.03665191429188092,0.15246,0.22806000000000004,-0.42910000000000004,7.5,1,9285,8907,14009,33709,14.796796875,98053,22.013359665181312,1027.4509698337213,0,40.689211,-73.991693,0.86,19:19:58
2024-03-25T15:19:58,-3.2350961551999995,1.5714862425499996,9.5868437469,0.03741549583962844,0.002901609881440573,-0.03375030441044035,0.16198,0.22582000000000002,-0.44954,7.5,1,9285,8907,14009,33709,14.899140625,104102,22.076248069883142,1027.4365525012238,0,40.689211,-73.991693,0.72,19:19:58
2024-03-25T15:19:58,-3.2321051269499996,1.567298803,9.513862657599999,0.03787364476827696,0.005039638215133627,-0.039553524173321496,0.16114,0.23170000000000002,-0.4397400000000001,7.5,1,9285,8907,14009,33709,14.899140625,104102,22.076248069883142,1027.4365525012238,0,40.689211,-73.991693,0.72,19:19:58
2024-03-25T15:19:58,-3.2386853890999996,1.5655041860499999,9.543174734449998,0.028863382504856226,0.0007635815477475193,-0.03695734691097993,0.1659,0.23814000000000002,-0.4526200000000001,7.5,1,9285,8907,14009,33709,14.899140625,104102,22.076248069883142,1027.4365525012238,0,40.689213,-73.991695,0.72,19:19:59
2024-03-25T15:19:59,-3.27278311115,1.5738790651499999,9.60419171075,0.03436116964863837,0.0018325957145940463,-0.036193765363232405,0.16310000000000002,0.22554000000000002,-0.43274000000000007,7.5,0,9281,8904,14001,33703,15.174921875,108382,22.123775419319152,1027.4366142667795,0,40.689213,-73.991695,0.72,19:19:59
2024-03-25T15:19:59,-3.2344979495499997,1.5972090855,9.5880401582,0.03283400655314333,0.00045814892864851157,-0.03420845333908886,0.15834,0.23282000000000003,-0.43106000000000005,7.5,0,9281,8904,14001,33703,15.174921875,108382,22.123775419319152,1027.4366142667795,0,40.689213,-73.991695,0.72,19:19:59
2024-03-25T15:19:59,-3.2075786952999996,1.567298803,9.585049129949999,0.03359758810089085,0.003207042500539581,-0.037110063220529434,0.16394000000000003,0.2303,-0.44534,7.5,0,9281,8904,14001,33703,15.174921875,108382,22.123775419319152,1027.4366142667795,0,40.689213,-73.991695,0.34,19:19:59
2024-03-25T15:19:59,-3.22373024785,1.5852449725,9.5916293921,0.03588833274413341,0.003207042500539581,-0.03527746750593539,0.16506,0.22134000000000004,-0.44282000000000005,8.5,0,9281,8904,14001,33703,15.174921875,108382,22.123775419319152,1027.4366142667795,0,40.689213,-73.991695,0.34,19:19:59
2024-03-25T15:19:59,-3.2410782117,1.56311136345,9.562317315249999,0.03451388595818787,0.00473420559603462,-0.0355829001250344,0.1589,0.22190000000000004,-0.44800000000000006,7.5,0,9281,8904,14001,33703,15.0872265625,102211,22.04102852623207,1027.4531453359982,0,40.689213,-73.991695,0.34,19:20:0
2024-03-25T15:20:00,-3.2279176873999997,1.5762718877499997,9.5880401582,0.03695734691097993,0.004123340357836604,-0.0357356164345839,0.16142,0.22862000000000005,-0.44212000000000007,7.5,0,9272,8895,13987,33674,15.1934765625,108871,22.083550880524495,1027.4434418191972,0,40.689213,-73.991695,0.34,19:20:0
2024-03-25T15:20:00,-3.2494530907999994,1.5702898312499998,9.580861690399999,0.036499197982331415,0.0018325957145940463,-0.03527746750593539,0.16758,0.22638000000000003,-0.44856000000000007,7.5,0,9272,8895,13987,33674,15.1934765625,108871,22.083550880524495,1027.4434418191972,0,40.689213,-73.991695,0.34,19:20:0
2024-03-25T15:20:00,-3.2087751065999996,1.5667005973499997,9.56590654915,0.03512475119638588,0.0044287729769356115,-0.03359758810089085,0.1603,0.23058,-0.44072,7.5,0,9272,8895,13987,33674,15.1934765625,108871,22.083550880524495,1027.4434418191972,0,40.689213,-73.991695,0.44,19:20:0
2024-03-25T15:20:00,-3.2243284535,1.5463616052499998,9.579665279099999,0.03497203488683638,0.0056505034533316425,-0.036499197982331415,0.16282000000000002,0.23562000000000002,-0.4459,7.5,0,9272,8895,13987,33674,15.1934765625,108871,22.083550880524495,1027.4434418191972,0,40.689213,-73.991695,0.44,19:20:0
2024-03-25T15:20:00,-3.2458638569,1.56311136345,9.5724868113,0.03726277953007894,0.005803219762881146,-0.03527746750593539,0.15862,0.22918000000000002,-0.43876000000000004,7.5,0,9272,8895,13987,33674,15.0079296875,102521,21.979509029846398,1027.462802291257,0,40.689213,-73.991695,0.44,19:20:1
2024-03-25T15:20:01,-3.2177481913499997,1.5786647103499998,9.594022214699999,0.03741549583962844,0.004581489286485115,-0.038789942625573975,0.16226000000000002,0.23002,-0.44562000000000007,7.5,0,9272,8894,13978,33676,15.073359375,108731,22.045362435208887,1027.4402086708935,0,40.689213,-73.991695,0.44,19:20:1
2024-03-25T15:20:01,-3.21655178005,1.5708880368999998,9.560522698299998,0.03695734691097993,0.006261368691529657,-0.038789942625573975,0.1617,0.23086,-0.45416,7.5,0,9272,8894,13978,33676,15.073359375,108731,22.045362435208887,1027.4402086708935,0,40.689213,-73.991695,0.44,19:20:1
2024-03-25T15:20:01,-3.2177481913499997,1.5702898312499998,9.547960379649998,0.03665191429188092,-0.00015271630954950385,-0.03802636107782646,0.15694000000000002,0.23198000000000002,-0.44870000000000004,7.5,0,9272,8894,13978,33676,15.073359375,108731,22.045362435208887,1027.4402086708935,0,40.689213,-73.991695,0.65,19:20:1
2024-03-25T15:20:01,-3.2159535744,1.5690934199499997,9.59462042035,0.0007635815477475193,0.0070249502392771765,-0.03772092845872745,0.15918000000000002,0.22750000000000004,-0.4502400000000001,7.5,0,9272,8894,13978,33676,15.073359375,108731,22.045362435208887,1027.4402086708935,0,40.689213,-73.991695,0.65,19:20:1
2024-03-25T15:20:01,-3.2045876670499998,1.5852449725,9.56590654915,0.03772092845872745,0.001069014166846527,-0.03741549583962844,0.15414000000000003,0.23702,-0.4478600000000001,7.5,0,9272,8894,13978,33676,14.90265625,102771,21.952599207369477,1027.4530221716532,0,40.689216,-73.991696,0.65,19:20:2
2024-03-25T15:20:02,-3.2350961551999995,1.5577275125999999,9.57667425085,0.040317105721069016,0.002901609881440573,-0.03466660226773738,0.15386000000000002,0.22806000000000004,-0.45150000000000007,7.5,0,9264,8886,13967,33644,14.981953125,108941,22.00892365167649,1027.4346346387717,0,40.689216,-73.991696,0.65,19:20:2
2024-03-25T15:20:02,-3.22612307045,1.5744772707999999,9.5042913672,0.036193765363232405,0.006261368691529657,-0.03420845333908886,0.16702,0.22694000000000003,-0.44688000000000005,7.5,0,9264,8886,13967,33644,14.981953125,108941,22.00892365167649,1027.4346346387717,0,40.689216,-73.991696,0.65,19:20:2
2024-03-25T15:20:02,-3.2255248647999997,1.5978072911499999,9.504889572849999,0.04291328298341058,0.004581489286485115,-0.039400807863771994,0.15722000000000003,0.2177,-0.44254000000000004,8.5,0,9264,8886,13967,33644,14.981953125,108941,22.00892365167649,1027.4346346387717,0,40.689216,-73.991696,0.48,19:20:2
2024-03-25T15:20:02,-3.1998020218499996,1.5684952143,9.579665279099999,0.03436116964863837,0.003054326190990077,-0.03527746750593539,0.16422000000000003,0.22162000000000004,-0.45052000000000003,8.5,0,9264,8886,13967,33644,14.981953125,108941,22.00892365167649,1027.4346346387717,0,40.689216,-73.991696,0.48,19:20:2
2024-03-25T15:20:02,-3.2279176873999997,1.5655041860499999,9.57787066215,0.03436116964863837,0.0,-0.0357356164345839,0.15666000000000002,0.23926000000000003,-0.44422,7.5,0,9264,8886,13967,33644,14.8344921875,102959,21.93307244395046,1027.4481383026466,0,40.689218,-73.991691,0.48,19:20:3
2024-03-25T15:20:03,-3.2333015382499997,1.58703958945,9.57906707345,0.03466660226773738,0.0013744467859455349,-0.0355829001250344,0.15582000000000001,0.22442,-0.43708,7.5,0,9262,8886,13967,33630,14.9290234375,110150,21.990283554410297,1027.4204833343952,0,40.689218,-73.991691,0.48,19:20:3
2024-03-25T15:20:03,-3.1968109935999998,1.5810575329499996,9.579665279099999,0.03252857393404432,0.0033597588100890844,-0.038179077387375956,0.16058,0.22918000000000002,-0.43708,7.5,0,9262,8886,13967,33630,14.9290234375,110150,21.990283554410297,1027.4204833343952,0,40.689218,-73.991691,0.48,19:20:3
2024-03-25T15:20:03,-3.1794630297499995,1.56789700865,9.60060247685,0.03512475119638588,0.0044287729769356115,-0.03375030441044035,0.16198,0.22722000000000003,-0.4459,7.5,0,9262,8886,13967,33630,14.9290234375,110150,21.990283554410297,1027.4204833343952,0,40.689218,-73.991691,0.48,19:20:3
2024-03-25T15:20:03,-3.22612307045,1.57507547645,9.598807859899999,0.03695734691097993,0.003970624048287101,-0.039400807863771994,0.15498,0.22386,-0.44646,7.5,0,9262,8886,13967,33630,14.9290234375,110150,21.990283554410297,1027.4204833343952,0,40.689218,-73.991691,0.48,19:20:3
2024-03-25T15:20:03,-3.2123643404999997,1.5804593272999998,9.5736832226,0.03207042500539581,0.005039638215133627,-0.03604104905368291,0.15862,0.23002,-0.43848000000000004,7.5,0,9262,8886,13967,33630,14.7887890625,104489,21.914889314757183,1027.440924343941,0,40.689218,-73.991691,0.48,19:20:3
2024-03-25T15:20:03,-3.2123643404999997,1.5708880368999998,9.535996266649999,0.037110063220529434,0.0015271630954950385,-0.03695734691097993,0.16366000000000003,0.23114,-0.43778,7.5,0,9262,8886,13967,33630,14.7887890625,104489,21.914889314757183,1027.440924343941,0,40.689218,-73.991691,0.48,19:20:3
2024-03-25T15:20:03,-3.19501637665,1.58464676685,9.5389872949,0.03329215548179184,0.0015271630954950385,-0.038179077387375956,0.15722000000000003,0.23534000000000002,-0.44562000000000007,7.5,0,9262,8886,13967,33630,14.7887890625,104489,21.914889314757183,1027.440924343941,0,40.689218,-73.991691,0.48,19:20:3
2024-03-25T15:20:03,-3.2267212760999997,1.5661023916999999,9.553344230499999,0.030848694528999777,0.0025961772623415654,-0.03527746750593539,0.16086,0.21938000000000002,-0.44898000000000005,8.5,0,9262,8886,13967,33630,14.7887890625,104489,21.914889314757183,1027.440924343941,0,40.689218,-73.991691,0.48,19:20:3
2024-03-25T15:20:03,-3.2362925664999995,1.5768700934,9.58145989605,0.03741549583962844,0.006261368691529657,-0.036804630601430424,0.16058,0.22498,-0.4496800000000001,7.5,0,9262,8886,13967,33630,14.8923046875,110947,21.977775849027744,1027.4267387815896,0,40.689218,-73.991691,0.88,19:20:3
2024-03-25T15:20:03,-3.21176613485,1.5822539442499999,9.579665279099999,0.03772092845872745,0.0056505034533316425,-0.036499197982331415,0.16338000000000003,0.2247,-0.44058,7.5,0,9264,8889,13971,33636,14.8923046875,110947,21.977775849027744,1027.4267387815896,0,40.689218,-73.991691,0.88,19:20:3
2024-03-25T15:20:03,-3.23090871565,1.5762718877499997,9.5198447141,0.03512475119638588,0.0027488935718910697,-0.03207042500539581,0.16058,0.23366000000000003,-0.45990000000000003,7.5,0,9264,8889,13971,33636,14.8923046875,110947,21.977775849027744,1027.4267387815896,0,40.68922,-73.991691,0.88,19:20:4
2024-03-25T15:20:04,-3.1633114771999993,1.5894324120499999,9.589834775149999,0.0357356164345839,0.0016798794050445422,-0.036499197982331415,0.15974000000000002,0.2303,-0.44310000000000005,7.5,0,9264,8889,13971,33636,15.168671875,115266,22.045904536295733,1027.4295501783868,0,40.68922,-73.991691,0.88,19:20:4
2024-03-25T15:20:04,-3.2207392195999995,1.5780665047,9.551549613549998,0.037110063220529434,0.004123340357836604,-0.03741549583962844,0.16114,0.22722000000000003,-0.42882000000000003,7.5,0,9264,8889,13971,33636,15.168671875,115266,22.045904536295733,1027.4295501783868,0,40.68922,-73.991691,0.88,19:20:4
2024-03-25T15:20:04,-3.2027930501,1.5888342063999998,9.59581683165,0.0357356164345839,0.0022907446432425577,-0.038179077387375956,0.16310000000000002,0.22694000000000003,-0.4426800000000001,7.5,0,9260,8888,13969,33628,15.168671875,115266,22.045904536295733,1027.4295501783868,0,40.68922,-73.991691,0.4,19:20:4
2024-03-25T15:20:04,-3.26440823205,1.5708880368999998,9.631110965,0.03451388595818787,0.005192354524683131,-0.038331793696925465,0.15582000000000001,0.22414,-0.44422,7.5,0,9260,8888,13969,33628,15.168671875,115266,22.045904536295733,1027.4295501783868,0,40.68922,-73.991691,0.4,19:20:4
2024-03-25T15:20:04,-3.2285158930499995,1.5714862425499996,9.549754996599999,0.03344487179134134,0.004581489286485115,-0.03588833274413341,0.15750000000000003,0.22750000000000004,-0.45766,7.5,0,9260,8888,13969,33628,15.0753125,108731,21.952567354191405,1027.44175901737,0,40.689221,-73.991691,0.4,19:20:5
2024-03-25T15:20:05,-3.2518459134,1.5637095691,9.527023181899999,0.03436116964863837,0.0012217304763960308,-0.03726277953007894,0.16114,0.22974,-0.45836000000000005,7.5,0,9264,8889,13973,33635,15.1790234375,114952,22.000050294416628,1027.431272914158,0,40.689221,-73.991691,0.4,19:20:5
2024-03-25T15:20:05,-3.2159535744,1.55354007305,9.585049129949999,0.039095375244672985,0.0036651914291880926,-0.04001167310197001,0.16506,0.23198000000000002,-0.44352,7.5,0,9264,8889,13973,33635,15.1790234375,114952,22.000050294416628,1027.431272914158,0,40.689221,-73.991691,0.4,19:20:5
2024-03-25T15:20:05,-3.2398818003999996,1.58464676685,9.544371145749999,0.03924809155422249,0.0012217304763960308,-0.03405573702953936,0.16142,0.23310000000000003,-0.4526200000000001,7.5,0,9264,8889,13973,33635,15.1790234375,114952,22.000050294416628,1027.431272914158,0,40.689221,-73.991691,1.15,19:20:5
2024-03-25T15:20:05,-3.20219484445,1.5780665047,9.55035320225,0.04092797095926703,0.0024434609527920616,-0.036804630601430424,0.16198,0.23758,-0.45794000000000007,7.5,0,9264,8889,13973,33635,15.1790234375,114952,22.000050294416628,1027.431272914158,0,40.689221,-73.991691,1.15,19:20:5
2024-03-25T15:20:05,-3.20578407835,1.6067803759,9.5521478192,0.03772092845872745,0.006719517620178169,-0.038789942625573975,0.15442000000000003,0.23114,-0.45738000000000006,7.5,0,9264,8889,13973,33635,14.999921875,107759,21.911967678115925,1027.4510072154378,0,40.689228,-73.991698,1.15,19:20:6
2024-03-25T15:20:06,-3.218346397,1.5804593272999998,9.611968384199999,0.03390302071998985,0.00045814892864851157,-0.03313943917224234,0.16478000000000004,0.2247,-0.44212000000000007,7.5,0,9264,8889,13971,33641,15.071796875,115424,21.97299843933717,1027.432303451018,0,40.689228,-73.991698,1.15,19:20:6
2024-03-25T15:20:06,-3.2051858726999995,1.5451651939499997,9.5736832226,0.03298672286269283,0.004581489286485115,-0.037110063220529434,0.15694000000000002,0.21490000000000004,-0.44548000000000004,7.5,0,9264,8889,13971,33641,15.071796875,115424,21.97299843933717,1027.432303451018,0,40.689228,-73.991698,1.15,19:20:6
2024-03-25T15:20:06,-3.2105697235499995,1.57507547645,9.5641119322,0.03390302071998985,0.0013744467859455349,-0.03695734691097993,0.15554,0.22078000000000003,-0.45150000000000007,7.5,0,9264,8889,13971,33641,15.071796875,115424,21.97299843933717,1027.432303451018,0,40.689228,-73.991698,0.86,19:20:6
2024-03-25T15:20:06,-3.2255248647999997,1.5732808595,9.566504754799999,0.03359758810089085,0.003970624048287101,-0.03329215548179184,0.16310000000000002,0.23058,-0.44884,7.5,0,9264,8889,13971,33641,15.071796875,115424,21.97299843933717,1027.432303451018,0,40.689228,-73.991698,0.86,19:20:6
2024-03-25T15:20:06,-3.2075786952999996,1.5643077747499998,9.547960379649998,0.03283400655314333,0.0009162978572970231,-0.0355829001250344,0.15918000000000002,0.22358,-0.44576000000000005,7.5,0,9264,8889,13971,33641,14.906171875,108173,21.885771100109807,1027.4449432327385,0,40.68923,-73.991701,0.86,19:20:7
2024-03-25T15:20:07,-3.20219484445,1.5828521499,9.537790883599998,0.03283400655314333,0.0035124751196385882,-0.036499197982331415,0.15946000000000002,0.22162000000000004,-0.45794000000000007,7.5,0,9265,8889,13971,33632,14.9880078125,115031,21.947364551856758,1027.425588186288,0,40.68923,-73.991701,0.86,19:20:7
2024-03-25T15:20:07,-3.2243284535,1.5786647103499998,9.58624554125,0.03741549583962844,0.0033597588100890844,-0.03375030441044035,0.16142,0.22526000000000002,-0.44604000000000005,7.5,0,9265,8889,13971,33632,14.9880078125,115031,21.947364551856758,1027.425588186288,0,40.68923,-73.991701,0.86,19:20:7
2024-03-25T15:20:07,-3.2009984331499997,1.5828521499,9.5772724565,0.0355829001250344,0.0044287729769356115,-0.03695734691097993,0.15806,0.22666000000000003,-0.4571,7.5,0,9265,8889,13971,33632,14.9880078125,115031,21.947364551856758,1027.425588186288,0,40.68923,-73.991701,0.18,19:20:7
2024-03-25T15:20:07,-3.2004002274999994,1.5804593272999998,9.582058101699998,0.03802636107782646,0.0024434609527920616,-0.03359758810089085,0.15554,0.22638000000000003,-0.45766,8.5,0,9265,8889,13971,33632,14.9880078125,115031,21.947364551856758,1027.425588186288,0,40.68923,-73.991701,0.18,19:20:7
2024-03-25T15:20:07,-3.2009984331499997,1.58703958945,9.59103118645,0.0357356164345839,0.0013744467859455349,-0.03436116964863837,0.16646,0.22890000000000005,-0.44604000000000005,8.5,0,9265,8889,13971,33632,14.8395703125,108871,21.87150998681725,1027.4479652825678,0,40.689231,-73.991703,0.18,19:20:8
2024-03-25T15:20:08,-3.2105697235499995,1.5780665047,9.576076045199999,0.03222314131494531,0.0044287729769356115,-0.036804630601430424,0.1519,0.23310000000000003,-0.45094000000000006,7.5,0,9263,8887,13970,33630,14.93546875,115741,21.933920468837783,1027.429635466793,0,40.689231,-73.991703,0.18,19:20:8
2024-03-25T15:20:08,-3.2159535744,1.5858431781499998,9.59940606555,0.038942658935123484,0.002901609881440573,-0.03756821214917795,0.15414000000000003,0.22386,-0.44744000000000006,7.5,0,9263,8887,13970,33630,14.93546875,115741,21.933920468837783,1027.429635466793,0,40.689231,-73.991703,0.18,19:20:8
2024-03-25T15:20:08,-3.212962546149999,1.6031911419999998,9.5162554802,0.03527746750593539,0.0070249502392771765,-0.03359758810089085,0.16002000000000002,0.23086,-0.44016000000000005,7.5,0,9263,8887,13970,33630,14.93546875,115741,21.933920468837783,1027.429635466793,0,40.689231,-73.991703,0.18,19:20:8
2024-03-25T15:20:08,-3.2578279698999997,1.5876377951,9.5617191096,0.03390302071998985,0.0016798794050445422,-0.0357356164345839,0.16254000000000002,0.23422000000000004,-0.4478600000000001,7.5,0,9263,8887,13970,33630,14.7954296875,109153,21.863739790578,1027.4504092857558,0,40.689231,-73.991703,0.18,19:20:8
2024-03-25T15:20:08,-3.2045876670499998,1.56071854085,9.566504754799999,0.037110063220529434,0.00045814892864851157,-0.03665191429188092,0.15498,0.23534000000000002,-0.4389,8.5,0,9263,8887,13970,33630,14.7954296875,109153,21.863739790578,1027.4504092857558,0,40.689231,-73.991703,0.18,19:20:8
2024-03-25T15:20:08,-3.2243284535,1.58703958945,9.560522698299998,0.03512475119638588,0.0035124751196385882,-0.03390302071998985,0.1519,0.22974,-0.4389,7.5,0,9263,8887,13970,33630,14.7954296875,109153,21.863739790578,1027.4504092857558,0,40.689231,-73.991703,0.18,19:20:8
2024-03-25T15:20:08,-3.2494530907999994,1.5804593272999998,9.56829937175,0.0355829001250344,0.0044287729769356115,-0.036499197982331415,0.16002000000000002,0.22722000000000003,-0.43638000000000005,8.5,1,9261,8885,13965,33630,14.7954296875,109153,21.863739790578,1027.4504092857558,0,40.689231,-73.991703,0.18,19:20:8
2024-03-25T15:20:08,-3.2171499857,1.5762718877499997,9.5736832226,0.03375030441044035,0.006108652381980154,-0.03604104905368291,0.15778,0.22918000000000002,-0.44016000000000005,7.5,1,9261,8885,13965,33630,14.899140625,116540,21.926602305730313,1027.4383059625873,0,40.689231,-73.991703,0.18,19:20:8
2024-03-25T15:20:08,-3.3529426682499994,1.6061821702499999,9.5856473356,0.03451388595818787,-0.03726277953007894,-0.03924809155422249,0.16002000000000002,0.23338000000000003,-0.4432400000000001,7.5,1,9261,8885,13965,33630,14.899140625,116540,21.926602305730313,1027.4383059625873,0,40.689231,-73.991703,0.23,19:20:8
2024-03-25T15:20:08,-3.2464620625499996,1.5816557385999996,9.5461657627,0.03420845333908886,0.0056505034533316425,-0.03481931857728687,0.16506,0.23002,-0.46004,7.5,1,9261,8885,13965,33630,14.899140625,116540,21.926602305730313,1027.4383059625873,0,40.689231,-73.991703,0.23,19:20:8
2024-03-25T15:20:08,-3.24167641735,1.5517454561000001,9.57188860565,0.036193765363232405,0.0013744467859455349,-0.03359758810089085,0.1603,0.23198000000000002,-0.45794000000000007,8.5,1,9261,8885,13965,33630,14.899140625,116540,21.926602305730313,1027.4383059625873,0,40.689231,-73.991705,0.23,19:20:9
2024-03-25T15:20:09,-3.22492665915,1.5702898312499998,9.59222759775,0.03634648167278191,0.003054326190990077,-0.037110063220529434,0.15610000000000002,0.22750000000000004,-0.44100000000000006,8.5,0,9257,8882,13957,33626,15.1755078125,122549,21.984352775464497,1027.4305885867818,0,40.689231,-73.991705,0.23,19:20:9
2024-03-25T15:20:09,-3.218346397,1.5888342063999998,9.5617191096,0.03527746750593539,0.008704829644321718,-0.03359758810089085,0.16198,0.21658000000000002,-0.44576000000000005,7.5,0,9257,8882,13957,33626,15.1755078125,122549,21.984352775464497,1027.4305885867818,0,40.689231,-73.991705,0.23,19:20:9
2024-03-25T15:20:09,-3.1968109935999998,1.5738790651499999,9.556933464399998,0.03283400655314333,0.005345070834232635,-0.03237585762449482,0.16058,0.22162000000000004,-0.44492000000000004,7.5,0,9257,8882,13957,33626,15.1755078125,122549,21.984352775464497,1027.4305885867818,0,40.689231,-73.991705,0.74,19:20:9
2024-03-25T15:20:09,-3.2434710343,1.5804593272999998,9.511469835,0.03497203488683638,0.006108652381980154,-0.03344487179134134,0.15974000000000002,0.22778000000000004,-0.44758000000000003,7.5,0,9257,8882,13957,33626,15.1755078125,122549,21.984352775464497,1027.4305885867818,0,40.689231,-73.991705,0.74,19:20:9
2024-03-25T15:20:09,-3.2488548851499996,1.5936198515999997,9.551549613549998,0.03512475119638588,0.0025961772623415654,-0.03665191429188092,0.16674,0.22526000000000002,-0.4548600000000001,7.5,0,9257,8882,13957,33626,15.0923046875,115109,21.912307909445,1027.4441965878443,0,40.689235,-73.991708,0.74,19:20:10
2024-03-25T15:20:10,-3.2177481913499997,1.5852449725,9.56590654915,0.03726277953007894,0.004123340357836604,-0.03298672286269283,0.16058,0.22526000000000002,-0.4459,7.5,0,9257,8881,13958,33620,15.2020703125,120708,21.965292407429256,1027.4316645389276,0,40.689235,-73.991708,0.74,19:20:10
2024-03-25T15:20:10,-3.0837501257499995,1.5768700934,9.566504754799999,0.03772092845872745,0.002901609881440573,-0.03527746750593539,0.16198,0.21826,-0.43176000000000003,7.5,0,9257,8881,13958,33620,15.2020703125,120708,21.965292407429256,1027.4316645389276,0,40.689235,-73.991708,0.74,19:20:10
2024-03-25T15:20:10,-3.2542387359999996,1.5696916255999998,9.5724868113,0.0355829001250344,0.001069014166846527,-0.03756821214917795,0.15918000000000002,0.22582000000000002,-0.44688000000000005,7.5,0,9257,8881,13958,33620,15.2020703125,120708,21.965292407429256,1027.4316645389276,0,40.689235,-73.991708,0.55,19:20:10
2024-03-25T15:20:10,-3.2303105099999994,1.5780665047,9.5772724565,0.03756821214917795,0.0016798794050445422,-0.038789942625573975,0.16002000000000002,0.23394000000000004,-0.44646,7.5,0,9257,8881,13958,33620,15.0176953125,114175,21.86661644037825,1027.4582798801557,0,40.689235,-73.991708,0.55,19:20:10
2024-03-25T15:20:10,-3.2015966387999995,1.5732808595,9.5641119322,0.038179077387375956,0.0044287729769356115,-0.03726277953007894,0.16702,0.23170000000000002,-0.45500000000000007,7.5,0,9257,8881,13958,33620,15.0176953125,114175,21.86661644037825,1027.4582798801557,0,40.689236,-73.991713,0.55,19:20:11
2024-03-25T15:20:11,-3.2386853890999996,1.6055839645999996,9.5724868113,0.03436116964863837,0.0016798794050445422,-0.03604104905368291,0.16562000000000002,0.22694000000000003,-0.43036,7.5,0,9258,8882,13957,33614,15.0829296875,121228,21.911749754667575,1027.4335982081336,0,40.689236,-73.991713,0.55,19:20:11
2024-03-25T15:20:11,-3.1926235540500003,1.56071854085,9.5904329808,0.0357356164345839,-0.0003054326190990077,-0.0357356164345839,0.16142,0.22274000000000002,-0.43736,7.5,0,9258,8882,13957,33614,15.0829296875,121228,21.911749754667575,1027.4335982081336,0,40.689236,-73.991713,0.55,19:20:11
2024-03-25T15:20:11,-3.2297123043499996,1.5948162628999998,9.5545406418,0.03756821214917795,0.0,-0.03604104905368291,0.16758,0.22246000000000002,-0.43498000000000003,7.5,0,9258,8882,13957,33614,15.0829296875,121228,21.911749754667575,1027.4335982081336,0,40.689236,-73.991713,0.32,19:20:11
2024-03-25T15:20:11,-3.2009984331499997,1.5637095691,9.534201649699998,0.03451388595818787,0.0024434609527920616,-0.038637226316024474,0.1589,0.22442,-0.4424,7.5,0,9255,8880,13951,33608,15.0829296875,121228,21.911749754667575,1027.4335982081336,0,40.689236,-73.991713,0.32,19:20:11
2024-03-25T15:20:11,-3.2333015382499997,1.5828521499,9.5736832226,0.03420845333908886,-0.0007635815477475193,-0.03497203488683638,0.16534000000000001,0.22890000000000005,-0.44184,7.5,0,9255,8880,13951,33608,14.90890625,114562,21.82923853024137,1027.4565840645978,0,40.689233,-73.991713,0.32,19:20:12
2024-03-25T15:20:12,-3.2338997439,1.5661023916999999,9.571290399999999,0.038942658935123484,0.0054977871437821395,-0.03543018381548489,0.15974000000000002,0.22106000000000003,-0.46102000000000004,8.5,0,9249,8872,13943,33586,14.985859375,120192,21.900817409653232,1027.4272142716995,0,40.689233,-73.991713,0.32,19:20:12
2024-03-25T15:20:12,-3.2321051269499996,1.5469598108999998,9.552746024849998,0.03665191429188092,0.003207042500539581,-0.03527746750593539,0.15946000000000002,0.22778000000000004,-0.44100000000000006,7.5,0,9249,8872,13943,33586,14.985859375,120192,21.900817409653232,1027.4272142716995,0,40.689233,-73.991713,0.32,19:20:12
2024-03-25T15:20:12,-3.2081769009499994,1.5942180572499998,9.5736832226,0.03497203488683638,0.003207042500539581,-0.03466660226773738,0.15918000000000002,0.22862000000000005,-0.44548000000000004,8.5,0,9249,8872,13943,33586,14.985859375,120192,21.900817409653232,1027.4272142716995,0,40.689233,-73.991713,0.34,19:20:12
2024-03-25T15:20:12,-3.2392835947500003,1.5744772707999999,9.5880401582,0.03772092845872745,0.003054326190990077,-0.03481931857728687,0.16086,0.23114,-0.43946,7.5,0,9249,8872,13943,33586,14.985859375,120192,21.900817409653232,1027.4272142716995,0,40.689233,-73.991713,0.34,19:20:12
2024-03-25T15:20:12,-3.2464620625499996,1.5732808595,9.5724868113,0.03543018381548489,0.009010262263420728,-0.038484510006474966,0.16674,0.2247,-0.44044000000000005,8.5,0,9249,8872,13943,33586,14.8321484375,114562,21.819541687187275,1027.4529384870532,0,40.689235,-73.991718,0.34,19:20:13
2024-03-25T15:20:13,-3.2303105099999994,1.56789700865,9.561120903949998,0.03695734691097993,0.002138028333693054,-0.03588833274413341,0.16142,0.22666000000000003,-0.44058,7.5,1,9246,8870,13943,33579,14.924140625,120968,21.886838037370925,1027.43501734164,0,40.689235,-73.991718,0.34,19:20:13
2024-03-25T15:20:13,-3.1986056105499996,1.5780665047,9.5688975774,0.03481931857728687,0.0044287729769356115,-0.036499197982331415,0.16058,0.22526000000000002,-0.44772,8.5,1,9246,8870,13943,33579,14.924140625,120968,21.886838037370925,1027.43501734164,0,40.689235,-73.991718,0.34,19:20:13
2024-03-25T15:20:13,-3.2542387359999996,1.56789700865,9.58265630735,0.03726277953007894,0.0027488935718910697,-0.036193765363232405,0.15946000000000002,0.22218000000000004,-0.45220000000000005,7.5,1,9246,8870,13943,33579,14.924140625,120968,21.886838037370925,1027.43501734164,0,40.689235,-73.991718,0.34,19:20:13
2024-03-25T15:20:13,-3.2315069213,1.5541382787,9.56590654915,0.03466660226773738,0.004276056667386108,-0.03268129024359383,0.16226000000000002,0.22974,-0.45122,7.5,1,9246,8870,13943,33579,14.924140625,120968,21.886838037370925,1027.43501734164,0,40.689235,-73.991718,0.34,19:20:13
2024-03-25T15:20:13,-3.2464620625499996,1.54396878265,9.570093988699998,0.0319177086958463,-0.0003054326190990077,-0.03604104905368291,0.16422000000000003,0.22246000000000002,-0.44464000000000004,7.5,1,9246,8870,13943,33579,14.783515625,115109,21.82181600069285,1027.46180348622,0,40.689235,-73.991718,0.34,19:20:13
2024-03-25T15:20:13,-3.2362925664999995,1.5732808595,9.512666246299998,0.039706240482871004,0.003207042500539581,-0.03634648167278191,0.15974000000000002,0.21602000000000002,-0.43722000000000005,7.5,1,9245,8868,13941,33565,14.783515625,115109,21.82181600069285,1027.46180348622,0,40.689235,-73.991718,0.34,19:20:13
2024-03-25T15:20:13,-3.2093733122499994,1.5505490447999999,9.527621387549999,0.0319177086958463,0.0,-0.0357356164345839,0.16562000000000002,0.22274000000000002,-0.44422,7.5,1,9245,8868,13941,33565,14.783515625,115109,21.82181600069285,1027.46180348622,0,40.689235,-73.991718,0.34,19:20:13
2024-03-25T15:20:13,-3.2321051269499996,1.57268265385,9.5389872949,0.03497203488683638,0.002138028333693054,-0.03405573702953936,0.15666000000000002,0.23114,-0.43960000000000005,7.5,1,9245,8868,13941,33565,14.783515625,115109,21.82181600069285,1027.46180348622,0,40.689235,-73.991718,0.34,19:20:13
2024-03-25T15:20:13,-3.2135607518,1.62053910585,9.61017376725,0.03405573702953936,0.0006108652381980154,-0.03451388595818787,0.16058,0.22386,-0.43806000000000006,8.5,1,9245,8868,13941,33565,14.8852734375,121578,21.874220896728556,1027.43588222701,0,40.689235,-73.991718,0.86,19:20:13
2024-03-25T15:20:13,-3.2093733122499994,1.5906288233499997,9.558728081349999,0.04001167310197001,0.007483099167925688,-0.039095375244672985,0.15302000000000002,0.22638000000000003,-0.44870000000000004,7.5,1,9245,8868,13941,33565,14.8852734375,121578,21.874220896728556,1027.43588222701,0,40.689235,-73.991718,0.86,19:20:13
2024-03-25T15:20:13,-3.24406923995,1.5876377951,9.585049129949999,0.04016438941151951,0.0027488935718910697,-0.039095375244672985,0.15414000000000003,0.22946,-0.43876000000000004,7.5,1,9245,8868,13941,33565,14.8852734375,121578,21.874220896728556,1027.43588222701,0,40.689235,-73.991721,0.86,19:20:14
