Timestamp,Accel_X,Accel_Y,Accel_Z,Gyro_X,Gyro_Y,Gyro_Z,Mag_X,Mag_Y,Mag_Z,LSM9DS1_Temp,Proximity,Color_R,Color_G,Color_B,Color_C,BME680_Temp,Gas,Humidity,Pressure,Switch_Pressed
2024-03-17T10:00:06,-0.2177468566,-0.017946169499999998,9.860223728949999,0.018478673455489966,0.020922134408282028,0.08597928227637067,0.03654,0.47166,-0.44982000000000005,19.5,0,0,0,0,0,33.574921875,2650,100,695.662002676745,0
2024-03-17T10:00:06,-0.20757736054999998,-0.0029910282499999996,9.888339394499999,0.020769418098732523,0.01893682238413848,0.09040805525330628,0.04494000000000001,0.46438000000000007,-0.4508000000000001,19.5,0,0,0,0,0,33.574921875,2650,100,695.662002676745,0
2024-03-17T10:00:07,-0.22313070744999997,0.01734796385,9.923035322199999,0.02168571595602955,0.02107485071783153,0.08689558013366769,0.04354000000000001,0.46914000000000006,-0.4403000000000001,19.5,0,0,0,0,0,33.574921875,2650,100,695.662002676745,0
2024-03-17T10:00:07,-0.22013967919999997,-0.013758729949999998,9.88774118885,0.019853120241435502,0.021227567027381034,0.08735372906231621,0.04354000000000001,0.46914000000000006,-0.4403000000000001,19.5,0,0,0,0,0,33.574921875,2650,100,695.662002676745,0
2024-03-17T10:00:07,-0.23330020349999997,-0.014955141249999998,9.910473003549999,0.020922134408282028,0.02061670178918302,0.08643743120501918,0.04494000000000001,0.46774000000000004,-0.44842000000000004,19.5,0,0,0,0,0,33.574921875,2650,100,695.662002676745,0
2024-03-17T10:00:07,-0.23030917524999997,-0.014955141249999998,9.87577707585,0.026267205242514663,0.022449297503777065,0.08735372906231621,0.04662,0.47502000000000005,-0.44688000000000005,19.5,0,0,0,0,0,33.574921875,2650,100,695.662002676745,0
2024-03-17T10:00:07,-0.19800607015,0.0029910282499999996,9.909276592249999,0.0238237442897226,0.020922134408282028,0.08842274322916273,0.04662,0.47502000000000005,-0.44688000000000005,19.5,0,0,0,0,0,33.574921875,2650,100,695.662002676745,0
2024-03-17T10:00:07,-0.2141576227,-0.013758729949999998,9.88175913235,0.020311269170084013,0.02336559536107409,0.08582656596682116,0.03934,0.46914000000000006,-0.4502400000000001,19.5,0,0,0,0,0,26.45578125,1117,30.092440168542318,1000.8465562742739,0
2024-03-17T10:00:07,-0.2165504453,0.010169496049999999,9.8811609267,0.021227567027381034,0.019700403931885997,0.08781187799096472,0.04242,0.46942000000000006,-0.44198000000000004,19.5,0,0,0,0,0,26.45578125,1117,30.092440168542318,1000.8465562742739,0
2024-03-17T10:00:07,-0.20279171534999998,0.0095712904,9.8404829425,0.018020524526841455,0.021532999646480044,0.0872010127527667,0.047740000000000005,0.47754,-0.42910000000000004,19.5,0,0,0,0,0,26.45578125,1117,30.092440168542318,1000.8465562742739,0
2024-03-17T10:00:07,-0.22313070744999997,-0.01734796385,9.911669414849998,0.023976460599272102,0.019700403931885997,0.0870482964432172,0.041580000000000006,0.47418000000000005,-0.44058,19.5,0,0,0,0,0,26.45578125,1117,30.092440168542318,1000.8465562742739,0
2024-03-17T10:00:07,-0.19920248144999997,-0.01854437515,9.913464031799998,0.020005836550985007,0.020769418098732523,0.08765916168141522,0.041580000000000006,0.47418000000000005,-0.44058,19.5,0,0,0,0,0,26.45578125,1117,30.092440168542318,1000.8465562742739,0
2024-03-17T10:00:07,-0.21954147355,-0.0131605243,9.89013401145,0.02428189321837111,0.02107485071783153,0.08689558013366769,0.04354000000000001,0.46578,-0.4397400000000001,19.5,0,0,0,0,0,26.45578125,1117,30.092440168542318,1000.8465562742739,0
2024-03-17T10:00:07,-0.20039889274999997,-0.0035892338999999997,9.90090171315,0.019242255003237483,0.02306016274197508,0.08552113334772216,0.04746000000000001,0.46830000000000005,-0.43358,19.5,0,0,0,0,0,26.45578125,1117,30.092440168542318,1000.8465562742739,0
2024-03-17T10:00:07,-0.20338992099999997,0.00418743955,9.9242317335,0.020311269170084013,0.019242255003237483,0.08628471489546968,0.04746000000000001,0.46830000000000005,-0.43358,19.5,0,0,0,0,0,26.701484375,1748,30.16409879495783,1000.8557531932909,0
2024-03-17T10:00:07,-0.2105683888,-0.031106693799999998,9.94157969735,0.021532999646480044,0.02290744643242558,0.08536841703817265,0.046900000000000004,0.47026000000000007,-0.43596,19.5,0,0,0,0,0,26.701484375,1748,30.16409879495783,1000.8557531932909,0
2024-03-17T10:00:07,-0.23808584869999996,-0.0167497582,9.896714273599999,0.019089538693687978,0.020463985479633514,0.08857545953871222,0.046900000000000004,0.47026000000000007,-0.43596,19.5,0,0,0,0,0,26.701484375,1748,30.16409879495783,1000.8557531932909,0
2024-03-17T10:00:07,-0.19202401365,-0.010767701699999998,9.93320481825,0.01786780821729195,0.01756237559819294,0.08872817584826173,0.04018000000000001,0.47390000000000004,-0.44142000000000003,19.5,0,0,0,0,0,26.701484375,1748,30.16409879495783,1000.8557531932909,0
2024-03-17T10:00:07,-0.19441683624999997,0.0023928226,9.919446088299999,0.021838432265579053,0.021532999646480044,0.08659014751456869,0.04354000000000001,0.46970000000000006,-0.4478600000000001,19.5,0,0,0,0,0,26.701484375,1748,30.16409879495783,1000.8557531932909,0
2024-03-17T10:00:07,-0.21894326790000002,0.0095712904,9.92482993915,0.019089538693687978,0.02168571595602955,0.08888089215781124,0.04354000000000001,0.46970000000000006,-0.4478600000000001,19.5,0,0,0,0,0,26.701484375,1748,30.16409879495783,1000.8557531932909,0
2024-03-17T10:00:07,-0.2141576227,-0.029312076849999997,9.961320483799998,0.021991148575128558,0.022143864884678056,0.08765916168141522,0.04018000000000001,0.47054,-0.43722000000000005,19.5,0,0,0,0,0,26.701484375,1748,30.16409879495783,1000.8557531932909,0
2024-03-17T10:00:07,-0.19980068709999999,-0.0035892338999999997,9.92482993915,0.01786780821729195,0.021991148575128558,0.08735372906231621,0.04186000000000001,0.46774000000000004,-0.45752000000000004,19.5,0,0,0,0,0,27.0598828125,2319,30.21195125771667,1000.8641412973718,0
2024-03-17T10:00:07,-0.21714865095,-0.011365907350000001,9.92482993915,0.023212879051524585,0.021991148575128558,0.08643743120501918,0.04578,0.4713800000000001,-0.44604000000000005,19.5,0,0,0,0,3449,27.0598828125,2319,30.21195125771667,1000.8641412973718,0
2024-03-17T10:00:07,-0.2177468566,0.00059820565,9.936195846499999,0.020158552860534508,0.020922134408282028,0.08979719001510826,0.045500000000000006,0.46214000000000005,-0.45444000000000007,19.5,0,1800,953,693,3449,27.0598828125,2319,30.21195125771667,1000.8641412973718,0
2024-03-17T10:00:07,-0.24466611084999998,-0.005982056499999999,9.927820967399999,0.019700403931885997,0.01786780821729195,0.08872817584826173,0.045500000000000006,0.46214000000000005,-0.45444000000000007,19.5,0,1800,953,693,3449,27.0598828125,2319,30.21195125771667,1000.8641412973718,0
2024-03-17T10:00:07,-0.20279171534999998,-0.011964112999999998,9.99661461715,0.016951510359994926,0.02168571595602955,0.08827002691961322,0.04718000000000001,0.4713800000000001,-0.44604000000000005,19.5,0,1800,953,693,3449,27.0598828125,2319,30.21195125771667,1000.8641412973718,0
2024-03-17T10:00:07,-0.21595223965000002,-0.007178467799999999,9.938588669099998,0.02061670178918302,0.019089538693687978,0.0870482964432172,0.042140000000000004,0.46130000000000004,-0.45150000000000007,19.5,0,1800,953,693,3449,27.0598828125,2319,30.21195125771667,1000.8641412973718,0
2024-03-17T10:00:07,-0.2165504453,0.0077766734499999995,9.92961558435,0.02229658119422756,0.020158552860534508,0.0867428638241182,0.042140000000000004,0.49714,-0.44394000000000006,19.5,0,1800,953,693,3449,27.0598828125,2319,30.21195125771667,1000.8641412973718,0
2024-03-17T10:00:07,-0.22313070744999997,0.0,9.932008406949999,0.019242255003237483,0.02260201381332657,0.09010262263420728,0.03402,0.4660600000000001,-0.44394000000000006,19.5,0,1800,953,693,3449,27.4466015625,2947,30.2455402918747,1000.885856456678,0
2024-03-17T10:00:07,-0.22671994134999998,-0.0083748791,10.0115697584,0.019394971312786988,0.020311269170084013,0.08857545953871222,0.044660000000000005,0.47306000000000004,-0.44366,19.5,0,1800,953,693,3449,27.4466015625,2947,30.2455402918747,1000.885856456678,0
2024-03-17T10:00:07,-0.2165504453,-0.0029910282499999996,9.9625168951,0.021991148575128558,0.02107485071783153,0.08872817584826173,0.04718000000000001,0.46802000000000005,-0.44870000000000004,19.5,0,1800,953,693,3449,27.4466015625,2947,30.2455402918747,1000.885856456678,0
2024-03-17T10:00:07,-0.2069791549,-0.0023928226,9.96431151205,0.017715091907742446,0.02336559536107409,0.09010262263420728,0.045500000000000006,0.47670000000000007,-0.44800000000000006,19.5,0,1800,953,693,3449,27.4466015625,2947,30.2455402918747,1000.885856456678,0
2024-03-17T10:00:07,-0.20159530404999998,-0.011964112999999998,9.979266653299998,0.02107485071783153,0.020922134408282028,0.08765916168141522,0.045500000000000006,0.47670000000000007,-0.44800000000000006,19.5,0,1800,953,693,3449,27.4466015625,2947,30.2455402918747,1000.885856456678,0
2024-03-17T10:00:07,-0.19740786449999997,-0.01734796385,9.9936235889,0.02061670178918302,0.021227567027381034,0.08903360846736075,0.042140000000000004,0.47054,-0.44212000000000007,19.5,0,1800,953,693,3449,27.4466015625,2947,30.2455402918747,1000.885856456678,0
2024-03-17T10:00:07,-0.2165504453,-0.014955141249999998,10.0319087505,0.019853120241435502,0.02138028333693054,0.08597928227637067,0.042980000000000004,0.47362000000000004,-0.44366,19.5,0,1800,953,693,3449,27.4466015625,2947,30.2455402918747,1000.885856456678,0
2024-03-17T10:00:07,-0.20638094924999997,-0.0095712904,9.959525866849997,0.019394971312786988,0.02138028333693054,0.08567384965727166,0.0413,0.46970000000000006,-0.4459,19.5,0,1800,953,693,3449,27.8159375,3436,30.24960206539363,1000.8983414862864,0
2024-03-17T10:00:07,-0.20458633229999998,-0.017946169499999998,9.958927661199999,0.01893682238413848,0.024434609527920616,0.08796459430051423,0.04494000000000001,0.46466,-0.43652,19.5,0,1800,953,693,3449,27.8159375,3436,30.24960206539363,1000.8983414862864,0
2024-03-17T10:00:07,-0.24107687694999996,-0.01256231865,9.9158568544,0.01756237559819294,0.02168571595602955,0.08643743120501918,0.04494000000000001,0.46466,-0.43652,19.5,0,1800,953,693,3449,27.8159375,3436,30.24960206539363,1000.8983414862864,0
2024-03-17T10:00:07,-0.23808584869999996,0.0251246373,9.90329453575,0.020158552860534508,0.019853120241435502,0.08689558013366769,0.037380000000000004,0.46802000000000005,-0.4491200000000001,19.5,0,1800,953,693,3449,27.8159375,3436,30.24960206539363,1000.8983414862864,0
2024-03-17T10:00:07,-0.20937197749999997,0.0035892338999999997,9.832706269049998,0.01756237559819294,0.025198191075668133,0.08781187799096472,0.04102,0.47334000000000004,-0.4537400000000001,19.5,0,1800,953,693,3449,27.8159375,3436,30.24960206539363,1000.8983414862864,0
2024-03-17T10:00:07,-0.20219350969999997,0.0023928226,10.02054284315,0.019242255003237483,0.020463985479633514,0.08750644537186571,0.04102,0.47334000000000004,-0.44100000000000006,19.5,0,1800,953,693,3449,27.8159375,3436,30.24960206539363,1000.8983414862864,0
2024-03-17T10:00:07,-0.2117648001,-0.0077766734499999995,9.97148997985,0.019242255003237483,0.022754730122876075,0.08811731061006371,0.04018000000000001,0.46802000000000005,-0.44100000000000006,19.5,0,1800,953,693,3449,27.8159375,3436,30.24960206539363,1000.8983414862864,0
2024-03-17T10:00:07,-0.2105683888,0.0029910282499999996,9.94397251995,0.01786780821729195,0.021991148575128558,0.08842274322916273,0.04522,0.47222000000000003,-0.44576000000000005,19.5,0,1800,953,693,3449,28.151875,3900,30.26770349483087,1000.9132021228903,0
2024-03-17T10:00:08,-0.21116659445,-0.0131605243,9.997811028449998,0.020769418098732523,0.024434609527920616,0.08888089215781124,0.049980000000000004,0.47586000000000006,-0.44702000000000003,19.5,0,1800,953,693,3449,28.151875,3900,30.26770349483087,1000.9132021228903,0
2024-03-17T10:00:08,-0.19980068709999999,-0.01854437515,9.96191868945,0.020463985479633514,0.01832595714594046,0.08903360846736075,0.0441,0.47418000000000005,-0.44814000000000004,20.5,0,1800,953,693,3449,28.151875,3900,30.26770349483087,1000.9132021228903,0
2024-03-17T10:00:08,-0.20817556619999997,-0.011365907350000001,9.991230766299998,0.02168571595602955,0.022143864884678056,0.08613199858592017,0.0441,0.47418000000000005,-0.44814000000000004,20.5,0,1800,953,693,3449,28.151875,3900,30.26770349483087,1000.9132021228903,0
2024-03-17T10:00:08,-0.20997018315,-0.023330020349999998,9.999605645399999,0.018173240836390957,0.02458732583747012,0.08811731061006371,0.038220000000000004,0.47390000000000004,-0.44086000000000003,19.5,0,1800,953,693,3449,28.151875,3900,30.26770349483087,1000.9132021228903,0
2024-03-17T10:00:08,-0.22432711874999997,-0.0017946169499999999,9.9936235889,0.0238237442897226,0.023976460599272102,0.08750644537186571,0.04242,0.46802000000000005,-0.43302,20.5,0,1800,953,693,3449,28.151875,3900,30.26770349483087,1000.9132021228903,0
2024-03-17T10:00:08,-0.22193429615000002,0.010169496049999999,9.958329455549999,0.021227567027381034,0.020463985479633514,0.0870482964432172,0.04242,0.47054,-0.4432400000000001,20.5,0,1800,953,693,3449,28.151875,3900,30.26770349483087,1000.9132021228903,0
2024-03-17T10:00:08,-0.23389840915,-0.01256231865,10.015158992299998,0.02061670178918302,0.020922134408282028,0.08842274322916273,0.04046,0.47054,-0.4432400000000001,19.5,0,1800,953,693,3449,28.4501171875,4343,30.243138734546967,1000.9146678672656,0
2024-03-17T10:00:08,-0.19800607015,0.14955141249999998,9.997811028449998,0.020922134408282028,0.020005836550985007,0.08827002691961322,0.03934,0.47390000000000004,-0.44492000000000004,19.5,0,1801,953,693,3449,28.4501171875,4343,30.243138734546967,1000.9146678672656,0
2024-03-17T10:00:08,-0.2069791549,-0.022731814700000002,9.995418205850001,0.018173240836390957,0.01863138976503947,0.09162978572970232,0.03934,0.47390000000000004,-0.44492000000000004,19.5,0,1801,953,693,3449,28.4501171875,4343,30.243138734546967,1000.9146678672656,0
2024-03-17T10:00:08,-0.23748764304999997,0.01854437515,10.015158992299998,0.02168571595602955,0.020922134408282028,0.08888089215781124,0.04578,0.47250000000000003,-0.4491200000000001,20.5,0,1801,953,693,3449,28.4501171875,4343,30.243138734546967,1000.9146678672656,0
2024-03-17T10:00:08,-0.23808584869999996,0.0023928226,9.98225768155,0.02168571595602955,0.021532999646480044,0.08643743120501918,0.038220000000000004,0.47026000000000007,-0.4496800000000001,20.5,0,1801,953,693,3449,28.4501171875,4343,30.243138734546967,1000.9146678672656,0
2024-03-17T10:00:08,-0.19800607015,-0.03170489945,10.0534441539,0.019547687622336492,0.01893682238413848,0.08689558013366769,0.038220000000000004,0.47026000000000007,-0.4496800000000001,20.5,0,1801,953,693,3449,28.4501171875,4343,30.243138734546967,1000.9146678672656,0
2024-03-17T10:00:08,-0.23569302609999998,0.00418743955,9.953543810349998,0.01756237559819294,0.01863138976503947,0.08689558013366769,0.04326000000000001,0.46998,-0.44506000000000007,20.5,0,1801,953,693,3449,28.4501171875,4343,30.243138734546967,1000.9146678672656,0
2024-03-17T10:00:08,-0.22671994134999998,0.0047856452,10.0295159279,0.019394971312786988,0.01756237559819294,0.08750644537186571,0.0483,0.47446000000000005,-0.4466,20.5,0,1801,953,693,3449,28.7094921875,4743,30.21518187910958,1000.9206552939628,0
2024-03-17T10:00:08,-0.23928225999999997,0.0,10.0366943957,0.019700403931885997,0.02428189321837111,0.08735372906231621,0.04186000000000001,0.46158000000000005,-0.44450000000000006,20.5,0,1801,953,693,3449,28.7094921875,4743,30.21518187910958,1000.9206552939628,0
2024-03-17T10:00:08,-0.20937197749999997,0.0077766734499999995,9.990034354999999,0.02138028333693054,0.024434609527920616,0.08857545953871222,0.041580000000000006,0.48062000000000005,-0.43484,20.5,0,1801,953,693,3449,28.7094921875,4743,30.21518187910958,1000.9206552939628,0
2024-03-17T10:00:08,-0.18544375149999998,0.0095712904,10.015158992299998,0.02504547476611863,0.024129176908821607,0.08506298441907365,0.041580000000000006,0.48062000000000005,-0.43484,19.5,0,1801,953,693,3449,28.7094921875,4743,30.21518187910958,1000.9206552939628,0
2024-03-17T10:00:08,-0.19381863059999999,0.0029910282499999996,9.97148997985,0.020158552860534508,0.02107485071783153,0.0872010127527667,0.042980000000000004,0.46886000000000005,-0.45766,19.5,0,1801,953,693,3449,28.7094921875,4743,30.21518187910958,1000.9206552939628,0
2024-03-17T10:00:08,-0.18484554585,-0.0035892338999999997,10.027123105299998,0.02229658119422756,0.019700403931885997,0.0872010127527667,0.04438,0.47026000000000007,-0.4459,20.5,0,1801,953,693,3449,28.7094921875,4743,30.21518187910958,1000.9206552939628,0
2024-03-17T10:00:08,-0.20997018315,0.01615155255,10.076774174250001,0.01863138976503947,0.024434609527920616,0.08765916168141522,0.04438,0.47026000000000007,-0.4459,20.5,0,1801,953,693,3449,28.7094921875,4743,30.21518187910958,1000.9206552939628,0
2024-03-17T10:00:08,-0.22971096959999998,-0.00418743955,10.094720343749998,0.020005836550985007,0.02458732583747012,0.08903360846736075,0.039900000000000005,0.46970000000000006,-0.4536,20.5,0,1801,953,693,3449,28.9344921875,5148,30.16167541347067,1000.9206912982797,0
2024-03-17T10:00:08,-0.18604195715,-0.0167497582,9.9984092341,0.019700403931885997,0.02306016274197508,0.08643743120501918,0.0357,0.4719400000000001,-0.45192,19.5,0,1801,953,693,3449,28.9344921875,5148,30.16167541347067,1000.9206912982797,0
2024-03-17T10:00:08,-0.22851455829999998,0.14416756165,10.004391290600001,0.02061670178918302,0.022754730122876075,0.08811731061006371,0.039900000000000005,0.47894000000000003,-0.44772,20.5,0,1801,953,693,3449,28.9344921875,5148,30.16167541347067,1000.9206912982797,0
2024-03-17T10:00:08,-0.22911276394999996,0.0023928226,10.0235338714,0.02168571595602955,0.017409659288643436,0.08918632477691024,0.042980000000000004,0.46438000000000007,-0.44170000000000004,20.5,0,1801,953,693,3449,28.9344921875,5148,30.16167541347067,1000.9206912982797,0
2024-03-17T10:00:08,-0.23330020349999997,-0.010767701699999998,10.039685423949999,0.024129176908821607,0.021227567027381034,0.08643743120501918,0.042980000000000004,0.46438000000000007,-0.44170000000000004,20.5,0,1801,953,693,3449,28.9344921875,5148,30.16167541347067,1000.9206912982797,0
2024-03-17T10:00:08,-0.20338992099999997,-0.01854437515,10.02532848835,0.02061670178918302,0.017715091907742446,0.08491026810952414,0.041580000000000006,0.47222000000000003,-0.44646,20.5,0,1801,953,693,3449,28.9344921875,5148,30.16167541347067,1000.9206912982797,0
2024-03-17T10:00:08,-0.22552353004999998,-0.01974078645,10.012766169699999,0.01893682238413848,0.019242255003237483,0.08735372906231621,0.03878,0.46830000000000005,-0.45038000000000006,20.5,0,1801,953,693,3449,28.9344921875,5148,30.16167541347067,1000.9206912982797,0
2024-03-17T10:00:08,-0.2141576227,0.0035892338999999997,10.098907783299998,0.017409659288643436,0.014966198335851376,0.09025533894375677,0.03878,0.46830000000000005,-0.45038000000000006,20.5,0,1801,953,693,3449,29.1305859375,5539,30.11126587457646,1000.9327007319232,0
2024-03-17T10:00:08,-0.21595223965000002,-0.0047856452,10.0235338714,0.019242255003237483,0.02428189321837111,0.08689558013366769,0.03318,0.47670000000000007,-0.44002,20.5,0,1801,953,693,3449,29.1305859375,5539,30.11126587457646,1000.9327007319232,0
2024-03-17T10:00:08,-0.2237289131,-0.0191425808,10.021739254449999,0.023976460599272102,0.02458732583747012,0.08811731061006371,0.032900000000000006,0.47670000000000007,-0.44002,20.5,0,1801,953,693,3449,29.1305859375,5539,30.11126587457646,1000.9327007319232,0
2024-03-17T10:00:08,-0.22133609049999997,0.0029910282499999996,10.033703367449998,0.022143864884678056,0.023212879051524585,0.08872817584826173,0.03262,0.46998,-0.45570000000000005,20.5,0,1801,953,693,3449,29.1305859375,5539,30.11126587457646,1000.9327007319232,0
2024-03-17T10:00:08,-0.18484554585,-0.0095712904,10.015158992299998,0.02138028333693054,0.023212879051524585,0.08979719001510826,0.038220000000000004,0.48090000000000005,-0.43918000000000007,20.5,0,1801,953,693,3449,29.1305859375,5539,30.11126587457646,1000.9327007319232,0
2024-03-17T10:00:08,-0.2009970984,-0.01854437515,10.05763159345,0.018784106074588976,0.019394971312786988,0.0872010127527667,0.038220000000000004,0.48090000000000005,-0.43918000000000007,20.5,0,1801,953,693,3449,29.1305859375,5539,30.11126587457646,1000.9327007319232,0
2024-03-17T10:00:08,-0.19920248144999997,-0.011964112999999998,9.9960164115,0.01710422666954443,0.020922134408282028,0.08613199858592017,0.03318,0.46802000000000005,-0.45276000000000005,20.5,0,1801,953,693,3449,29.1305859375,5539,30.11126587457646,1000.9327007319232,0
2024-03-17T10:00:08,-0.1950150419,0.01256231865,10.039087218299999,0.018784106074588976,0.020311269170084013,0.09178250203925183,0.04018000000000001,0.46438000000000007,-0.4424,20.5,0,1801,953,693,3449,29.2997265625,5848,30.041587692020926,1000.9366502651325,0
2024-03-17T10:00:08,-0.2009970984,-0.005383850849999999,10.03131054485,0.019853120241435502,0.024740042147019626,0.08689558013366769,0.037380000000000004,0.47390000000000004,-0.4501,20.5,0,1801,953,693,3450,29.2997265625,5848,30.041587692020926,1000.9366502651325,0
2024-03-17T10:00:08,-0.20937197749999997,-0.0323031051,10.0235338714,0.022449297503777065,0.019853120241435502,0.08872817584826173,0.037380000000000004,0.47698,-0.45178,20.5,0,1801,953,693,3450,29.2997265625,5848,30.041587692020926,1000.9366502651325,0
2024-03-17T10:00:08,-0.19980068709999999,-0.0131605243,10.080961613799998,0.021227567027381034,0.019242255003237483,0.08827002691961322,0.03626000000000001,0.47698,-0.45178,19.5,0,1801,953,693,3450,29.2997265625,5848,30.041587692020926,1000.9366502651325,0
2024-03-17T10:00:09,-0.2548356069,-0.013758729949999998,10.006185907549998,0.02306016274197508,0.023976460599272102,0.08811731061006371,0.03374,0.4649400000000001,-0.44254000000000004,20.5,0,1801,953,693,3450,29.2997265625,5848,30.041587692020926,1000.9366502651325,0
2024-03-17T10:00:09,-0.22193429615000002,-0.014356935599999999,10.028319516599998,0.022449297503777065,0.01832595714594046,0.08659014751456869,0.034300000000000004,0.47390000000000004,-0.44296,20.5,0,1801,953,693,3450,29.2997265625,5848,30.041587692020926,1000.9366502651325,0
2024-03-17T10:00:09,-0.20338992099999997,-0.0023928226,10.052845948249999,0.020311269170084013,0.023976460599272102,0.09117163680105381,0.034300000000000004,0.47390000000000004,-0.44296,20.5,0,1801,953,693,3450,29.2997265625,5848,30.041587692020926,1000.9366502651325,0
2024-03-17T10:00:09,-0.2165504453,-0.005383850849999999,10.028319516599998,0.016035212502697904,0.023671027980173096,0.09056077156285579,0.032900000000000006,0.46746000000000004,-0.4555600000000001,20.5,0,1801,953,693,3450,29.4458203125,6253,29.952996690028648,1000.9425132541531,0
2024-03-17T10:00:09,-0.24346969954999997,-0.014356935599999999,10.006784113199998,0.017409659288643436,0.018784106074588976,0.09025533894375677,0.039060000000000004,0.47054,-0.44366,20.5,0,1801,953,693,3450,29.4458203125,6253,29.952996690028648,1000.9425132541531,0
2024-03-17T10:00:09,-0.20817556619999997,-0.020338992099999998,10.01456078665,0.02260201381332657,0.020158552860534508,0.0867428638241182,0.03542,0.47362000000000004,-0.45752000000000004,20.5,0,1801,953,693,3450,29.4458203125,6253,29.952996690028648,1000.9425132541531,0
2024-03-17T10:00:09,-0.22432711874999997,-0.0047856452,10.052845948249999,0.019089538693687978,0.02351831167062359,0.08857545953871222,0.0371,0.47866000000000003,-0.4501,20.5,0,1801,953,693,3450,29.4458203125,6253,29.952996690028648,1000.9425132541531,0
2024-03-17T10:00:09,-0.22671994134999998,0.00658026215,10.0366943957,0.016493361431346415,0.023671027980173096,0.08765916168141522,0.0371,0.47866000000000003,-0.4501,20.5,0,1801,953,693,3450,29.4458203125,6253,29.952996690028648,1000.9425132541531,0
2024-03-17T10:00:09,-0.22073788485,-0.017946169499999998,10.046863891749998,0.024129176908821607,0.018173240836390957,0.08842274322916273,0.03878,0.47782,-0.45150000000000007,20.5,0,1801,953,693,3450,29.4458203125,6253,29.952996690028648,1000.9425132541531,0
2024-03-17T10:00:09,-0.20518453794999997,0.0167497582,10.033703367449998,0.019394971312786988,0.020158552860534508,0.08506298441907365,0.029540000000000004,0.47866000000000003,-0.4561200000000001,20.5,0,1801,953,693,3450,29.4458203125,6253,29.952996690028648,1000.9425132541531,0
2024-03-17T10:00:09,-0.21834506225,-0.0023928226,10.04088183525,0.017715091907742446,0.02260201381332657,0.08842274322916273,0.029540000000000004,0.47866000000000003,-0.4561200000000001,20.5,0,1801,953,693,3450,29.5727734375,6648,29.86837817458162,1000.9495019419466,0
2024-03-17T10:00:09,-0.21595223965000002,-0.010767701699999998,10.037890806999998,0.01863138976503947,0.01863138976503947,0.08750644537186571,0.037660000000000006,0.46858000000000005,-0.4508000000000001,20.5,0,1801,953,693,3450,29.5727734375,6648,29.86837817458162,1000.9495019419466,0
2024-03-17T10:00:09,-0.21714865095,-0.010169496049999999,10.0031948793,0.0238237442897226,0.01786780821729195,0.08735372906231621,0.03486000000000001,0.47026000000000007,-0.44884,20.5,0,1801,953,693,3450,29.5727734375,6648,29.86837817458162,1000.9495019419466,0
2024-03-17T10:00:09,-0.2141576227,0.0131605243,10.086943670299998,0.021991148575128558,0.024740042147019626,0.08781187799096472,0.03374,0.4719400000000001,-0.4494,20.5,0,1801,953,693,3450,29.5727734375,6648,29.86837817458162,1000.9495019419466,0
2024-03-17T10:00:09,-0.2177468566,0.014955141249999998,10.007382318849999,0.031001410838549282,-0.25106561289938434,0.10522153727960815,0.034300000000000004,0.47614000000000006,-0.4473000000000001,20.5,0,1801,953,693,3450,29.5727734375,6648,29.86837817458162,1000.9495019419466,0
2024-03-17T10:00:09,-0.2105683888,-0.01854437515,10.0438728635,0.012675453692608819,0.1350012176417614,0.08842274322916273,0.034300000000000004,0.47614000000000006,-0.4473000000000001,19.5,0,1801,953,693,3450,29.5727734375,6648,29.86837817458162,1000.9495019419466,0
2024-03-17T10:00:09,-0.20458633229999998,-0.0047856452,10.046863891749998,0.06597344572538566,-0.10965031025654376,-0.06230825429619757,0.032060000000000005,0.48034000000000004,-0.44002,20.5,0,1801,953,693,3450,29.5727734375,6648,29.86837817458162,1000.9495019419466,0
2024-03-17T10:00:09,-0.20279171534999998,-0.00059820565,10.030114133549999,0.06597344572538566,-0.09560040977798942,-0.06994406977367276,0.034300000000000004,0.47614000000000006,-0.44226000000000004,20.5,0,1801,953,693,3450,29.6833203125,7049,29.787972303599574,1000.9495361402925,0
2024-03-17T10:00:09,-0.20997018315,-0.0023928226,10.068997500799998,0.04550946024575215,-0.026878070480712675,-0.05635231822376692,0.030660000000000003,0.47306000000000004,-0.44408000000000003,20.5,0,1801,953,693,3450,29.6833203125,7049,29.787972303599574,1000.9495361402925,0
2024-03-17T10:00:09,-0.21116659445,-0.014955141249999998,10.04447106915,0.03802636107782646,-0.012064588454410803,-0.05604688560466791,0.035980000000000005,0.47558000000000006,-0.44954,20.5,0,1801,953,693,3450,29.6833203125,7049,29.787972303599574,1000.9495361402925,0
2024-03-17T10:00:09,-0.215354034,-0.008973084749999999,9.95593663295,0.041386119887915546,-0.007330382858376185,-0.0554360203664699,0.035980000000000005,0.47558000000000006,-0.45990000000000003,20.5,0,1801,953,693,3450,29.6833203125,7049,29.787972303599574,1000.9495361402925,0
2024-03-17T10:00:09,-0.19920248144999997,-0.0017946169499999999,10.045069274799998,0.03924809155422249,0.0,-0.05619960191421741,0.04242,0.46998,-0.45990000000000003,20.5,0,1801,953,693,3450,29.6833203125,7049,29.787972303599574,1000.9495361402925,0
2024-03-17T10:00:09,-0.20458633229999998,-0.005982056499999999,10.105488045449999,0.03787364476827696,0.0022907446432425577,-0.052534410485029326,0.04186000000000001,0.48090000000000005,-0.45220000000000005,20.5,0,1801,953,693,3450,29.6833203125,7049,29.787972303599574,1000.9495361402925,0
2024-03-17T10:00:09,-0.20279171534999998,-0.0035892338999999997,10.01456078665,0.04016438941151951,0.005039638215133627,-0.050243665841786765,0.038220000000000004,0.47782,-0.4461800000000001,20.5,0,1801,953,693,3450,29.6833203125,7049,29.787972303599574,1000.9495361402925,0
2024-03-17T10:00:09,-0.19920248144999997,-0.005383850849999999,10.1120683076,0.040622538340168025,0.005039638215133627,-0.051159963699083794,0.038220000000000004,0.47782,-0.4461800000000001,20.5,0,1801,953,693,3450,29.77921875,7474,29.689430523201263,1000.9472791138361,0
2024-03-17T10:00:09,-0.2069791549,-0.007178467799999999,10.069595706449999,0.038789942625573975,0.007941248096574201,-0.049938233222687756,0.03794,0.47586000000000006,-0.4432400000000001,20.5,0,1804,955,693,3452,29.77921875,7474,29.689430523201263,1000.9472791138361,0
2024-03-17T10:00:09,-0.18005990065000002,-0.01615155255,10.040283629599998,0.039553524173321496,0.010537425358915765,-0.04780020488899471,0.027020000000000002,0.47026000000000007,-0.45122,20.5,0,1804,955,693,3452,29.77921875,7474,29.689430523201263,1000.9472791138361,0
2024-03-17T10:00:09,-0.22671994134999998,-0.01256231865,10.1120683076,0.03802636107782646,0.009773843811168246,-0.04917465167494024,0.03542,0.48258000000000006,-0.4368000000000001,20.5,0,1804,955,693,3452,29.77921875,7474,29.689430523201263,1000.9472791138361,0
2024-03-17T10:00:09,-0.22671994134999998,-0.0017946169499999999,10.061819032999999,0.03802636107782646,0.007788531787024696,-0.04886921905584123,0.03542,0.48258000000000006,-0.4473000000000001,20.5,0,1804,955,693,3452,29.77921875,7474,29.689430523201263,1000.9472791138361,0
2024-03-17T10:00:09,-0.21894326790000002,-0.005982056499999999,10.04566748045,0.04550946024575215,0.006261368691529657,-0.049021935365390734,0.03682,0.4711,-0.4473000000000001,20.5,0,1804,955,693,3452,29.77921875,7474,29.689430523201263,1000.9472791138361,0
2024-03-17T10:00:09,-0.2177468566,-0.0131605243,10.096514960699999,0.04230241774521256,0.009773843811168246,-0.047952921198544204,0.04186000000000001,0.46774000000000004,-0.43666000000000005,20.5,0,1804,955,693,3452,29.77921875,7474,29.689430523201263,1000.9472791138361,0
2024-03-17T10:00:09,-0.19680965884999999,-0.0251246373,10.08634546465,0.04245513405476207,0.0070249502392771765,-0.04520402762665314,0.03654,0.47866000000000003,-0.44128,20.5,0,1804,955,693,3452,29.863984375,7883,29.584335210836407,1000.9520335951861,0
2024-03-17T10:00:09,-0.18424734019999997,-0.0077766734499999995,10.0582297991,0.04077525464971753,0.007483099167925688,-0.04474587869800463,0.0357,0.4711,-0.44576000000000005,20.5,0,1804,955,693,3452,29.863984375,7883,29.584335210836407,1000.9520335951861,0
2024-03-17T10:00:09,-0.2105683888,-0.0083748791,10.0558369765,0.04214970143566306,0.005345070834232635,-0.04489859500755413,0.0357,0.4711,-0.44576000000000005,20.5,0,1804,955,693,3452,29.863984375,7883,29.584335210836407,1000.9520335951861,0
2024-03-17T10:00:09,-0.21355941705,-0.013758729949999998,10.02293566575,0.04291328298341058,0.008552113334772215,-0.04642575810304917,0.0357,0.47502000000000005,-0.4432400000000001,20.5,0,1804,955,693,3452,29.863984375,7883,29.584335210836407,1000.9520335951861,0
2024-03-17T10:00:09,-0.22313070744999997,0.01615155255,10.07438135165,0.04260785036431157,0.0009162978572970231,-0.04092797095926703,0.03654,0.47670000000000007,-0.45192,20.5,0,1804,955,693,3452,29.863984375,7883,29.584335210836407,1000.9520335951861,0
2024-03-17T10:00:09,-0.20578274359999998,-0.021535403399999997,10.089934698549998,0.043982297150257116,0.005803219762881146,-0.04413501345980661,0.04438,0.48426,-0.44828,20.5,0,1804,955,693,3452,29.863984375,7883,29.584335210836407,1000.9520335951861,0
2024-03-17T10:00:09,-0.20757736054999998,0.007178467799999999,10.06122082735,0.04077525464971753,0.0036651914291880926,-0.0433714319120591,0.04438,0.48426,-0.44828,20.5,0,1804,955,693,3452,29.863984375,7883,29.584335210836407,1000.9520335951861,0
2024-03-17T10:00:09,-0.22133609049999997,0.0011964113,10.082756230749998,0.04245513405476207,-0.0022907446432425577,-0.04306599929296009,0.03262,0.47502000000000005,-0.4461800000000001,20.5,0,1804,955,693,3452,29.9395703125,8273,29.49534729859897,1000.9526361697059,0
2024-03-17T10:00:10,-0.20279171534999998,0.0023928226,10.02652489965,0.041386119887915546,-0.0027488935718910697,-0.04214970143566306,0.038500000000000006,0.4649400000000001,-0.4443600000000001,20.5,0,1804,955,693,3452,29.9395703125,8273,29.49534729859897,1000.9526361697059,0
2024-03-17T10:00:10,-0.23928225999999997,-0.010767701699999998,10.0558369765,0.04535674393620265,-0.004581489286485115,-0.043676864531158106,0.040740000000000005,0.4711,-0.45192,20.5,0,1804,955,693,3452,29.9395703125,8273,29.49534729859897,1000.9526361697059,0
2024-03-17T10:00:10,-0.2141576227,0.024526431649999996,10.071390323399998,0.04214970143566306,-0.0013744467859455349,-0.0433714319120591,0.040740000000000005,0.4711,-0.45192,20.5,0,1804,955,693,3452,29.9395703125,8273,29.49534729859897,1000.9526361697059,0
2024-03-17T10:00:10,-0.22073788485,0.017946169499999998,10.015757197949998,0.04123340357836604,-0.0018325957145940463,-0.043982297150257116,0.03962,0.46830000000000005,-0.44226000000000004,20.5,0,1804,955,693,3452,29.9395703125,8273,29.49534729859897,1000.9526361697059,0
2024-03-17T10:00:10,-0.21475582835,-0.007178467799999999,9.994221794549999,0.04535674393620265,-0.0012217304763960308,-0.04489859500755413,0.037660000000000006,0.46942000000000006,-0.43834,20.5,0,1804,955,693,3452,29.9395703125,8273,29.49534729859897,1000.9526361697059,0
2024-03-17T10:00:10,-0.22193429615000002,0.00658026215,10.073783145999998,0.04260785036431157,-0.0044287729769356115,-0.04642575810304917,0.03234,0.47782,-0.43624000000000007,20.5,0,1804,955,693,3452,29.9395703125,8273,29.49534729859897,1000.9526361697059,0
2024-03-17T10:00:10,-0.21954147355,-0.0191425808,10.039685423949999,0.043982297150257116,-0.0024434609527920616,-0.040317105721069016,0.03234,0.47782,-0.43624000000000007,20.5,0,1804,955,693,3452,30.0063671875,8647,29.388782764863024,1000.9604872529712,0
2024-03-17T10:00:10,-0.23688943739999999,-0.010767701699999998,10.07438135165,0.041996985126113565,-0.0003054326190990077,-0.04612032548395016,0.029540000000000004,0.4713800000000001,-0.45766,20.5,0,1804,955,693,3452,30.0063671875,8647,29.388782764863024,1000.9604872529712,0
2024-03-17T10:00:10,-0.2165504453,-0.008973084749999999,10.003793084949999,0.041996985126113565,-0.0019853120241435504,-0.043982297150257116,0.037660000000000006,0.4711,-0.4601800000000001,20.5,0,1804,955,693,3452,30.0063671875,8647,29.388782764863024,1000.9604872529712,0
2024-03-17T10:00:10,-0.22791635265,-0.032901310749999996,10.054042359550001,0.04245513405476207,-0.0015271630954950385,-0.0433714319120591,0.03514,0.47558000000000006,-0.44548000000000004,20.5,0,1804,955,693,3452,30.0063671875,8647,29.388782764863024,1000.9604872529712,0
2024-03-17T10:00:10,-0.2117648001,-0.0095712904,10.0725867347,0.041386119887915546,-0.0013744467859455349,-0.04566217655530165,0.03514,0.47558000000000006,-0.44548000000000004,20.5,0,1804,955,693,3452,30.0063671875,8647,29.388782764863024,1000.9604872529712,0
2024-03-17T10:00:10,-0.22971096959999998,-0.00658026215,10.0773723799,0.038942658935123484,-0.0018325957145940463,-0.04077525464971753,0.028700000000000003,0.47614000000000006,-0.44072,20.5,0,1804,955,693,3452,30.0063671875,8647,29.388782764863024,1000.9604872529712,0
2024-03-17T10:00:10,-0.19202401365,0.0029910282499999996,10.000203851049998,0.04214970143566306,-0.0019853120241435504,-0.04596760917440065,0.03374,0.47978000000000004,-0.45822,20.5,0,1804,955,693,3452,30.0063671875,8647,29.388782764863024,1000.9604872529712,0
2024-03-17T10:00:10,-0.2237289131,0.005383850849999999,10.083354436399997,0.04550946024575215,-0.0016798794050445422,-0.04612032548395016,0.0357,0.47250000000000003,-0.44254000000000004,20.5,0,1804,955,693,3452,30.0665234375,9033,29.309763281534202,1000.9611445507066,0
2024-03-17T10:00:10,-0.1890329854,0.01974078645,10.061819032999999,0.04321871560250959,-0.0006108652381980154,-0.04688390703169768,0.03458000000000001,0.4772600000000001,-0.45696000000000003,20.5,0,1804,955,693,3453,30.0665234375,9033,29.309763281534202,1000.9611445507066,0
2024-03-17T10:00:10,-0.215354034,0.014955141249999998,10.04985492,0.040622538340168025,-0.0024434609527920616,-0.0433714319120591,0.03458000000000001,0.4772600000000001,-0.45696000000000003,20.5,0,1804,955,693,3453,30.0665234375,9033,29.309763281534202,1000.9611445507066,0
2024-03-17T10:00:10,-0.21595223965000002,-0.0035892338999999997,10.05643518215,0.0433714319120591,0.0022907446432425577,-0.04856378643674222,0.03374,0.47670000000000007,-0.44520000000000004,20.5,0,1804,955,693,3453,30.0665234375,9033,29.309763281534202,1000.9611445507066,0
2024-03-17T10:00:10,-0.20578274359999998,-0.04366901245,10.07318494035,0.04581489286485116,-0.003207042500539581,-0.04092797095926703,0.03486000000000001,0.46970000000000006,-0.44954,20.5,0,1804,955,693,3453,30.0665234375,9033,29.309763281534202,1000.9611445507066,0
2024-03-17T10:00:10,-0.21714865095,-0.0095712904,10.03729260135,0.041080687268816536,0.0,-0.04306599929296009,0.04102,0.47642000000000007,-0.44744000000000006,20.5,0,1804,955,693,3453,30.0665234375,9033,29.309763281534202,1000.9611445507066,0
2024-03-17T10:00:10,-0.22193429615000002,-0.00418743955,10.0582297991,0.04123340357836604,-0.00473420559603462,-0.049938233222687756,0.04102,0.47642000000000007,-0.44744000000000006,20.5,0,1804,955,693,3453,30.0665234375,9033,29.309763281534202,1000.9611445507066,0
2024-03-17T10:00:10,-0.2105683888,0.008973084749999999,10.048060303049999,0.04612032548395016,-0.0044287729769356115,-0.05009094953223726,0.032900000000000006,0.47222000000000003,-0.45654,20.5,0,1804,955,693,3453,30.1223828125,9412,29.17991240786405,1000.9745516070498,0
2024-03-17T10:00:10,-0.23509482044999996,-0.023330020349999998,10.092327521149999,0.04444044607890562,0.00045814892864851157,-0.04673119072214818,0.03318,0.47026000000000007,-0.44464000000000004,20.5,0,1804,955,693,3453,30.1223828125,9412,29.17991240786405,1000.9745516070498,0
2024-03-17T10:00:10,-0.18484554585,-0.013758729949999998,10.076175968599998,0.0433714319120591,-0.0016798794050445422,-0.04505131131710364,0.035980000000000005,0.4655000000000001,-0.44296,20.5,0,1804,955,693,3453,30.1223828125,9412,29.17991240786405,1000.9745516070498,0
2024-03-17T10:00:10,-0.20997018315,0.0077766734499999995,10.0546405652,0.04306599929296009,0.00045814892864851157,-0.04444044607890562,0.038220000000000004,0.47698,-0.4473000000000001,20.5,0,1804,955,693,3453,30.1223828125,9412,29.17991240786405,1000.9745516070498,0
2024-03-17T10:00:10,-0.18245272324999998,0.00418743955,10.0462656861,0.041386119887915546,-0.00015271630954950385,-0.04077525464971753,0.038220000000000004,0.47698,-0.4473000000000001,20.5,0,1804,955,693,3453,30.1223828125,9412,29.17991240786405,1000.9745516070498,0
2024-03-17T10:00:10,-0.2117648001,-0.017946169499999998,10.0654082669,0.043982297150257116,-0.0013744467859455349,-0.04077525464971753,0.0441,0.4713800000000001,-0.4496800000000001,20.5,0,1804,955,693,3453,30.1223828125,9412,29.17991240786405,1000.9745516070498,0
2024-03-17T10:00:10,-0.20817556619999997,-0.022133609050000003,10.071988529050001,0.041691552507014555,-0.0015271630954950385,-0.04306599929296009,0.038220000000000004,0.47698,-0.44548000000000004,20.5,0,1804,955,693,3453,30.1223828125,9412,29.17991240786405,1000.9745516070498,0
2024-03-17T10:00:10,-0.2165504453,-0.008973084749999999,10.08036340815,0.04123340357836604,-0.001069014166846527,-0.04260785036431157,0.038220000000000004,0.47698,-0.44548000000000004,20.5,0,1804,955,693,3453,30.172578125,9816,29.083296756971986,1000.97876846462,0
2024-03-17T10:00:10,-0.22731814699999997,0.0023928226,10.079765202499999,0.04688390703169768,0.0003054326190990077,-0.04627304179349966,0.03178,0.46998,-0.43736,20.5,0,1804,955,693,3453,30.172578125,9816,29.083296756971986,1000.97876846462,0
2024-03-17T10:00:10,-0.22073788485,-0.0131605243,10.046863891749998,0.039858956792420505,-0.004581489286485115,-0.043982297150257116,0.03178,0.46998,-0.43736,20.5,0,1804,955,693,3453,30.172578125,9816,29.083296756971986,1000.97876846462,0
2024-03-17T10:00:10,-0.215354034,-0.01615155255,10.071988529050001,0.04444044607890562,0.00045814892864851157,-0.04306599929296009,0.03318,0.46718000000000004,-0.45038000000000006,20.5,0,1804,955,693,3453,30.172578125,9816,29.083296756971986,1000.97876846462,0
2024-03-17T10:00:10,-0.21894326790000002,0.0017946169499999999,10.0654082669,0.04260785036431157,-0.0012217304763960308,-0.043676864531158106,0.03486000000000001,0.4719400000000001,-0.4438000000000001,20.5,0,1804,955,693,3453,30.172578125,9816,29.083296756971986,1000.97876846462,0
2024-03-17T10:00:10,-0.23748764304999997,0.005383850849999999,9.963713306399999,0.04306599929296009,-0.0019853120241435504,-0.04428772976935611,0.03486000000000001,0.4719400000000001,-0.4438000000000001,20.5,0,1804,955,693,3453,30.172578125,9816,29.083296756971986,1000.97876846462,0
2024-03-17T10:00:10,-0.20877377184999998,-0.0047856452,10.173683489549997,0.0433714319120591,0.00045814892864851157,-0.04642575810304917,0.0357,0.47446000000000005,-0.45626000000000005,20.5,0,1804,955,693,3453,30.172578125,9816,29.083296756971986,1000.97876846462,0
2024-03-17T10:00:10,-0.20578274359999998,-0.04127618984999999,10.0594262104,0.04306599929296009,-0.0003054326190990077,-0.04382958084070761,0.04186000000000001,0.46858000000000005,-0.43918000000000007,20.5,0,1804,955,693,3453,30.2188671875,10187,28.980792369202177,1000.9820265166892,0
2024-03-17T10:00:10,-0.24705893344999996,-0.010767701699999998,10.078568791199999,0.04245513405476207,-0.0003054326190990077,-0.04489859500755413,0.03486000000000001,0.47390000000000004,-0.44534,20.5,0,1804,955,693,3453,30.2188671875,10187,28.980792369202177,1000.9820265166892,0
2024-03-17T10:00:10,-0.22013967919999997,-0.021535403399999997,10.063015444300001,0.041386119887915546,-0.003054326190990077,-0.04444044607890562,0.0357,0.47642000000000007,-0.45150000000000007,20.5,0,1804,955,693,3453,30.2188671875,10187,28.980792369202177,1000.9820265166892,0
2024-03-17T10:00:10,-0.22313070744999997,0.0011964113,10.052247742599999,0.039706240482871004,-0.0006108652381980154,-0.04718933965079669,0.0357,0.47642000000000007,-0.45150000000000007,20.5,0,1804,955,693,3453,30.2188671875,10187,28.980792369202177,1000.9820265166892,0
2024-03-17T10:00:10,-0.24646072779999997,-0.0251246373,10.083354436399997,0.043676864531158106,-0.0038179077387375964,-0.04596760917440065,0.03262,0.47558000000000006,-0.44254000000000004,20.5,0,1804,955,693,3453,30.2188671875,10187,28.980792369202177,1000.9820265166892,0
2024-03-17T10:00:11,-0.19860427579999998,-0.0017946169499999999,10.06361364995,0.03512475119638588,-0.0016798794050445422,-0.04444044607890562,0.032900000000000006,0.46718000000000004,-0.4536,20.5,0,1804,955,693,3453,30.2188671875,10187,28.980792369202177,1000.9820265166892,0
2024-03-17T10:00:11,-0.20398812665,0.0023928226,10.042676452199998,0.039858956792420505,-0.004276056667386108,-0.04489859500755413,0.032900000000000006,0.46718000000000004,-0.4536,20.5,0,1804,955,693,3453,30.2188671875,10187,28.980792369202177,1000.9820265166892,0
2024-03-17T10:00:11,-0.22851455829999998,0.014955141249999998,10.110273690649999,0.047952921198544204,-0.002138028333693054,-0.0476474885794452,0.03794,0.47782,-0.45066,20.5,0,1871,987,706,3547,30.260078125,10544,28.877910779593606,1000.9842230693556,0
2024-03-17T10:00:11,-0.2165504453,0.0011964113,10.1156575415,0.039706240482871004,-0.0009162978572970231,-0.047952921198544204,0.03458000000000001,0.46522,-0.45598,20.5,0,1871,987,706,3547,30.260078125,10544,28.877910779593606,1000.9842230693556,0
2024-03-17T10:00:11,-0.1890329854,-0.020338992099999998,10.073783145999998,0.04245513405476207,-0.0007635815477475193,-0.04459316238845512,0.03178,0.47446000000000005,-0.4501,20.5,0,1871,987,706,3547,30.260078125,10544,28.877910779593606,1000.9842230693556,0
2024-03-17T10:00:11,-0.22013967919999997,-0.010169496049999999,10.076774174250001,0.04016438941151951,-0.0054977871437821395,-0.04550946024575215,0.03934,0.47334000000000004,-0.44072,20.5,0,1871,987,706,3547,30.260078125,10544,28.877910779593606,1000.9842230693556,0
2024-03-17T10:00:11,-0.21355941705,-0.00418743955,10.048658508699999,0.04260785036431157,-0.004123340357836604,-0.04474587869800463,0.03934,0.47334000000000004,-0.44072,20.5,0,1871,987,706,3547,30.260078125,10544,28.877910779593606,1000.9842230693556,0
2024-03-17T10:00:11,-0.19680965884999999,0.013758729949999998,10.009176935799998,0.03787364476827696,-0.006261368691529657,-0.04291328298341058,0.037660000000000006,0.47558000000000006,-0.44352,20.5,0,1871,987,706,3547,30.260078125,10544,28.877910779593606,1000.9842230693556,0
2024-03-17T10:00:11,-0.21296121140000002,0.028713871199999998,10.0558369765,0.041691552507014555,-0.004276056667386108,-0.04566217655530165,0.03626000000000001,0.47222000000000003,-0.46690000000000004,20.5,0,1871,987,706,3547,30.260078125,10544,28.877910779593606,1000.9842230693556,0
2024-03-17T10:00:11,-0.18424734019999997,-0.0370887503,10.091729315499999,0.04459316238845512,-0.0012217304763960308,-0.04276056667386108,0.04494000000000001,0.47558000000000006,-0.44282000000000005,20.5,0,1871,987,706,3547,30.299140625,10927,28.774904939519,1000.9829313183704,0
2024-03-17T10:00:11,-0.22791635265,-0.029312076849999997,10.07438135165,0.04276056667386108,-0.003970624048287101,-0.04566217655530165,0.045500000000000006,0.46998,-0.44506000000000007,20.5,0,1871,987,706,3547,30.299140625,10927,28.774904939519,1000.9829313183704,0
2024-03-17T10:00:11,-0.19680965884999999,0.01854437515,10.0821580251,0.04276056667386108,0.038789942625573975,-0.04459316238845512,0.045500000000000006,0.46998,-0.44506000000000007,20.5,0,1871,987,706,3547,30.299140625,10927,28.774904939519,1000.9829313183704,0
2024-03-17T10:00:11,-0.22851455829999998,0.01854437515,10.043274657849999,0.04046982203061852,-0.0036651914291880926,-0.049021935365390734,0.039060000000000004,0.47642000000000007,-0.45192,20.5,0,1871,987,706,3547,30.299140625,10927,28.774904939519,1000.9829313183704,0
2024-03-17T10:00:11,-0.22552353004999998,0.008973084749999999,10.083354436399997,0.04123340357836604,-0.0009162978572970231,-0.04123340357836604,0.043820000000000005,0.46970000000000006,-0.4513600000000001,20.5,0,1871,987,706,3547,30.299140625,10927,28.774904939519,1000.9829313183704,0
2024-03-17T10:00:11,-0.19980068709999999,-0.01734796385,10.06839929515,0.04657847441259867,0.0006108652381980154,-0.043676864531158106,0.043820000000000005,0.46970000000000006,-0.4513600000000001,20.5,0,1871,987,706,3547,30.299140625,10927,28.774904939519,1000.9829313183704,0
2024-03-17T10:00:11,-0.21355941705,-0.00059820565,10.083354436399997,0.04291328298341058,0.0,-0.04306599929296009,0.030940000000000002,0.47782,-0.4473000000000001,20.5,0,1871,987,706,3547,30.299140625,10927,28.774904939519,1000.9829313183704,0
2024-03-17T10:00:11,-0.22073788485,0.014356935599999999,10.033105161799998,0.04077525464971753,-0.002138028333693054,-0.04214970143566306,0.04046,0.47026000000000007,-0.45332000000000006,20.5,0,1871,987,706,3547,30.33703125,11314,28.671859254585,1000.9869105403023,0
2024-03-17T10:00:11,-0.22492532440000002,-0.01974078645,10.0953185494,0.039858956792420505,-0.0022907446432425577,-0.04382958084070761,0.03682,0.4719400000000001,-0.44772,20.5,0,1871,987,706,3547,30.33703125,11314,28.671859254585,1000.9869105403023,0
2024-03-17T10:00:11,-0.19920248144999997,-0.0035892338999999997,10.0223374601,0.04306599929296009,0.0012217304763960308,-0.04474587869800463,0.037380000000000004,0.4781,-0.44058,20.5,0,1871,987,706,3547,30.33703125,11314,28.671859254585,1000.9869105403023,0
2024-03-17T10:00:11,-0.19680965884999999,0.0017946169499999999,10.110273690649999,0.04489859500755413,-0.0025961772623415654,-0.04642575810304917,0.037380000000000004,0.4781,-0.44058,20.5,0,1871,987,706,3547,30.33703125,11314,28.671859254585,1000.9869105403023,0
2024-03-17T10:00:11,-0.1950150419,-0.017946169499999998,10.251450224049998,0.04505131131710364,-0.003970624048287101,-0.04214970143566306,0.038220000000000004,0.47922000000000003,-0.4496800000000001,20.5,0,1871,987,706,3547,30.33703125,11314,28.671859254585,1000.9869105403023,0
2024-03-17T10:00:11,-0.23330020349999997,-0.011365907350000001,10.050453125649998,0.04780020488899471,0.0024434609527920616,-0.04291328298341058,0.04046,0.4772600000000001,-0.45402000000000003,20.5,0,1871,987,706,3547,30.33703125,11314,28.671859254585,1000.9869105403023,0
2024-03-17T10:00:11,-0.20638094924999997,-0.013758729949999998,10.06720288385,0.04505131131710364,-0.003054326190990077,-0.04642575810304917,0.04046,0.4772600000000001,-0.45402000000000003,20.5,0,1871,987,706,3547,30.33703125,11314,28.671859254585,1000.9869105403023,0
2024-03-17T10:00:11,-0.19561324754999998,-0.008973084749999999,10.09591675505,0.04153883619746505,0.0007635815477475193,-0.0435241482216086,0.03794,0.47054,-0.4561200000000001,20.5,0,1871,987,706,3547,30.37140625,11725,28.56298872404277,1000.994159356151,0
2024-03-17T10:00:11,-0.18424734019999997,-0.0047856452,10.0941221381,0.04627304179349966,0.0019853120241435504,-0.04581489286485116,0.03542,0.4781,-0.44842000000000004,20.5,0,1871,987,706,3547,30.37140625,11725,28.56298872404277,1000.994159356151,0
2024-03-17T10:00:11,-0.19322042494999997,-0.020937197749999997,10.123434214949999,0.04550946024575215,-0.004123340357836604,-0.048411070127192715,0.03402,0.47558000000000006,-0.45934,20.5,0,1871,987,706,3547,30.37140625,11725,28.56298872404277,1000.994159356151,0
2024-03-17T10:00:11,-0.23270199784999998,-0.0017946169499999999,10.076774174250001,0.04291328298341058,-0.0007635815477475193,-0.04566217655530165,0.04018000000000001,0.47306000000000004,-0.45682000000000006,20.5,0,1871,987,706,3547,30.37140625,11725,28.56298872404277,1000.994159356151,0
2024-03-17T10:00:11,-0.22432711874999997,0.01734796385,10.066006472549999,0.04413501345980661,0.0009162978572970231,-0.04688390703169768,0.04018000000000001,0.47306000000000004,-0.45682000000000006,20.5,0,1871,987,706,3547,30.37140625,11725,28.56298872404277,1000.994159356151,0
2024-03-17T10:00:11,-0.22971096959999998,-0.0035892338999999997,10.07318494035,0.04382958084070761,-0.005803219762881146,-0.041691552507014555,0.037660000000000006,0.47334000000000004,-0.4566800000000001,20.5,0,1871,987,706,3547,30.37140625,11725,28.56298872404277,1000.994159356151,0
2024-03-17T10:00:11,-0.2177468566,-0.023330020349999998,10.001998467999998,0.041080687268816536,-0.003970624048287101,-0.04627304179349966,0.039900000000000005,0.4772600000000001,-0.44366,20.5,0,2032,1066,737,3775,30.37140625,11725,28.56298872404277,1000.994159356151,0
2024-03-17T10:00:11,-0.23988046564999999,-0.01256231865,10.103693428499998,0.04489859500755413,0.038637226316024474,-0.04688390703169768,0.03934,0.47614000000000006,-0.44492000000000004,20.5,0,2032,1066,737,3775,30.4032421875,12067,28.470724339661185,1000.9972902413648,0
2024-03-17T10:00:11,-0.19800607015,-0.00418743955,10.0893364929,0.039095375244672985,-0.0015271630954950385,-0.039706240482871004,0.03122,0.47082000000000007,-0.44646,20.5,0,2032,1066,737,3775,30.4032421875,12067,28.470724339661185,1000.9972902413648,0
2024-03-17T10:00:11,-0.20518453794999997,0.025722842949999998,10.1240324206,0.041080687268816536,-0.0013744467859455349,-0.04382958084070761,0.03122,0.47082000000000007,-0.44646,20.5,0,2032,1066,737,3775,30.4032421875,12067,28.470724339661185,1000.9972902413648,0
2024-03-17T10:00:11,-0.20877377184999998,-0.014955141249999998,10.130014477099998,0.04489859500755413,-0.0018325957145940463,-0.04230241774521256,0.037380000000000004,0.47586000000000006,-0.45220000000000005,20.5,0,2032,1066,737,3775,30.4032421875,12067,28.470724339661185,1000.9972902413648,0
2024-03-17T10:00:11,-0.20757736054999998,0.013758729949999998,10.06839929515,0.04306599929296009,-0.0015271630954950385,-0.04474587869800463,0.03934,0.47362000000000004,-0.45248,20.5,0,2032,1066,737,3775,30.4032421875,12067,28.470724339661185,1000.9972902413648,0
2024-03-17T10:00:11,-0.24406790519999996,-0.022133609050000003,10.08036340815,0.039706240482871004,-0.0038179077387375964,-0.04505131131710364,0.035980000000000005,0.4781,-0.4466,20.5,0,2032,1066,737,3775,30.4032421875,12067,28.470724339661185,1000.9972902413648,0
2024-03-17T10:00:11,-0.20578274359999998,-0.005982056499999999,10.071988529050001,0.04428772976935611,-0.0024434609527920616,-0.0435241482216086,0.035980000000000005,0.4781,-0.4466,20.5,0,2032,1066,737,3775,30.4032421875,12067,28.470724339661185,1000.9972902413648,0
2024-03-17T10:00:11,-0.21714865095,-0.008973084749999999,10.105488045449999,0.038179077387375956,-0.001069014166846527,-0.0435241482216086,0.030100000000000002,0.47446000000000005,-0.45584,20.5,0,2032,1066,737,3775,30.4337109375,12467,28.361652762477288,1000.9892300125009,0
2024-03-17T10:00:12,-0.23150558654999998,0.0017946169499999999,10.064211855599998,0.0433714319120591,0.00015271630954950385,-0.04459316238845512,0.030660000000000003,0.46942000000000006,-0.4555600000000001,20.5,0,2032,1066,737,3775,30.4337109375,12467,28.361652762477288,1000.9892300125009,0
2024-03-17T10:00:12,-0.23808584869999996,0.005383850849999999,10.06720288385,0.04001167310197001,0.0006108652381980154,-0.04306599929296009,0.024500000000000004,0.46970000000000006,-0.4508000000000001,20.5,0,2032,1066,737,3775,30.4337109375,12467,28.361652762477288,1000.9892300125009,0
2024-03-17T10:00:12,-0.23150558654999998,-0.0131605243,10.064211855599998,0.04321871560250959,0.0003054326190990077,-0.04718933965079669,0.038500000000000006,0.47306000000000004,-0.44716,20.5,0,2032,1066,737,3775,30.4337109375,12467,28.361652762477288,1000.9892300125009,0
2024-03-17T10:00:12,-0.20458633229999998,0.0095712904,10.07438135165,0.040622538340168025,-0.0003054326190990077,-0.047952921198544204,0.038500000000000006,0.47306000000000004,-0.44716,20.5,0,2032,1066,737,3775,30.4337109375,12467,28.361652762477288,1000.9892300125009,0
2024-03-17T10:00:12,-0.25423740125,-0.00418743955,10.0666046782,0.04276056667386108,-0.00015271630954950385,-0.04780020488899471,0.035980000000000005,0.47306000000000004,-0.44884,20.5,0,2032,1066,737,3775,30.4337109375,12467,28.361652762477288,1000.9892300125009,0
2024-03-17T10:00:12,-0.23509482044999996,-0.00059820565,10.083354436399997,0.04123340357836604,-0.0009162978572970231,-0.04230241774521256,0.03486000000000001,0.47306000000000004,-0.44506000000000007,20.5,0,2032,1066,737,3775,30.4337109375,12467,28.361652762477288,1000.9892300125009,0
2024-03-17T10:00:12,-0.18364913454999998,-0.00059820565,10.064211855599998,0.04123340357836604,-0.0022907446432425577,-0.04642575810304917,0.03486000000000001,0.47306000000000004,-0.44506000000000007,20.5,0,2032,1066,737,3775,30.4614453125,12831,28.269152199749332,1000.9964748180978,0
2024-03-17T10:00:12,-0.22791635265,0.005383850849999999,10.217352501999999,0.041691552507014555,-0.0025961772623415654,-0.041844268816564056,0.03878,0.46718000000000004,-0.46074000000000004,20.5,0,2032,1066,737,3775,30.4614453125,12831,28.269152199749332,1000.9964748180978,0
2024-03-17T10:00:12,-0.2225325018,-0.005383850849999999,10.076774174250001,0.0433714319120591,-0.0019853120241435504,-0.04596760917440065,0.03878,0.46718000000000004,-0.46074000000000004,20.5,0,2032,1066,737,3775,30.4614453125,12831,28.269152199749332,1000.9964748180978,0
2024-03-17T10:00:12,-0.2141576227,-0.0095712904,10.071390323399998,0.04230241774521256,-0.00045814892864851157,-0.047952921198544204,0.033460000000000004,0.48006000000000004,-0.44702000000000003,20.5,0,2032,1066,737,3775,30.4614453125,12831,28.269152199749332,1000.9964748180978,0
2024-03-17T10:00:12,-0.19980068709999999,-0.01256231865,10.0235338714,0.04566217655530165,-0.0006108652381980154,-0.04596760917440065,0.03178,0.47446000000000005,-0.4478600000000001,20.5,0,2032,1066,737,3775,30.4614453125,12831,28.269152199749332,1000.9964748180978,0
2024-03-17T10:00:12,-0.24107687694999996,0.0035892338999999997,10.104291634149998,0.041996985126113565,0.0003054326190990077,-0.0474947722698957,0.03178,0.47446000000000005,-0.4478600000000001,20.5,0,2032,1066,737,3775,30.4614453125,12831,28.269152199749332,1000.9964748180978,0
2024-03-17T10:00:12,-0.19381863059999999,-0.022133609050000003,10.07438135165,0.04581489286485116,-0.0038179077387375964,-0.043676864531158106,0.03486000000000001,0.47670000000000007,-0.4424,20.5,0,2032,1066,737,3775,30.4614453125,12831,28.269152199749332,1000.9964748180978,0
2024-03-17T10:00:12,-0.20578274359999998,0.0191425808,10.09591675505,0.03634648167278191,-0.004886921905584123,-0.04489859500755413,0.027860000000000003,0.47250000000000003,-0.44044000000000005,20.5,0,2032,1066,737,3775,30.4880078125,13208,28.165458053106057,1000.9910511374857,0
2024-03-17T10:00:12,-0.17886348935000002,0.010169496049999999,10.07318494035,0.0433714319120591,-0.0016798794050445422,-0.04505131131710364,0.029820000000000003,0.48174000000000006,-0.4491200000000001,20.5,0,2032,1066,737,3775,30.4880078125,13208,28.165458053106057,1000.9910511374857,0
2024-03-17T10:00:12,-0.22971096959999998,-0.0251246373,10.028917722249998,0.04382958084070761,-0.0027488935718910697,-0.04657847441259867,0.032060000000000005,0.48482000000000003,-0.43918000000000007,20.5,0,2032,1066,737,3775,30.4880078125,13208,28.165458053106057,1000.9910511374857,0
2024-03-17T10:00:12,-0.2165504453,0.017946169499999998,10.087541875949999,0.03756821214917795,-0.0044287729769356115,-0.04153883619746505,0.032060000000000005,0.48482000000000003,-0.43918000000000007,20.5,0,2032,1066,737,3775,30.4880078125,13208,28.165458053106057,1000.9910511374857,0
2024-03-17T10:00:12,-0.2141576227,-0.020338992099999998,10.0474620974,0.049021935365390734,-0.0009162978572970231,-0.04444044607890562,0.02926,0.47754,-0.45514000000000004,20.5,0,2037,1069,738,3782,30.4880078125,13208,28.165458053106057,1000.9910511374857,0
2024-03-17T10:00:12,-0.21894326790000002,0.0023928226,10.06361364995,0.04123340357836604,-0.0027488935718910697,-0.04566217655530165,0.033460000000000004,0.48174000000000006,-0.44128,20.5,0,2037,1069,738,3782,30.4880078125,13208,28.165458053106057,1000.9910511374857,0
2024-03-17T10:00:12,-0.2009970984,-0.017946169499999998,10.08155981945,0.04321871560250959,-0.0012217304763960308,-0.04566217655530165,0.033460000000000004,0.48174000000000006,-0.44128,20.5,0,2037,1069,738,3782,30.4880078125,13208,28.165458053106057,1000.9910511374857,0
2024-03-17T10:00:12,-0.21296121140000002,0.013758729949999998,10.06720288385,0.041691552507014555,-0.0013744467859455349,-0.04886921905584123,0.02478,0.47698,-0.45248,20.5,0,2037,1069,738,3782,30.513203125,13539,28.06728456283287,1000.9869985379235,0
2024-03-17T10:00:12,-0.21355941705,-0.0017946169499999999,10.008578730149999,0.04077525464971753,-0.0025961772623415654,-0.04459316238845512,0.027860000000000003,0.47642000000000007,-0.45416,20.5,0,2037,1069,738,3782,30.513203125,13539,28.06728456283287,1000.9869985379235,0
2024-03-17T10:00:12,-0.20279171534999998,-0.0077766734499999995,10.021739254449999,0.04474587869800463,-0.002901609881440573,-0.04459316238845512,0.029540000000000004,0.47670000000000007,-0.43834,20.5,0,2037,1069,738,3782,30.513203125,13539,28.06728456283287,1000.9869985379235,0
2024-03-17T10:00:12,-0.22073788485,0.010767701699999998,10.101300605899999,0.03772092845872745,-0.0036651914291880926,-0.039858956792420505,0.02646,0.47418000000000005,-0.43414,20.5,0,2037,1069,738,3782,30.513203125,13539,28.06728456283287,1000.9869985379235,0
2024-03-17T10:00:12,-0.20279171534999998,-0.01974078645,10.082756230749998,0.04566217655530165,-0.0022907446432425577,-0.04382958084070761,0.02646,0.47418000000000005,-0.43414,20.5,0,2037,1069,738,3782,30.513203125,13539,28.06728456283287,1000.9869985379235,0
2024-03-17T10:00:12,-0.22133609049999997,0.015553346899999999,10.0582297991,0.04459316238845512,-0.0038179077387375964,-0.0476474885794452,0.028980000000000002,0.47530000000000006,-0.44716,20.5,0,2037,1069,738,3782,30.513203125,13539,28.06728456283287,1000.9869985379235,0
2024-03-17T10:00:12,-0.2225325018,-0.017946169499999998,10.071988529050001,0.04260785036431157,-0.0038179077387375964,-0.04535674393620265,0.032060000000000005,0.47782,-0.44632000000000005,20.5,0,2037,1069,738,3782,30.513203125,13539,28.06728456283287,1000.9869985379235,0
2024-03-17T10:00:12,-0.22612173569999997,-0.022731814700000002,10.028917722249998,0.041996985126113565,0.00045814892864851157,-0.041996985126113565,0.032060000000000005,0.47782,-0.44632000000000005,20.5,0,2037,1069,738,3782,30.538984375,13905,27.991483276137174,1000.9874812472918,0
2024-03-17T10:00:12,-0.17886348935000002,-0.005982056499999999,10.110871896299999,0.040317105721069016,-0.002138028333693054,-0.04260785036431157,0.02926,0.48006000000000004,-0.44576000000000005,20.5,0,2037,1069,738,3782,30.538984375,13905,27.991483276137174,1000.9874812472918,0
2024-03-17T10:00:12,-0.18843477974999998,-0.011365907350000001,10.03250695615,0.04627304179349966,0.0022907446432425577,-0.04581489286485116,0.02926,0.48006000000000004,-0.44576000000000005,20.5,0,2037,1069,738,3782,30.538984375,13905,27.991483276137174,1000.9874812472918,0
2024-03-17T10:00:12,-0.22432711874999997,-0.015553346899999999,10.109675485,0.04673119072214818,-0.0033597588100890844,-0.047952921198544204,0.03682,0.48006000000000004,-0.44562000000000007,20.5,0,2037,1069,738,3782,30.538984375,13905,27.991483276137174,1000.9874812472918,0
2024-03-17T10:00:12,-0.22612173569999997,-0.021535403399999997,10.060622621699999,0.04566217655530165,0.00015271630954950385,-0.043982297150257116,0.030100000000000002,0.47558000000000006,-0.44198000000000004,20.5,0,2037,1069,738,3782,30.538984375,13905,27.991483276137174,1000.9874812472918,0
2024-03-17T10:00:12,-0.23988046564999999,0.0017946169499999999,10.078568791199999,0.040317105721069016,0.0,-0.04413501345980661,0.030100000000000002,0.47558000000000006,-0.44198000000000004,20.5,0,2037,1069,738,3782,30.538984375,13905,27.991483276137174,1000.9874812472918,0
2024-03-17T10:00:12,-0.23988046564999999,-0.037686955949999996,10.063015444300001,0.041386119887915546,-0.0016798794050445422,-0.0433714319120591,0.030940000000000002,0.47782,-0.44086000000000003,20.5,0,2037,1069,738,3782,30.538984375,13905,27.991483276137174,1000.9874812472918,0
2024-03-17T10:00:12,-0.21714865095,0.04366901245,10.141380384449999,0.03634648167278191,0.0,-0.04245513405476207,0.025060000000000002,0.47838,-0.44492000000000004,20.5,0,2037,1069,738,3782,30.562421875,14281,27.882141419041247,1000.984164835722,0
2024-03-17T10:00:12,-0.22313070744999997,-0.005982056499999999,10.109077279349998,0.04520402762665314,-0.006108652381980154,-0.05009094953223726,0.027020000000000002,0.48230000000000006,-0.44002,20.5,0,2037,1069,738,3782,30.562421875,14281,27.882141419041247,1000.984164835722,0
2024-03-17T10:00:12,-0.18305092890000002,-0.0077766734499999995,10.060622621699999,0.03359758810089085,-0.001069014166846527,-0.04245513405476207,0.0315,0.47502000000000005,-0.4467400000000001,20.5,0,2037,1069,738,3782,30.562421875,14281,27.882141419041247,1000.984164835722,0
2024-03-17T10:00:12,-0.24107687694999996,0.029910282499999996,10.060024416049998,0.04092797095926703,0.002138028333693054,-0.04306599929296009,0.0315,0.47502000000000005,-0.4467400000000001,20.5,0,2037,1069,738,3782,30.562421875,14281,27.882141419041247,1000.984164835722,0
2024-03-17T10:00:12,-0.20937197749999997,0.0167497582,10.098907783299998,0.0435241482216086,-0.0070249502392771765,-0.0433714319120591,0.03262,0.48482000000000003,-0.44576000000000005,20.5,0,2037,1069,738,3782,30.562421875,14281,27.882141419041247,1000.984164835722,0
2024-03-17T10:00:12,-0.18424734019999997,0.00059820565,10.092327521149999,0.04291328298341058,-0.0038179077387375964,-0.04153883619746505,0.029820000000000003,0.47334000000000004,-0.43988000000000005,20.5,0,2037,1069,738,3782,30.562421875,14281,27.882141419041247,1000.984164835722,0
2024-03-17T10:00:13,-0.20997018315,0.0023928226,10.07438135165,0.04046982203061852,-0.001069014166846527,-0.041386119887915546,0.02926,0.47390000000000004,-0.44562000000000007,20.5,0,2037,1069,738,3782,30.562421875,14281,27.882141419041247,1000.984164835722,0
2024-03-17T10:00:13,-0.23270199784999998,0.029312076849999997,10.085149053349998,0.041080687268816536,-0.0038179077387375964,-0.04123340357836604,0.02926,0.47390000000000004,-0.44562000000000007,20.5,0,2037,1069,738,3782,30.5846875,14628,27.78945390677778,1000.9933062801607,0
2024-03-17T10:00:13,-0.22911276394999996,-0.010169496049999999,10.0354979844,0.0433714319120591,-0.0025961772623415654,-0.04092797095926703,0.033460000000000004,0.47642000000000007,-0.43988000000000005,20.5,0,2037,1069,738,3782,30.5846875,14628,27.78945390677778,1000.9933062801607,0
2024-03-17T10:00:13,-0.19621145319999997,0.020937197749999997,10.0558369765,0.038942658935123484,0.003054326190990077,-0.043676864531158106,0.03374,0.4772600000000001,-0.43134000000000006,20.5,0,2037,1069,738,3782,30.5846875,14628,27.78945390677778,1000.9933062801607,0
2024-03-17T10:00:13,-0.23808584869999996,0.0011964113,10.0893364929,0.04428772976935611,-0.0027488935718910697,-0.04444044607890562,0.03626000000000001,0.47950000000000004,-0.45346000000000003,20.5,0,2037,1069,738,3581,30.5846875,14628,27.78945390677778,1000.9933062801607,0
2024-03-17T10:00:13,-0.18963119104999998,0.0029910282499999996,10.070792117749999,0.04276056667386108,0.0013744467859455349,-0.04703662334124718,0.03626000000000001,0.47950000000000004,-0.45346000000000003,20.5,0,1893,999,712,3581,30.5846875,14628,27.78945390677778,1000.9933062801607,0
2024-03-17T10:00:13,-0.18664016279999998,-0.01974078645,10.043274657849999,0.04382958084070761,0.0003054326190990077,-0.04535674393620265,0.028980000000000002,0.48454,-0.4432400000000001,20.5,0,1893,999,712,3581,30.5846875,14628,27.78945390677778,1000.9933062801607,0
2024-03-17T10:00:13,-0.20159530404999998,0.0017946169499999999,10.05882800475,0.041691552507014555,-0.00015271630954950385,-0.040317105721069016,0.027860000000000003,0.47390000000000004,-0.44828,20.5,0,1893,999,712,3581,30.5846875,14628,27.78945390677778,1000.9933062801607,0
2024-03-17T10:00:13,-0.20817556619999997,-0.01615155255,10.1312108884,0.041386119887915546,-0.0013744467859455349,-0.048411070127192715,0.027860000000000003,0.47390000000000004,-0.44828,20.5,0,1893,999,712,3581,30.6065625,15013,27.696787266056234,1000.9892492692279,0
2024-03-17T10:00:13,-0.22911276394999996,-0.0083748791,10.0749795573,0.038789942625573975,-0.003054326190990077,-0.04046982203061852,0.03542,0.47950000000000004,-0.4520600000000001,20.5,0,1893,999,712,3581,30.6065625,15013,27.696787266056234,1000.9892492692279,0
2024-03-17T10:00:13,-0.21894326790000002,-0.00059820565,10.131809094049999,0.04077525464971753,-0.0035124751196385882,-0.04505131131710364,0.03542,0.47950000000000004,-0.4520600000000001,20.5,0,1893,999,712,3581,30.6065625,15013,27.696787266056234,1000.9892492692279,0
2024-03-17T10:00:13,-0.19322042494999997,-0.027517459899999996,10.09352393245,0.04077525464971753,0.0009162978572970231,-0.04520402762665314,0.03122,0.47894000000000003,-0.43722000000000005,20.5,0,1893,999,712,3581,30.6065625,15013,27.696787266056234,1000.9892492692279,0
2024-03-17T10:00:13,-0.22313070744999997,-0.0131605243,10.06720288385,0.04046982203061852,-0.0016798794050445422,-0.041386119887915546,0.030380000000000004,0.47838,-0.44282000000000005,20.5,0,1893,999,712,3581,30.6065625,15013,27.696787266056234,1000.9892492692279,0
2024-03-17T10:00:13,-0.24107687694999996,-0.0023928226,10.079765202499999,0.04276056667386108,-0.001069014166846527,-0.04306599929296009,0.02478,0.47978000000000004,-0.44688000000000005,20.5,0,1893,999,712,3581,30.6065625,15013,27.696787266056234,1000.9892492692279,0
2024-03-17T10:00:13,-0.22432711874999997,-0.005383850849999999,10.061819032999999,0.04673119072214818,0.0012217304763960308,-0.04489859500755413,0.02478,0.47978000000000004,-0.44688000000000005,20.5,0,1893,999,712,3581,30.6065625,15013,27.696787266056234,1000.9892492692279,0
2024-03-17T10:00:13,-0.2069791549,-0.0047856452,10.062417238649997,0.04046982203061852,-0.0038179077387375964,-0.04520402762665314,0.03262,0.47334000000000004,-0.44422,20.5,0,1893,999,712,3581,30.62609375,15352,27.61508577985411,1000.9831889113628,0
2024-03-17T10:00:13,-0.21714865095,0.0077766734499999995,10.088738287249999,0.04260785036431157,-0.00473420559603462,-0.04734205596034619,0.02478,0.48062000000000005,-0.44492000000000004,20.5,0,1893,999,712,3581,30.62609375,15352,27.61508577985411,1000.9831889113628,0
2024-03-17T10:00:13,-0.18424734019999997,-0.0011964113,10.073783145999998,0.04550946024575215,-0.0027488935718910697,-0.04123340357836604,0.025340000000000005,0.47838,-0.4459,20.5,0,1893,999,712,3581,30.62609375,15352,27.61508577985411,1000.9831889113628,0
2024-03-17T10:00:13,-0.19561324754999998,0.0077766734499999995,10.0701939121,0.039095375244672985,-0.001069014166846527,-0.04474587869800463,0.03542,0.47894000000000003,-0.44828,20.5,0,1893,999,712,3581,30.62609375,15352,27.61508577985411,1000.9831889113628,0
2024-03-17T10:00:13,-0.24945175605,0.017946169499999998,10.08634546465,0.041996985126113565,-0.0016798794050445422,-0.04444044607890562,0.03542,0.47894000000000003,-0.44828,20.5,0,1893,999,712,3581,30.62609375,15352,27.61508577985411,1000.9831889113628,0
2024-03-17T10:00:13,-0.18364913454999998,0.0023928226,10.08155981945,0.04291328298341058,-0.0025961772623415654,-0.04153883619746505,0.02198,0.47054,-0.45192,20.5,0,1893,999,712,3581,30.62609375,15352,27.61508577985411,1000.9831889113628,0
2024-03-17T10:00:13,-0.21834506225,-0.011365907350000001,10.067801089499998,0.04230241774521256,-0.0006108652381980154,-0.04459316238845512,0.028140000000000005,0.47894000000000003,-0.44114000000000003,20.5,0,1893,999,712,3581,30.62609375,15352,27.61508577985411,1000.9831889113628,0
2024-03-17T10:00:13,-0.21595223965000002,0.0077766734499999995,10.077970585549998,0.039400807863771994,-0.002138028333693054,-0.041996985126113565,0.028140000000000005,0.47894000000000003,-0.44114000000000003,20.5,0,1893,999,712,3581,30.6462109375,15718,27.516825854354288,1000.9744854405818,0
2024-03-17T10:00:13,-0.22612173569999997,0.011365907350000001,10.125228831899998,0.039858956792420505,-0.0024434609527920616,-0.04612032548395016,0.02338,0.46970000000000006,-0.44016000000000005,20.5,0,1893,999,712,3581,30.6462109375,15718,27.516825854354288,1000.9744854405818,0
2024-03-17T10:00:13,-0.21954147355,-0.01854437515,10.0821580251,0.04703662334124718,0.00015271630954950385,-0.04780020488899471,0.02338,0.46970000000000006,-0.44016000000000005,20.5,0,1893,999,712,3581,30.6462109375,15718,27.516825854354288,1000.9744854405818,0
2024-03-17T10:00:13,-0.18305092890000002,0.0035892338999999997,10.121639597999998,0.037110063220529434,0.0022907446432425577,-0.04276056667386108,0.025060000000000002,0.46886000000000005,-0.43414,20.5,0,1893,999,712,3581,30.6462109375,15718,27.516825854354288,1000.9744854405818,0
2024-03-17T10:00:13,-0.18843477974999998,-0.0029910282499999996,10.100702400249999,0.0435241482216086,-0.0015271630954950385,-0.04581489286485116,0.03122,0.47698,-0.43204000000000004,20.5,0,1893,999,712,3581,30.6462109375,15718,27.516825854354288,1000.9744854405818,0
2024-03-17T10:00:13,-0.20937197749999997,-0.0023928226,10.094720343749998,0.04153883619746505,-0.0009162978572970231,-0.04474587869800463,0.03122,0.47698,-0.43204000000000004,20.5,0,1893,999,712,3581,30.6462109375,15718,27.516825854354288,1000.9744854405818,0
2024-03-17T10:00:13,-0.2117648001,-0.010169496049999999,10.064211855599998,0.04092797095926703,-0.0012217304763960308,-0.04413501345980661,0.03374,0.47782,-0.44002,20.5,0,1893,999,712,3581,30.6462109375,15718,27.516825854354288,1000.9744854405818,0
2024-03-17T10:00:13,-0.21595223965000002,-0.014955141249999998,10.09591675505,0.041844268816564056,0.0018325957145940463,-0.04276056667386108,0.0315,0.48566000000000004,-0.44254000000000004,20.5,0,1893,999,712,3581,30.6641796875,16041,27.43508803673052,1000.9748655839848,0
2024-03-17T10:00:13,-0.2225325018,0.01974078645,10.17846913475,0.038789942625573975,-0.002138028333693054,-0.04642575810304917,0.026740000000000003,0.48258000000000006,-0.44338000000000005,20.5,0,1893,999,712,3581,30.6641796875,16041,27.43508803673052,1000.9748655839848,0
2024-03-17T10:00:13,-0.18963119104999998,-0.0023928226,10.010971552749998,0.0476474885794452,0.0044287729769356115,-0.04382958084070761,0.026740000000000003,0.48258000000000006,-0.44338000000000005,20.5,0,1847,977,703,3514,30.6641796875,16041,27.43508803673052,1000.9748655839848,0
2024-03-17T10:00:13,-0.346959277,-0.0011964113,9.98225768155,0.038179077387375956,0.0016798794050445422,-0.04688390703169768,0.03402,0.48118000000000005,-0.43232000000000004,20.5,0,1847,977,703,3514,30.6641796875,16041,27.43508803673052,1000.9748655839848,0
2024-03-17T10:00:13,-0.13459627124999998,-0.08195417405,10.12223780365,0.050396382151336266,-0.007330382858376185,-0.04642575810304917,0.03654,0.48482000000000003,-0.43806000000000006,20.5,0,1847,977,703,3514,30.6641796875,16041,27.43508803673052,1000.9748655839848,0
2024-03-17T10:00:13,-0.17168502154999998,0.0526420972,10.067801089499998,0.036193765363232405,0.006719517620178169,-0.04413501345980661,0.03654,0.48482000000000003,-0.43806000000000006,20.5,0,1847,977,703,3514,30.6641796875,16041,27.43508803673052,1000.9748655839848,0
2024-03-17T10:00:13,-0.27457639335,-0.047856451999999994,10.015757197949998,0.04718933965079669,-0.01114829059711378,-0.0435241482216086,0.032060000000000005,0.48482000000000003,-0.43834,20.5,0,1847,977,703,3514,30.6641796875,16041,27.43508803673052,1000.9748655839848,0
2024-03-17T10:00:13,-0.21834506225,0.07537391189999999,10.0510513313,0.03420845333908886,-0.005803219762881146,-0.04917465167494024,0.028980000000000002,0.47558000000000006,-0.4473000000000001,20.5,0,1847,977,703,3514,30.682734375,16428,27.358983182308457,1000.9815784660118,0
2024-03-17T10:00:14,-0.29012974025,-0.12382856954999999,10.045069274799998,0.04978551691313826,-0.003207042500539581,-0.04382958084070761,0.029820000000000003,0.47950000000000004,-0.44198000000000004,20.5,0,1847,977,703,3514,30.682734375,16428,27.358983182308457,1000.9815784660118,0
2024-03-17T10:00:14,-0.19381863059999999,-0.044267218100000005,10.104291634149998,0.0357356164345839,-0.0054977871437821395,-0.04306599929296009,0.030380000000000004,0.47950000000000004,-0.4424,20.5,0,1847,977,703,3514,30.682734375,16428,27.358983182308457,1000.9815784660118,0
2024-03-17T10:00:14,-0.15553346899999998,-0.0095712904,10.03848901265,0.04566217655530165,0.002901609881440573,-0.04642575810304917,0.02926,0.48034000000000004,-0.43554000000000004,20.5,0,1847,977,703,3514,30.682734375,16428,27.358983182308457,1000.9815784660118,0
2024-03-17T10:00:14,-0.27577280465,-0.021535403399999997,10.0558369765,0.040622538340168025,-0.0038179077387375964,-0.04612032548395016,0.02926,0.48034000000000004,-0.43554000000000004,20.5,0,1847,977,703,3514,30.682734375,16428,27.358983182308457,1000.9815784660118,0
2024-03-17T10:00:14,-0.20219350969999997,0.057427742399999995,10.121639597999998,0.04703662334124718,-0.00595593607243065,-0.04230241774521256,0.02646,0.47950000000000004,-0.44254000000000004,20.5,0,1847,977,703,3514,30.682734375,16428,27.358983182308457,1000.9815784660118,0
2024-03-17T10:00:14,-0.22552353004999998,0.0083748791,10.12223780365,0.041844268816564056,-0.0013744467859455349,-0.04474587869800463,0.023100000000000002,0.47558000000000006,-0.43302,20.5,0,1847,977,703,3514,30.682734375,16428,27.358983182308457,1000.9815784660118,0
2024-03-17T10:00:14,-0.2536391956,-0.0047856452,10.07557776295,0.04321871560250959,-0.0007635815477475193,-0.04581489286485116,0.023100000000000002,0.47558000000000006,-0.43302,20.5,0,1847,977,703,3514,30.700703125,16781,27.26070685029626,1000.9801607406364,0
2024-03-17T10:00:14,-0.2237289131,-0.04127618984999999,10.0701939121,0.04459316238845512,-0.0007635815477475193,-0.04245513405476207,0.025340000000000005,0.4837,-0.44982000000000005,20.5,0,1847,977,703,3514,30.700703125,16781,27.26070685029626,1000.9801607406364,0
2024-03-17T10:00:14,-0.20757736054999998,-0.007178467799999999,10.0821580251,0.04276056667386108,-0.0006108652381980154,-0.049021935365390734,0.025340000000000005,0.4837,-0.44982000000000005,20.5,0,1847,977,703,3514,30.700703125,16781,27.26070685029626,1000.9801607406364,0
2024-03-17T10:00:14,-0.18544375149999998,-0.0251246373,10.039685423949999,0.04520402762665314,-0.006566801310628666,-0.048716502746291725,0.033460000000000004,0.48062000000000005,-0.44282000000000005,20.5,0,1847,977,703,3514,30.700703125,16781,27.26070685029626,1000.9801607406364,0
2024-03-17T10:00:14,-0.23629123174999997,0.0029910282499999996,10.083354436399997,0.040622538340168025,0.0012217304763960308,-0.04596760917440065,0.03234,0.47782,-0.4438000000000001,20.5,0,1847,977,703,3514,30.700703125,16781,27.26070685029626,1000.9801607406364,0
2024-03-17T10:00:14,-0.22313070744999997,0.005383850849999999,10.0773723799,0.04550946024575215,-0.0022907446432425577,-0.040622538340168025,0.03234,0.47782,-0.4438000000000001,20.5,0,1847,977,703,3514,30.700703125,16781,27.26070685029626,1000.9801607406364,0
2024-03-17T10:00:14,-0.20039889274999997,-0.1471585899,10.051649536949999,0.041691552507014555,-0.004276056667386108,-0.04306599929296009,0.030660000000000003,0.48538000000000003,-0.4397400000000001,20.5,0,1847,977,703,3514,30.700703125,16781,27.26070685029626,1000.9801607406364,0
2024-03-17T10:00:14,-0.1878365741,-0.0077766734499999995,10.0845508477,0.04245513405476207,-0.004123340357836604,-0.04413501345980661,0.03654,0.47950000000000004,-0.43554000000000004,20.5,0,1847,977,703,3514,30.720234375,17108,27.173691755040252,1000.9848621546959,0
2024-03-17T10:00:14,-0.20279171534999998,-0.020937197749999997,10.0845508477,0.041386119887915546,-0.0009162978572970231,-0.041996985126113565,0.03178,0.47502000000000005,-0.44562000000000007,20.5,0,1847,977,703,3514,30.720234375,17108,27.173691755040252,1000.9848621546959,0
2024-03-17T10:00:14,-0.20458633229999998,-0.0131605243,10.067801089499998,0.04092797095926703,-0.005192354524683131,-0.04260785036431157,0.0315,0.47866000000000003,-0.43610000000000004,20.5,0,1847,977,703,3514,30.720234375,17108,27.173691755040252,1000.9848621546959,0
2024-03-17T10:00:14,-0.20757736054999998,0.0011964113,10.14018397315,0.04382958084070761,-0.0033597588100890844,-0.04673119072214818,0.0315,0.47866000000000003,-0.43610000000000004,20.5,0,1847,977,703,3514,30.720234375,17108,27.173691755040252,1000.9848621546959,0
2024-03-17T10:00:14,-0.19561324754999998,0.0017946169499999999,10.062417238649997,0.043982297150257116,0.0012217304763960308,-0.041691552507014555,0.028980000000000002,0.47978000000000004,-0.44562000000000007,20.5,0,1847,977,703,3514,30.720234375,17108,27.173691755040252,1000.9848621546959,0
2024-03-17T10:00:14,-0.20039889274999997,0.0023928226,10.088738287249999,0.043676864531158106,-0.0003054326190990077,-0.04321871560250959,0.03178,0.47866000000000003,-0.43778,20.5,0,1847,977,703,3514,30.720234375,17108,27.173691755040252,1000.9848621546959,0
2024-03-17T10:00:14,-0.19202401365,-0.017946169499999998,10.1312108884,0.039400807863771994,-0.0025961772623415654,-0.04428772976935611,0.03178,0.47866000000000003,-0.43778,20.5,0,1847,977,703,3514,30.720234375,17108,27.173691755040252,1000.9848621546959,0
2024-03-17T10:00:14,-0.21894326790000002,0.0334995164,10.0594262104,0.04001167310197001,0.001069014166846527,-0.04260785036431157,0.02926,0.48090000000000005,-0.44422,20.5,0,1847,977,703,3514,30.7372265625,17491,27.103118195844594,1000.9890409828785,0
2024-03-17T10:00:14,-0.23569302609999998,-0.00658026215,10.0414800409,0.04321871560250959,0.0018325957145940463,-0.04474587869800463,0.030660000000000003,0.47418000000000005,-0.44016000000000005,20.5,0,2031,1068,737,3772,30.7372265625,17491,27.103118195844594,1000.9890409828785,0
2024-03-17T10:00:14,-0.20817556619999997,0.0047856452,10.09113110985,0.0435241482216086,0.00015271630954950385,-0.04505131131710364,0.023660000000000004,0.48034000000000004,-0.44058,20.5,0,2031,1068,737,3772,30.7372265625,17491,27.103118195844594,1000.9890409828785,0
2024-03-17T10:00:14,-0.21355941705,0.0047856452,9.999605645399999,0.04505131131710364,0.0,-0.040317105721069016,0.03486000000000001,0.48286000000000007,-0.42826000000000003,20.5,0,2031,1068,737,3772,30.7372265625,17491,27.103118195844594,1000.9890409828785,0
2024-03-17T10:00:14,-0.22971096959999998,0.00059820565,10.069595706449999,0.04780020488899471,0.0003054326190990077,-0.048258353817643214,0.03486000000000001,0.48286000000000007,-0.42826000000000003,20.5,0,2031,1068,737,3772,30.7372265625,17491,27.103118195844594,1000.9890409828785,0
2024-03-17T10:00:14,-0.24047867129999997,-0.02691925425,10.052247742599999,0.04688390703169768,-0.0006108652381980154,-0.04612032548395016,0.03122,0.47894000000000003,-0.43316000000000004,20.5,0,2031,1068,737,3772,30.7372265625,17491,27.103118195844594,1000.9890409828785,0
2024-03-17T10:00:14,-0.21894326790000002,0.00059820565,10.1611211709,0.0355829001250344,-0.002901609881440573,-0.04245513405476207,0.035980000000000005,0.47978000000000004,-0.44184,20.5,0,2031,1068,737,3772,30.7372265625,17491,27.103118195844594,1000.9890409828785,0
2024-03-17T10:00:14,-0.30508488149999996,0.0334995164,9.98704332675,0.049327367984489744,-0.0033597588100890844,-0.04886921905584123,0.02562,0.48006000000000004,-0.43106000000000005,20.5,0,2031,1068,737,3772,30.7540234375,17801,27.021498311216895,1000.9893118846874,0
2024-03-17T10:00:14,-0.0897308475,0.00418743955,9.978070242,0.04321871560250959,0.0054977871437821395,-0.04505131131710364,0.0357,0.47278000000000003,-0.43918000000000007,20.5,0,2031,1068,737,3772,30.7540234375,17801,27.021498311216895,1000.9893118846874,0
2024-03-17T10:00:14,-0.35593236175,0.027517459899999996,10.10668445675,0.03726277953007894,0.038789942625573975,-0.04382958084070761,0.0357,0.47278000000000003,-0.43918000000000007,20.5,0,2031,1068,737,3772,30.7540234375,17801,27.021498311216895,1000.9893118846874,0
2024-03-17T10:00:14,-0.23868405434999998,-0.058624153699999994,10.0773723799,0.04688390703169768,-0.007330382858376185,-0.04276056667386108,0.03682,0.48258000000000006,-0.43750000000000006,20.5,0,2031,1068,737,3772,30.7540234375,17801,27.021498311216895,1000.9893118846874,0
2024-03-17T10:00:14,-0.12741780345,0.04486542375,10.030114133549999,0.04382958084070761,0.007788531787024696,-0.0435241482216086,0.03178,0.47922000000000003,-0.44282000000000005,20.5,0,2031,1068,737,3772,30.7540234375,17801,27.021498311216895,1000.9893118846874,0
2024-03-17T10:00:14,-0.22911276394999996,-0.10229316614999999,10.085149053349998,0.047952921198544204,-0.006414085001079162,-0.04535674393620265,0.03178,0.47922000000000003,-0.44282000000000005,20.5,0,2031,1068,737,3772,30.7540234375,17801,27.021498311216895,1000.9893118846874,0
2024-03-17T10:00:14,-0.19860427579999998,0.060418770649999995,10.137192944899999,0.03756821214917795,-0.007941248096574201,-0.04459316238845512,0.0315,0.4837,-0.4424,20.5,0,2031,1068,737,3772,30.7540234375,17801,27.021498311216895,1000.9893118846874,0
2024-03-17T10:00:14,-0.20757736054999998,-0.02691925425,10.055238770849998,0.04978551691313826,0.0044287729769356115,-0.04444044607890562,0.038500000000000006,0.48650000000000004,-0.44604000000000005,20.5,0,2031,1068,737,3772,30.7690625,18169,26.93425155806147,1000.9921211097094,0
2024-03-17T10:00:14,-0.19621145319999997,0.005982056499999999,10.076774174250001,0.04276056667386108,-0.0019853120241435504,-0.04780020488899471,0.0315,0.48230000000000006,-0.43820000000000003,20.5,0,2031,1068,737,3772,30.7690625,18169,26.93425155806147,1000.9921211097094,0
2024-03-17T10:00:14,-0.2500499617,0.0,9.9708917742,0.04520402762665314,0.0035124751196385882,-0.04550946024575215,0.030660000000000003,0.48454,-0.44226000000000004,20.5,0,2031,1068,737,3772,30.7690625,18169,26.93425155806147,1000.9921211097094,0
2024-03-17T10:00:14,-0.20279171534999998,-0.060418770649999995,10.0749795573,0.038179077387375956,-0.006108652381980154,-0.04520402762665314,0.030660000000000003,0.48454,-0.44226000000000004,20.5,0,2031,1068,737,3772,30.7690625,18169,26.93425155806147,1000.9921211097094,0
2024-03-17T10:00:14,-0.16929219894999997,0.030508488149999995,10.1120683076,0.04520402762665314,-0.0009162978572970231,-0.04566217655530165,0.033460000000000004,0.47446000000000005,-0.44688000000000005,20.5,0,2031,1068,737,3772,30.7690625,18169,26.93425155806147,1000.9921211097094,0
2024-03-17T10:00:14,-0.22013967919999997,-0.0394815729,10.048658508699999,0.04001167310197001,-0.002138028333693054,-0.04642575810304917,0.034300000000000004,0.48538000000000003,-0.42532000000000003,20.5,0,2031,1068,737,3772,30.7690625,18169,26.93425155806147,1000.9921211097094,0
2024-03-17T10:00:14,-0.27936203854999997,0.028713871199999998,10.109077279349998,0.04520402762665314,-0.0022907446432425577,-0.048258353817643214,0.034300000000000004,0.48538000000000003,-0.42532000000000003,20.5,0,2031,1068,737,3772,30.7690625,18169,26.93425155806147,1000.9921211097094,0
2024-03-17T10:00:15,-0.19381863059999999,-0.04725824635,10.096514960699999,0.04520402762665314,-0.0013744467859455349,-0.04444044607890562,0.025340000000000005,0.48118000000000005,-0.43428000000000005,20.5,0,2031,1068,737,3772,30.7837109375,18536,26.858071237844776,1000.9871154510589,0
2024-03-17T10:00:15,-0.18484554585,-0.023330020349999998,10.010971552749998,0.04230241774521256,-0.0056505034533316425,-0.04444044607890562,0.028700000000000003,0.48398,-0.43820000000000003,20.5,0,2031,1068,737,3772,30.7837109375,18536,26.858071237844776,1000.9871154510589,0
2024-03-17T10:00:15,-0.19441683624999997,-0.011365907350000001,10.092327521149999,0.039400807863771994,-0.0003054326190990077,-0.041080687268816536,0.03318,0.48286000000000007,-0.45108000000000004,20.5,0,2031,1068,737,3772,30.7837109375,18536,26.858071237844776,1000.9871154510589,0
2024-03-17T10:00:15,-0.23389840915,-0.00059820565,10.09352393245,0.038942658935123484,-0.0012217304763960308,-0.041386119887915546,0.023940000000000003,0.48258000000000006,-0.43596,20.5,0,2031,1068,737,3772,30.7837109375,18536,26.858071237844776,1000.9871154510589,0
2024-03-17T10:00:15,-0.23150558654999998,0.00658026215,10.0749795573,0.038484510006474966,-0.00045814892864851157,-0.04428772976935611,0.023940000000000003,0.48258000000000006,-0.43596,20.5,0,2031,1068,737,3772,30.7837109375,18536,26.858071237844776,1000.9871154510589,0
2024-03-17T10:00:15,-0.21296121140000002,-0.01615155255,10.159924759599997,0.04123340357836604,-0.007177666548826681,-0.04382958084070761,0.02842,0.48566000000000004,-0.43694000000000005,20.5,0,2031,1068,737,3772,30.7837109375,18536,26.858071237844776,1000.9871154510589,0
2024-03-17T10:00:15,-0.20458633229999998,0.0077766734499999995,10.060024416049998,0.041996985126113565,-0.001069014166846527,-0.040317105721069016,0.028140000000000005,0.4837,-0.44338000000000005,20.5,0,2031,1068,737,3772,30.7837109375,18536,26.858071237844776,1000.9871154510589,0
2024-03-17T10:00:15,-0.21355941705,-0.0017946169499999999,10.064211855599998,0.041386119887915546,-0.0015271630954950385,-0.04688390703169768,0.028140000000000005,0.4837,-0.44338000000000005,20.5,0,2031,1068,737,3772,30.7993359375,18867,26.77648531741735,1000.9926669294814,0
2024-03-17T10:00:15,-0.18125631194999997,-0.00658026215,10.07557776295,0.04459316238845512,-0.0003054326190990077,-0.04123340357836604,0.02758,0.48454,-0.44562000000000007,20.5,0,1474,776,537,2737,30.7993359375,18867,26.77648531741735,1000.9926669294814,0
2024-03-17T10:00:15,-0.21355941705,-0.01734796385,10.064211855599998,0.041844268816564056,-0.0027488935718910697,-0.04505131131710364,0.02758,0.48454,-0.44562000000000007,20.5,0,1474,776,537,2737,30.7993359375,18867,26.77648531741735,1000.9926669294814,0
2024-03-17T10:00:15,-0.2237289131,-0.007178467799999999,10.07557776295,0.04077525464971753,0.0012217304763960308,-0.04306599929296009,0.02478,0.48622000000000004,-0.44114000000000003,20.5,0,1474,776,537,2737,30.7993359375,18867,26.77648531741735,1000.9926669294814,0
2024-03-17T10:00:15,-0.22552353004999998,-0.022731814700000002,10.0905329042,0.04214970143566306,-0.00473420559603462,-0.04046982203061852,0.028980000000000002,0.48202000000000006,-0.44002,20.5,0,1474,776,537,2737,30.7993359375,18867,26.77648531741735,1000.9926669294814,0
2024-03-17T10:00:15,-0.22193429615000002,-0.0017946169499999999,10.107880868049998,0.04276056667386108,-0.0013744467859455349,-0.04550946024575215,0.028700000000000003,0.48090000000000005,-0.44100000000000006,20.5,0,1474,776,537,2737,30.7993359375,18867,26.77648531741735,1000.9926669294814,0
2024-03-17T10:00:15,-0.21236300575,-0.02691925425,10.110871896299999,0.04596760917440065,-0.038637226316024474,-0.043676864531158106,0.028700000000000003,0.48090000000000005,-0.44100000000000006,20.5,0,1474,776,537,2737,30.7993359375,18867,26.77648531741735,1000.9926669294814,0
2024-03-17T10:00:15,-0.1806581063,-0.0029910282499999996,10.092327521149999,0.04291328298341058,-0.0016798794050445422,-0.04474587869800463,0.02114,0.47474000000000005,-0.44128,20.5,0,1474,776,537,2737,30.8141796875,19229,26.70039804824396,1000.989770762809,0
2024-03-17T10:00:15,-0.19322042494999997,-0.011964112999999998,10.0773723799,0.04153883619746505,0.0022907446432425577,-0.04596760917440065,0.02758,0.47894000000000003,-0.4426800000000001,20.5,0,1474,776,537,2737,30.8141796875,19229,26.70039804824396,1000.989770762809,0
2024-03-17T10:00:15,-0.23449661479999998,-0.005982056499999999,10.1264252432,0.038331793696925465,-0.0016798794050445422,-0.04001167310197001,0.03542,0.47698,-0.44086000000000003,20.5,0,1474,776,537,2737,30.8141796875,19229,26.70039804824396,1000.989770762809,0
2024-03-17T10:00:15,-0.23210379219999996,0.005383850849999999,10.114461130199999,0.0433714319120591,0.00045814892864851157,-0.04413501345980661,0.027020000000000002,0.4837,-0.42322000000000004,20.5,0,1474,776,537,2737,30.8141796875,19229,26.70039804824396,1000.989770762809,0
2024-03-17T10:00:15,-0.2141576227,0.0095712904,10.087541875949999,0.040317105721069016,-0.003054326190990077,-0.04382958084070761,0.027020000000000002,0.4837,-0.42322000000000004,20.5,0,1474,776,537,2737,30.8141796875,19229,26.70039804824396,1000.989770762809,0
2024-03-17T10:00:15,-0.19740786449999997,-0.01734796385,10.076774174250001,0.041996985126113565,0.0024434609527920616,-0.0433714319120591,0.037660000000000006,0.4781,-0.43358,20.5,0,1474,776,537,2737,30.8141796875,19229,26.70039804824396,1000.989770762809,0
2024-03-17T10:00:15,-0.22492532440000002,-0.0370887503,10.064211855599998,0.04413501345980661,-0.003970624048287101,-0.04306599929296009,0.038220000000000004,0.47474000000000005,-0.44520000000000004,20.5,0,1474,776,537,2737,30.8141796875,19229,26.70039804824396,1000.989770762809,0
2024-03-17T10:00:15,-0.1890329854,0.024526431649999996,10.109077279349998,0.041386119887915546,-0.0009162978572970231,-0.04612032548395016,0.038220000000000004,0.47474000000000005,-0.44520000000000004,20.5,0,1474,776,537,2737,30.8284375,19567,26.618785709363568,1000.9913112148192,0
2024-03-17T10:00:15,-0.20877377184999998,-0.011365907350000001,10.0905329042,0.039553524173321496,-0.0027488935718910697,-0.04657847441259867,0.023940000000000003,0.48314000000000007,-0.44366,20.5,0,1474,776,537,2737,30.8284375,19567,26.618785709363568,1000.9913112148192,0
2024-03-17T10:00:15,-0.23808584869999996,0.0167497582,10.0558369765,0.04001167310197001,-0.0007635815477475193,-0.041844268816564056,0.023940000000000003,0.48314000000000007,-0.44366,20.5,0,1474,776,537,2737,30.8284375,19567,26.618785709363568,1000.9913112148192,0
2024-03-17T10:00:15,-0.22851455829999998,-0.0263210486,10.1168539528,0.04459316238845512,0.0018325957145940463,-0.043982297150257116,0.025340000000000005,0.47894000000000003,-0.4513600000000001,20.5,0,1474,776,537,2737,30.8284375,19567,26.618785709363568,1000.9913112148192,0
2024-03-17T10:00:15,-0.19800607015,0.014356935599999999,10.123434214949999,0.04291328298341058,-0.0022907446432425577,-0.0435241482216086,0.026740000000000003,0.47922000000000003,-0.43862000000000007,20.5,0,1474,776,537,2737,30.8284375,19567,26.618785709363568,1000.9913112148192,0
2024-03-17T10:00:15,-0.20039889274999997,-0.005982056499999999,10.0953185494,0.041386119887915546,-0.0012217304763960308,-0.04046982203061852,0.026740000000000003,0.47922000000000003,-0.43862000000000007,20.5,0,1474,776,537,2737,30.8284375,19567,26.618785709363568,1000.9913112148192,0
2024-03-17T10:00:15,-0.22851455829999998,-0.013758729949999998,10.05763159345,0.04001167310197001,-0.00045814892864851157,-0.041844268816564056,0.022820000000000003,0.48090000000000005,-0.43694000000000005,20.5,0,1474,776,537,2737,30.8284375,19567,26.618785709363568,1000.9913112148192,0
2024-03-17T10:00:15,-0.20877377184999998,-0.0029910282499999996,10.097113166349997,0.04153883619746505,-0.003207042500539581,-0.041691552507014555,0.019180000000000003,0.48426,-0.43988000000000005,20.5,0,1474,776,537,2737,30.842890625,19919,26.553770265624657,1000.9877804736384,0
2024-03-17T10:00:15,-0.22911276394999996,-0.0023928226,10.063015444300001,0.04214970143566306,-0.0018325957145940463,-0.04718933965079669,0.028140000000000005,0.47922000000000003,-0.44394000000000006,20.5,0,1474,776,537,2737,30.842890625,19919,26.553770265624657,1000.9877804736384,0
2024-03-17T10:00:15,-0.19262221929999998,0.0017946169499999999,10.0725867347,0.04214970143566306,-0.0015271630954950385,-0.04550946024575215,0.02562,0.47670000000000007,-0.43666000000000005,20.5,0,1474,776,537,2737,30.842890625,19919,26.553770265624657,1000.9877804736384,0
2024-03-17T10:00:15,-0.21834506225,-0.00418743955,10.0773723799,0.04245513405476207,-0.0019853120241435504,-0.043676864531158106,0.02562,0.47670000000000007,-0.43666000000000005,20.5,0,1474,776,537,2737,30.842890625,19919,26.553770265624657,1000.9877804736384,0
2024-03-17T10:00:15,-0.21834506225,-0.008973084749999999,10.07318494035,0.04001167310197001,-0.0012217304763960308,-0.041844268816564056,0.03234,0.48006000000000004,-0.4424,20.5,0,1474,776,537,2737,30.842890625,19919,26.553770265624657,1000.9877804736384,0
2024-03-17T10:00:15,-0.2141576227,0.0029910282499999996,10.229914820649999,0.039706240482871004,-0.003207042500539581,-0.0433714319120591,0.026740000000000003,0.48286000000000007,-0.44464000000000004,20.5,0,1474,776,537,2737,30.842890625,19919,26.553770265624657,1000.9877804736384,0
2024-03-17T10:00:15,-0.22911276394999996,0.1387837108,9.97627562505,0.04077525464971753,0.0027488935718910697,-0.0435241482216086,0.026740000000000003,0.48286000000000007,-0.44464000000000004,20.5,0,1474,776,537,2737,30.842890625,19919,26.553770265624657,1000.9877804736384,0
2024-03-17T10:00:15,-0.20159530404999998,-0.00418743955,10.083354436399997,0.039400807863771994,-0.0025961772623415654,-0.041080687268816536,0.029820000000000003,0.47838,-0.44394000000000006,20.5,0,1474,776,537,2737,30.8579296875,20224,26.48331789588377,1000.9905840463833,0
2024-03-17T10:00:15,-0.22552353004999998,0.0011964113,10.1001041946,0.04535674393620265,0.0009162978572970231,-0.04459316238845512,0.02758,0.47950000000000004,-0.44772,20.5,0,63,31,28,110,30.8579296875,20224,26.48331789588377,1000.9905840463833,0
2024-03-17T10:00:16,-0.2069791549,-0.005982056499999999,10.1443714127,0.040622538340168025,-0.007483099167925688,-0.0435241482216086,0.030100000000000002,0.47894000000000003,-0.4501,20.5,0,63,31,28,110,30.8579296875,20224,26.48331789588377,1000.9905840463833,0
2024-03-17T10:00:16,-0.16091731985,0.14297115034999996,10.1120683076,0.041996985126113565,-0.0018325957145940463,-0.04505131131710364,0.018900000000000004,0.47782,-0.44576000000000005,20.5,0,63,31,28,110,30.8579296875,20224,26.48331789588377,1000.9905840463833,0
2024-03-17T10:00:16,-0.25423740125,-0.0017946169499999999,10.077970585549998,0.038637226316024474,-0.00015271630954950385,-0.04291328298341058,0.018900000000000004,0.47782,-0.44576000000000005,20.5,0,63,31,28,110,30.8579296875,20224,26.48331789588377,1000.9905840463833,0
2024-03-17T10:00:16,-0.23988046564999999,-0.032901310749999996,10.0929257268,0.04474587869800463,-0.008246680715673207,-0.041691552507014555,0.0315,0.48230000000000006,-0.43862000000000007,20.5,0,63,31,28,110,30.8579296875,20224,26.48331789588377,1000.9905840463833,0
2024-03-17T10:00:16,-0.15732808594999997,-0.007178467799999999,9.99182897195,0.04291328298341058,0.003970624048287101,-0.04550946024575215,0.025900000000000003,0.48482000000000003,-0.44394000000000006,20.5,0,63,31,28,110,30.8579296875,20224,26.48331789588377,1000.9905840463833,0
2024-03-17T10:00:16,-0.25782663515,-0.059222359349999996,10.07916699685,0.041996985126113565,0.0024434609527920616,-0.043982297150257116,0.025900000000000003,0.48482000000000003,-0.44394000000000006,20.5,0,63,31,28,110,30.8727734375,20660,26.40186680587833,1000.9858880602006,0
2024-03-17T10:00:16,-0.0681954441,0.01256231865,10.064211855599998,0.0435241482216086,0.0044287729769356115,-0.04520402762665314,0.029540000000000004,0.48090000000000005,-0.45402000000000003,20.5,0,63,31,28,110,30.8727734375,20660,26.40186680587833,1000.9858880602006,0
2024-03-17T10:00:16,-0.20159530404999998,0.0047856452,9.977472036350001,0.03924809155422249,0.001069014166846527,-0.0476474885794452,0.029540000000000004,0.48090000000000005,-0.45402000000000003,20.5,0,63,31,28,110,30.8727734375,20660,26.40186680587833,1000.9858880602006,0
2024-03-17T10:00:16,-0.28773691765000003,0.0945164927,10.11745215845,0.0433714319120591,-0.006566801310628666,-0.04535674393620265,0.028980000000000002,0.4781,-0.44450000000000006,20.5,0,63,31,28,110,30.8727734375,20660,26.40186680587833,1000.9858880602006,0
2024-03-17T10:00:16,-0.2500499617,-0.0323031051,10.0929257268,0.04520402762665314,-0.00045814892864851157,-0.04245513405476207,0.029820000000000003,0.48146000000000005,-0.44506000000000007,20.5,0,63,31,28,110,30.8727734375,20660,26.40186680587833,1000.9858880602006,0
2024-03-17T10:00:16,-0.20338992099999997,-0.0083748791,10.1659068161,0.04001167310197001,0.005345070834232635,-0.04489859500755413,0.029820000000000003,0.48146000000000005,-0.44506000000000007,20.5,0,63,31,28,110,30.8727734375,20660,26.40186680587833,1000.9858880602006,0
2024-03-17T10:00:16,-0.11964112999999998,-0.0729810893,9.9984092341,0.04489859500755413,-0.004123340357836604,-0.04428772976935611,0.02758,0.47978000000000004,-0.45388000000000006,20.5,0,63,31,28,110,30.8727734375,20660,26.40186680587833,1000.9858880602006,0
2024-03-17T10:00:16,-0.16091731985,0.0334995164,10.125228831899998,0.030848694528999777,-0.003970624048287101,-0.04382958084070761,0.028980000000000002,0.48090000000000005,-0.45038000000000006,20.5,0,63,31,28,110,30.8864453125,20906,26.342384374859662,1000.9918630985761,0
2024-03-17T10:00:16,-0.16450655374999998,0.04007977854999999,10.09950598895,0.03634648167278191,-0.0016798794050445422,-0.04642575810304917,0.025060000000000002,0.48034000000000004,-0.45066,20.5,0,63,31,28,110,30.8864453125,20906,26.342384374859662,1000.9918630985761,0
2024-03-17T10:00:16,-0.22911276394999996,0.029312076849999997,10.04088183525,0.043676864531158106,-0.00015271630954950385,-0.047952921198544204,0.02842,0.48230000000000006,-0.44926000000000005,20.5,0,63,31,28,110,30.8864453125,20906,26.342384374859662,1000.9918630985761,0
2024-03-17T10:00:16,-0.2644068973,-0.0017946169499999999,10.055238770849998,0.04856378643674222,-0.004123340357836604,-0.04474587869800463,0.02842,0.48230000000000006,-0.44926000000000005,20.5,0,63,31,28,110,30.8864453125,20906,26.342384374859662,1000.9918630985761,0
2024-03-17T10:00:16,-0.1579262916,-0.04725824635,10.0905329042,0.043982297150257116,-0.0033597588100890844,-0.043982297150257116,0.02198,0.4837,-0.4496800000000001,20.5,0,63,31,28,110,30.8864453125,20906,26.342384374859662,1000.9918630985761,0
2024-03-17T10:00:16,-0.15912270289999997,0.00658026215,10.098907783299998,0.04016438941151951,-0.0022907446432425577,-0.04596760917440065,0.023100000000000002,0.48146000000000005,-0.4508000000000001,20.5,0,63,31,28,110,30.8864453125,20906,26.342384374859662,1000.9918630985761,0
2024-03-17T10:00:16,-0.23569302609999998,-0.0083748791,10.088140081599997,0.041996985126113565,-0.004123340357836604,-0.04886921905584123,0.023100000000000002,0.47950000000000004,-0.4529,20.5,0,63,31,28,110,30.8864453125,20906,26.342384374859662,1000.9918630985761,0
2024-03-17T10:00:16,-0.26979074815,0.044267218100000005,10.087541875949999,0.04077525464971753,-0.0009162978572970231,-0.04688390703169768,0.028140000000000005,0.47950000000000004,-0.4529,20.5,0,63,31,28,110,30.9005078125,21285,26.25544402207808,1000.9930829243187,0
2024-03-17T10:00:16,-0.21834506225,0.01854437515,10.089934698549998,0.04642575810304917,-0.003054326190990077,-0.04505131131710364,0.02758,0.48314000000000007,-0.45696000000000003,20.5,0,63,31,28,110,30.9005078125,21285,26.25544402207808,1000.9930829243187,0
2024-03-17T10:00:16,-0.20279171534999998,0.0095712904,10.067801089499998,0.04291328298341058,-0.00015271630954950385,-0.0474947722698957,0.02758,0.4909800000000001,-0.44898000000000005,20.5,0,63,31,28,110,30.9005078125,21285,26.25544402207808,1000.9930829243187,0
2024-03-17T10:00:16,-0.1890329854,-0.15074782379999999,10.106086251099997,0.04566217655530165,-0.002901609881440573,-0.0433714319120591,0.03234,0.48258000000000006,-0.4555600000000001,20.5,0,63,31,28,110,30.9005078125,21285,26.25544402207808,1000.9930829243187,0
2024-03-17T10:00:16,-0.22313070744999997,-0.028115665550000002,10.0725867347,0.041996985126113565,-0.001069014166846527,-0.04566217655530165,0.028980000000000002,0.48314000000000007,-0.4496800000000001,20.5,0,63,31,28,110,30.9005078125,21285,26.25544402207808,1000.9930829243187,0
2024-03-17T10:00:16,-0.20638094924999997,0.005982056499999999,10.07318494035,0.04245513405476207,-0.0009162978572970231,-0.04718933965079669,0.028980000000000002,0.48314000000000007,-0.4496800000000001,20.5,0,63,31,28,110,30.9005078125,21285,26.25544402207808,1000.9930829243187,0
2024-03-17T10:00:16,-0.22492532440000002,-0.020338992099999998,10.112666513249998,0.04718933965079669,-0.00015271630954950385,-0.043982297150257116,0.028700000000000003,0.47642000000000007,-0.44450000000000006,20.5,0,63,31,28,110,30.9005078125,21285,26.25544402207808,1000.9930829243187,0
2024-03-17T10:00:16,-0.24227328824999997,-0.00059820565,10.0103733471,0.04657847441259867,-0.0007635815477475193,-0.04688390703169768,0.033460000000000004,0.47614000000000006,-0.45878,20.5,0,63,31,28,110,30.9133984375,21724,26.190456441873476,1000.995996086735,0
2024-03-17T10:00:16,-0.22552353004999998,-0.022133609050000003,10.18684401385,0.05192354524683131,-0.005803219762881146,-0.04444044607890562,0.029820000000000003,0.48930000000000007,-0.44800000000000006,20.5,0,63,31,28,110,30.9133984375,21724,26.190456441873476,1000.995996086735,0
2024-03-17T10:00:16,-0.11724830739999999,-0.0634097989,10.11864856975,0.036499197982331415,0.00916297857297023,-0.04627304179349966,0.029820000000000003,0.48930000000000007,-0.44800000000000006,20.5,0,63,31,28,110,30.9133984375,21724,26.190456441873476,1000.995996086735,0
2024-03-17T10:00:16,-0.28175486115,-0.010767701699999998,10.04985492,0.03756821214917795,-0.002138028333693054,-0.04459316238845512,0.0357,0.48174000000000006,-0.45276000000000005,20.5,0,63,31,28,110,30.9133984375,21724,26.190456441873476,1000.995996086735,0
2024-03-17T10:00:16,-0.15254244074999998,0.0083748791,10.08155981945,0.041844268816564056,-0.009926560120717751,-0.0474947722698957,0.0315,0.47922000000000003,-0.45472,20.5,0,63,31,28,110,30.9133984375,21724,26.190456441873476,1000.995996086735,0
2024-03-17T10:00:16,-0.22492532440000002,0.07118647234999999,10.04566748045,0.04046982203061852,0.008552113334772215,-0.039858956792420505,0.0315,0.47922000000000003,-0.45472,20.5,0,63,31,28,110,30.9133984375,21724,26.190456441873476,1000.995996086735,0
2024-03-17T10:00:16,-0.30867411539999995,-0.08374879099999999,10.139585767500002,0.039095375244672985,-0.0054977871437821395,-0.04260785036431157,0.02646,0.47502000000000005,-0.45416,20.5,0,63,31,28,110,30.9133984375,21724,26.190456441873476,1000.995996086735,0
2024-03-17T10:00:16,-0.11964112999999998,0.005982056499999999,10.045069274799998,0.04886921905584123,-0.0035124751196385882,-0.04428772976935611,0.028140000000000005,0.48482000000000003,-0.4572400000000001,20.5,0,63,31,28,110,30.9266796875,21973,26.125526938872504,1000.9869707249547,0
2024-03-17T10:00:16,-0.19800607015,-0.0526420972,10.0223374601,0.04459316238845512,-0.002901609881440573,-0.041080687268816536,0.02198,0.48146000000000005,-0.4491200000000001,20.5,0,63,31,28,110,30.9266796875,21973,26.125526938872504,1000.9869707249547,0
2024-03-17T10:00:16,-0.16630117069999997,-0.0083748791,10.110871896299999,0.03787364476827696,0.0006108652381980154,-0.04489859500755413,0.020860000000000004,0.47950000000000004,-0.44898000000000005,20.5,0,63,31,28,110,30.9266796875,21973,26.125526938872504,1000.9869707249547,0
2024-03-17T10:00:16,-0.2225325018,-0.00059820565,10.101898811549999,0.04520402762665314,-0.003054326190990077,-0.0433714319120591,0.020860000000000004,0.47950000000000004,-0.44898000000000005,20.5,0,63,31,28,110,30.9266796875,21973,26.125526938872504,1000.9869707249547,0
2024-03-17T10:00:16,-0.23449661479999998,0.01256231865,10.11864856975,0.04001167310197001,-0.0054977871437821395,-0.04596760917440065,0.02338,0.48426,-0.4502400000000001,20.5,0,63,31,28,110,30.9266796875,21973,26.125526938872504,1000.9869707249547,0
2024-03-17T10:00:16,-0.18963119104999998,-0.01854437515,10.028319516599998,0.04734205596034619,-0.0009162978572970231,-0.043982297150257116,0.029820000000000003,0.4772600000000001,-0.46228,20.5,0,63,31,28,110,30.9266796875,21973,26.125526938872504,1000.9869707249547,0
2024-03-17T10:00:16,-0.19441683624999997,-0.028713871199999998,10.1048898398,0.03924809155422249,0.03802636107782646,-0.04474587869800463,0.029820000000000003,0.4772600000000001,-0.46186000000000005,20.5,0,63,31,28,110,30.9266796875,21973,26.125526938872504,1000.9869707249547,0
2024-03-17T10:00:16,-0.23210379219999996,-0.014356935599999999,10.0295159279,0.041844268816564056,-0.0019853120241435504,-0.040317105721069016,0.03122,0.47782,-0.46186000000000005,20.5,0,63,31,28,110,30.939375,22298,26.049590311584257,1000.9787914099019,0
2024-03-17T10:00:17,-0.20398812665,-0.024526431649999996,10.249057401449999,0.04245513405476207,-0.0006108652381980154,-0.04413501345980661,0.023660000000000004,0.4719400000000001,-0.44954,20.5,0,63,31,28,110,30.939375,22298,26.049590311584257,1000.9787914099019,0
2024-03-17T10:00:17,-0.22552353004999998,0.0023928226,10.083354436399997,0.04520402762665314,-0.0006108652381980154,-0.04520402762665314,0.030660000000000003,0.47782,-0.4590600000000001,20.5,0,63,31,28,110,30.939375,22298,26.049590311584257,1000.9787914099019,0
2024-03-17T10:00:17,-0.215354034,-0.015553346899999999,10.04566748045,0.0474947722698957,-0.0013744467859455349,-0.04535674393620265,0.025060000000000002,0.48006000000000004,-0.45038000000000006,20.5,0,63,31,28,110,30.939375,22298,26.049590311584257,1000.9787914099019,0
2024-03-17T10:00:17,-0.23449661479999998,0.0029910282499999996,10.04088183525,0.04291328298341058,-0.002138028333693054,-0.04321871560250959,0.025060000000000002,0.48874000000000006,-0.44002,20.5,0,63,31,28,110,30.939375,22298,26.049590311584257,1000.9787914099019,0
2024-03-17T10:00:17,-0.21595223965000002,-0.01974078645,10.101898811549999,0.04153883619746505,0.0013744467859455349,-0.039858956792420505,0.023660000000000004,0.48874000000000006,-0.44002,20.5,0,63,31,28,110,30.939375,22298,26.049590311584257,1000.9787914099019,0
2024-03-17T10:00:17,-0.2141576227,-0.011365907350000001,10.077970585549998,0.04245513405476207,-0.0009162978572970231,-0.04550946024575215,0.03234,0.48902000000000007,-0.44310000000000005,20.5,0,63,31,28,110,30.939375,22298,26.049590311584257,1000.9787914099019,0
2024-03-17T10:00:17,-0.20757736054999998,0.0,10.08155981945,0.043676864531158106,0.0012217304763960308,-0.04489859500755413,0.02338,0.48174000000000006,-0.4501,20.5,0,63,31,28,110,30.9512890625,22657,25.984612996166685,1000.981917072496,0
2024-03-17T10:00:17,-0.20279171534999998,0.01256231865,10.04088183525,0.04123340357836604,-0.001069014166846527,-0.04535674393620265,0.026740000000000003,0.47614000000000006,-0.4389,20.5,0,63,31,28,110,30.9512890625,22657,25.984612996166685,1000.981917072496,0
2024-03-17T10:00:17,-0.215354034,0.014955141249999998,10.2376914941,0.04016438941151951,-0.004123340357836604,-0.041844268816564056,0.025900000000000003,0.48146000000000005,-0.44702000000000003,20.5,0,63,31,28,110,30.9512890625,22657,25.984612996166685,1000.981917072496,0
2024-03-17T10:00:17,-0.2069791549,-0.014955141249999998,10.0654082669,0.03924809155422249,-0.0016798794050445422,-0.04627304179349966,0.025900000000000003,0.48146000000000005,-0.44702000000000003,20.5,0,63,31,28,110,30.9512890625,22657,25.984612996166685,1000.981917072496,0
2024-03-17T10:00:17,-0.22791635265,-0.0095712904,10.0666046782,0.04627304179349966,-0.0007635815477475193,-0.04581489286485116,0.03122,0.48706000000000005,-0.4529,20.5,0,63,31,28,110,30.9512890625,22657,25.984612996166685,1000.981917072496,0
2024-03-17T10:00:17,-0.23150558654999998,0.0083748791,10.0582297991,0.04550946024575215,-0.0036651914291880926,-0.041691552507014555,0.02842,0.48090000000000005,-0.43554000000000004,20.5,0,63,31,28,110,30.9512890625,22657,25.984612996166685,1000.981917072496,0
2024-03-17T10:00:17,-0.2105683888,-0.010169496049999999,10.024730282699998,0.039858956792420505,-0.002138028333693054,-0.041691552507014555,0.02842,0.48090000000000005,-0.43554000000000004,20.5,0,63,31,28,110,30.9512890625,22657,25.984612996166685,1000.981917072496,0
2024-03-17T10:00:17,-0.215354034,-0.0167497582,10.238887905399999,0.041691552507014555,-0.0003054326190990077,-0.04306599929296009,0.025340000000000005,0.48398,-0.43750000000000006,20.5,0,63,31,28,110,30.96359375,23003,25.93067229762252,1000.9748994379952,0
2024-03-17T10:00:17,-0.1459621786,-0.025722842949999998,10.042676452199998,0.04291328298341058,0.0025961772623415654,-0.04444044607890562,0.032900000000000006,0.48006000000000004,-0.45122,20.5,0,63,31,28,110,30.96359375,23003,25.93067229762252,1000.9748994379952,0
2024-03-17T10:00:17,-0.25902304644999996,-0.0323031051,10.0666046782,0.04474587869800463,0.038637226316024474,-0.0476474885794452,0.03178,0.48790000000000006,-0.4536,20.5,0,63,31,28,110,30.96359375,23003,25.93067229762252,1000.9748994379952,0
2024-03-17T10:00:17,-0.20039889274999997,-0.01854437515,10.08155981945,0.038637226316024474,-0.008857545953871223,-0.043982297150257116,0.027020000000000002,0.48062000000000005,-0.43484,20.5,0,63,31,28,110,30.96359375,23003,25.93067229762252,1000.9748994379952,0
2024-03-17T10:00:17,-0.1734796385,0.06759723845,10.0462656861,0.04214970143566306,0.005345070834232635,-0.04566217655530165,0.027020000000000002,0.48062000000000005,-0.43484,20.5,0,63,31,28,110,30.96359375,23003,25.93067229762252,1000.9748994379952,0
2024-03-17T10:00:17,-0.27098715944999996,-0.03529413334999999,10.094720343749998,0.039706240482871004,0.0012217304763960308,-0.04245513405476207,0.02478,0.48230000000000006,-0.45304,20.5,0,63,31,28,110,30.96359375,23003,25.93067229762252,1000.9748994379952,0
2024-03-17T10:00:17,-0.2117648001,0.0095712904,10.143773207049998,0.04459316238845512,-0.0038179077387375964,-0.04245513405476207,0.030100000000000002,0.48426,-0.45150000000000007,20.5,0,63,31,28,110,30.96359375,23003,25.93067229762252,1000.9748994379952,0
2024-03-17T10:00:17,-0.1531406464,-0.022731814700000002,10.0654082669,0.041080687268816536,-0.0012217304763960308,-0.047952921198544204,0.030100000000000002,0.48426,-0.45150000000000007,20.5,0,63,31,28,110,30.9758984375,23360,25.860288885804334,1000.9696767544141,0
2024-03-17T10:00:17,-0.18544375149999998,-0.010169496049999999,10.06481006125,0.038637226316024474,0.0009162978572970231,-0.04780020488899471,0.02338,0.48062000000000005,-0.44282000000000005,20.5,0,63,31,28,110,30.9758984375,23360,25.860288885804334,1000.9696767544141,0
2024-03-17T10:00:17,-0.23030917524999997,-0.0251246373,10.1084790737,0.04413501345980661,0.0012217304763960308,-0.04612032548395016,0.02338,0.48062000000000005,-0.44282000000000005,20.5,0,63,31,28,110,30.9758984375,23360,25.860288885804334,1000.9696767544141,0
2024-03-17T10:00:17,-0.23988046564999999,-0.010169496049999999,10.083354436399997,0.038331793696925465,-0.00473420559603462,-0.04474587869800463,0.02198,0.47782,-0.44702000000000003,20.5,0,63,31,28,110,30.9758984375,23360,25.860288885804334,1000.9696767544141,0
2024-03-17T10:00:17,-0.19561324754999998,0.005383850849999999,10.061819032999999,0.04718933965079669,0.0003054326190990077,-0.04566217655530165,0.01946,0.48146000000000005,-0.42910000000000004,20.5,0,63,31,28,110,30.9758984375,23360,25.860288885804334,1000.9696767544141,0
2024-03-17T10:00:17,-0.24227328824999997,-0.017946169499999998,10.076774174250001,0.03924809155422249,-0.0015271630954950385,-0.041691552507014555,0.01946,0.48146000000000005,-0.42910000000000004,20.5,0,63,31,28,110,30.9758984375,23360,25.860288885804334,1000.9696767544141,0
2024-03-17T10:00:17,-0.21296121140000002,-0.010169496049999999,10.09113110985,0.04474587869800463,-0.003207042500539581,-0.04581489286485116,0.026740000000000003,0.48706000000000005,-0.44394000000000006,20.5,0,63,31,28,110,30.9758984375,23360,25.860288885804334,1000.9696767544141,0
2024-03-17T10:00:17,-0.18185451760000002,-0.01615155255,10.04207824655,0.040317105721069016,-0.0013744467859455349,-0.04046982203061852,0.016380000000000002,0.48230000000000006,-0.44758000000000003,20.5,0,63,31,28,110,30.9868359375,23778,25.806284769233024,1000.9676277442013,0
2024-03-17T10:00:17,-0.2105683888,-0.00059820565,10.0534441539,0.04627304179349966,-0.0024434609527920616,-0.04489859500755413,0.029540000000000004,0.48146000000000005,-0.4494,20.5,0,63,31,28,110,30.9868359375,23778,25.806284769233024,1000.9676277442013,0
2024-03-17T10:00:17,-0.20159530404999998,-0.015553346899999999,10.07557776295,0.04123340357836604,0.00015271630954950385,-0.036804630601430424,0.028140000000000005,0.48062000000000005,-0.45164000000000004,20.5,0,63,31,28,110,30.9868359375,23778,25.806284769233024,1000.9676277442013,0
2024-03-17T10:00:17,-0.22432711874999997,0.017946169499999998,10.130612682750002,0.03695734691097993,-0.004581489286485115,-0.039095375244672985,0.028140000000000005,0.48062000000000005,-0.45164000000000004,20.5,0,63,31,28,110,30.9868359375,23778,25.806284769233024,1000.9676277442013,0
2024-03-17T10:00:17,-0.23569302609999998,-0.0167497582,10.121639597999998,0.04123340357836604,-0.0013744467859455349,-0.04596760917440065,0.02646,0.48566000000000004,-0.4496800000000001,20.5,0,63,31,28,110,30.9868359375,23778,25.806284769233024,1000.9676277442013,0
2024-03-17T10:00:17,-0.20578274359999998,-0.00059820565,10.097113166349997,0.04444044607890562,-0.0006108652381980154,-0.041080687268816536,0.02142,0.48314000000000007,-0.45192,20.5,0,63,31,28,110,30.9868359375,23778,25.806284769233024,1000.9676277442013,0
2024-03-17T10:00:17,-0.20338992099999997,0.00658026215,10.07438135165,0.04489859500755413,-0.00045814892864851157,-0.04276056667386108,0.026180000000000002,0.48286000000000007,-0.43638000000000005,20.5,0,63,31,28,110,30.9868359375,23778,25.806284769233024,1000.9676277442013,0
2024-03-17T10:00:17,-0.21116659445,-0.023928225999999997,10.0594262104,0.04306599929296009,0.0022907446432425577,-0.04581489286485116,0.026180000000000002,0.48286000000000007,-0.43638000000000005,20.5,0,63,31,28,110,30.997578125,24076,25.746801796475516,1000.9724457639078,0
2024-03-17T10:00:17,-0.23449661479999998,-0.0095712904,10.10668445675,0.041080687268816536,-0.0027488935718910697,-0.04612032548395016,0.025060000000000002,0.48118000000000005,-0.44702000000000003,20.5,0,63,31,28,110,30.997578125,24076,25.746801796475516,1000.9724457639078,0
2024-03-17T10:00:17,-0.23030917524999997,-0.017946169499999998,10.06122082735,0.03924809155422249,0.0012217304763960308,-0.041691552507014555,0.027300000000000005,0.48930000000000007,-0.44828,20.5,0,63,31,28,110,30.997578125,24076,25.746801796475516,1000.9724457639078,0
2024-03-17T10:00:17,-0.10169496049999999,-0.023928225999999997,10.2640125427,0.041844268816564056,-0.00473420559603462,-0.04444044607890562,0.02758,0.48510000000000003,-0.45388000000000006,20.5,0,63,31,28,110,30.997578125,24076,25.746801796475516,1000.9724457639078,0
2024-03-17T10:00:18,-0.13818550515,0.022133609050000003,9.8727860476,0.047952921198544204,0.003207042500539581,-0.04382958084070761,0.02758,0.48510000000000003,-0.45388000000000006,20.5,0,63,31,28,110,30.997578125,24076,25.746801796475516,1000.9724457639078,0
2024-03-17T10:00:18,-0.32841490184999994,0.035892338999999995,10.1742816952,0.029626964052603746,-0.0006108652381980154,-0.043982297150257116,0.02198,0.49014,-0.4555600000000001,20.5,0,63,31,28,110,30.997578125,24076,25.746801796475516,1000.9724457639078,0
2024-03-17T10:00:18,-0.21236300575,-0.00658026215,10.037890806999998,0.05619960191421741,-0.006261368691529657,-0.04657847441259867,0.01862,0.48650000000000004,-0.46102000000000004,20.5,0,62,31,28,108,30.997578125,24076,25.746801796475516,1000.9724457639078,0
2024-03-17T10:00:18,-0.15972090854999998,-0.035892338999999995,9.972686391149999,0.03436116964863837,0.0035124751196385882,-0.04581489286485116,0.01862,0.48650000000000004,-0.46102000000000004,20.5,0,62,31,28,108,31.0083203125,24382,25.681861996804706,1000.9736714617783,0
2024-03-17T10:00:18,-0.15433705769999997,0.0251246373,10.06361364995,0.041996985126113565,-0.001069014166846527,-0.04444044607890562,0.030660000000000003,0.48678000000000005,-0.44996,20.5,0,62,31,28,108,31.0083203125,24382,25.681861996804706,1000.9736714617783,0
2024-03-17T10:00:18,-0.18245272324999998,-0.03409772205,10.064211855599998,0.04016438941151951,-0.0019853120241435504,-0.04596760917440065,0.030660000000000003,0.48678000000000005,-0.44996,20.5,0,62,31,28,108,31.0083203125,24382,25.681861996804706,1000.9736714617783,0
2024-03-17T10:00:18,-0.23449661479999998,0.058624153699999994,10.141380384449999,0.03481931857728687,-0.0033597588100890844,-0.04718933965079669,0.03542,0.47838,-0.4426800000000001,20.5,0,62,31,28,108,31.0083203125,24382,25.681861996804706,1000.9736714617783,0
2024-03-17T10:00:18,-0.21355941705,-0.028115665550000002,10.00498949625,0.043982297150257116,0.0016798794050445422,-0.04657847441259867,0.02842,0.47922000000000003,-0.45808000000000004,20.5,0,62,31,28,108,31.0083203125,24382,25.681861996804706,1000.9736714617783,0
2024-03-17T10:00:18,-0.1292124204,0.0131605243,10.269994599199999,0.0003054326190990077,0.006566801310628666,-0.04612032548395016,0.02842,0.47922000000000003,-0.45808000000000004,20.5,0,62,31,28,108,31.0083203125,24382,25.681861996804706,1000.9736714617783,0
2024-03-17T10:00:18,-0.21714865095,-0.05563312545,10.1168539528,0.04474587869800463,-0.005803219762881146,-0.04550946024575215,0.030380000000000004,0.48230000000000006,-0.4496800000000001,20.5,0,62,31,28,108,31.0083203125,24382,25.681861996804706,1000.9736714617783,0
2024-03-17T10:00:18,-0.11365907349999999,0.0131605243,10.16770143305,0.037110063220529434,-0.0025961772623415654,-0.04963280060358875,0.024500000000000004,0.48622000000000004,-0.44338000000000005,20.5,0,62,31,28,108,31.018671875,24725,25.622397540918303,1000.9760603613068,0
2024-03-17T10:00:18,-0.27218357075,-0.014955141249999998,10.1240324206,0.040622538340168025,-0.009621127501618741,-0.04612032548395016,0.025340000000000005,0.4837,-0.4555600000000001,20.5,0,62,31,28,108,31.018671875,24725,25.622397540918303,1000.9760603613068,0
2024-03-17T10:00:18,-0.29850461935,-0.0017946169499999999,10.004391290600001,0.041996985126113565,0.03772092845872745,-0.0433714319120591,0.01778,0.47530000000000006,-0.44408000000000003,20.5,0,62,31,28,108,31.018671875,24725,25.622397540918303,1000.9760603613068,0
2024-03-17T10:00:18,-0.24825534474999997,0.07537391189999999,10.118050364099998,0.04001167310197001,0.0036651914291880926,-0.04581489286485116,0.01778,0.47530000000000006,-0.44408000000000003,20.5,0,62,31,28,108,31.018671875,24725,25.622397540918303,1000.9760603613068,0
