Timestamp,Accel_X,Accel_Y,Accel_Z,Gyro_X,Gyro_Y,Gyro_Z,Mag_X,Mag_Y,Mag_Z,LSM9DS1_Temp,Proximity,Color_R,Color_G,Color_B,Color_C,BME680_Temp,Gas,Humidity,Pressure,Switch_Pressed,GPS_Latitude,GPS_Longitude,GPS_Speed,GPS_Timestamp
2024-03-17T16:20:04,-0.32901310749999996,0.23150558654999998,10.07438135165,0.04291328298341058,-0.018020524526841455,-0.050701814770435276,0.03542,0.41846000000000005,-0.5023200000000001,18.5,0,0,0,0,0,33.574921875,22042,100,695.662002676745,0,,,,N/A
2024-03-17T16:20:04,-0.18664016279999998,0.22552353004999998,10.07557776295,0.04444044607890562,-0.003207042500539581,-0.04734205596034619,0.03682,0.41342,-0.50526,18.5,0,0,0,0,0,33.574921875,22042,100,695.662002676745,0,,,,N/A
2024-03-17T16:20:04,-0.34277183744999995,0.22013967919999997,10.092327521149999,0.03756821214917795,0.00015271630954950385,-0.04734205596034619,0.03262,0.4148200000000001,-0.5075000000000001,18.5,0,0,0,0,0,33.574921875,22042,100,695.662002676745,0,,,,N/A
2024-03-17T16:20:04,-0.3212364340499999,0.22013967919999997,10.086943670299998,0.038637226316024474,-0.002138028333693054,-0.04612032548395016,0.0315,0.41258000000000006,-0.49294000000000004,18.5,0,0,0,0,0,33.574921875,22042,100,695.662002676745,0,,,,N/A
2024-03-17T16:20:04,-0.37447673689999994,0.2177468566,10.06720288385,0.04001167310197001,0.0009162978572970231,-0.04673119072214818,0.0315,0.41258000000000006,-0.49294000000000004,18.5,0,0,0,0,0,33.574921875,22042,100,695.662002676745,0,,,,N/A
2024-03-17T16:20:04,-0.32303105099999996,0.21475582835,10.082756230749998,0.03924809155422249,0.001069014166846527,-0.04718933965079669,0.026740000000000003,0.4148200000000001,-0.5070800000000001,18.5,0,0,0,0,0,33.574921875,22042,100,695.662002676745,0,,,,N/A
2024-03-17T16:20:04,-0.32602207924999993,0.18963119104999998,10.07438135165,0.038942658935123484,0.002138028333693054,-0.04596760917440065,0.02926,0.42350000000000004,-0.50512,18.5,0,0,0,0,0,33.574921875,22042,100,695.662002676745,0,,,,N/A
2024-03-17T16:20:04,-0.3493520996,0.20757736054999998,10.12223780365,0.04428772976935611,0.0036651914291880926,-0.04718933965079669,0.02926,0.42350000000000004,-0.50512,18.5,0,0,0,0,0,23.695625,4853,18.82218151282002,999.1479432276243,0,,,,N/A
2024-03-17T16:20:04,-0.3553341561,0.22492532440000002,10.1958170986,0.036193765363232405,-0.0056505034533316425,-0.04550946024575215,0.032060000000000005,0.42406000000000005,-0.49672000000000005,18.5,0,0,0,0,0,23.695625,4853,18.82218151282002,999.1479432276243,0,,,,N/A
2024-03-17T16:20:04,-0.30089744194999996,0.21894326790000002,10.08634546465,0.04260785036431157,-0.00473420559603462,-0.04459316238845512,0.032060000000000005,0.42406000000000005,-0.49672000000000005,18.5,0,0,0,0,0,23.695625,4853,18.82218151282002,999.1479432276243,0,,,,N/A
2024-03-17T16:20:04,-0.30687949845,0.2548356069,10.06481006125,0.04092797095926703,-0.001069014166846527,-0.04734205596034619,0.037660000000000006,0.41062000000000004,-0.5152,18.5,0,0,0,0,0,23.695625,4853,18.82218151282002,999.1479432276243,0,,,,N/A
2024-03-17T16:20:04,-0.32063822839999995,0.19980068709999999,10.073783145999998,0.04016438941151951,-0.0025961772623415654,-0.04474587869800463,0.028140000000000005,0.41874000000000006,-0.5023200000000001,18.5,0,0,0,0,0,23.695625,4853,18.82218151282002,999.1479432276243,0,,,,N/A
2024-03-17T16:20:04,-0.3098705267,0.23509482044999996,10.087541875949999,0.03787364476827696,-0.0024434609527920616,-0.04489859500755413,0.028140000000000005,0.41874000000000006,-0.5023200000000001,18.5,0,0,0,0,0,23.695625,4853,18.82218151282002,999.1479432276243,0,,,,N/A
2024-03-17T16:20:04,-0.3296113131499999,0.22492532440000002,10.112666513249998,0.039858956792420505,-0.003207042500539581,-0.04291328298341058,0.039900000000000005,0.4142600000000001,-0.51632,18.5,0,0,0,0,0,23.695625,4853,18.82218151282002,999.1479432276243,0,,,,N/A
2024-03-17T16:20:04,-0.34456645439999994,0.21236300575,10.150353469199999,0.043982297150257116,0.0025961772623415654,-0.04627304179349966,0.03514,0.41874000000000006,-0.51898,18.5,0,0,0,0,0,23.9438671875,7344,18.877078243169873,999.1493961414147,0,,,,N/A
2024-03-17T16:20:04,-0.31345976059999997,0.23808584869999996,9.993025383249998,0.04596760917440065,-0.0025961772623415654,-0.04520402762665314,0.03458000000000001,0.4148200000000001,-0.51856,18.5,0,0,0,0,0,23.9438671875,7344,18.877078243169873,999.1493961414147,0,,,,N/A
2024-03-17T16:20:04,-0.35832518435,0.2117648001,10.03848901265,0.0435241482216086,-0.0056505034533316425,-0.04520402762665314,0.03458000000000001,0.4148200000000001,-0.51856,18.5,0,0,0,0,0,23.9438671875,7344,18.877078243169873,999.1493961414147,0,,,,N/A
2024-03-17T16:20:04,-0.33499516399999996,0.22313070744999997,10.085747258999998,0.04291328298341058,-0.0038179077387375964,-0.04810563750809371,0.02198,0.41706000000000004,-0.5117,18.5,0,0,0,0,0,23.9438671875,7344,18.877078243169873,999.1493961414147,0,,,,N/A
2024-03-17T16:20:04,-0.33738798659999997,0.22013967919999997,10.07557776295,0.038331793696925465,-0.003054326190990077,-0.04673119072214818,0.03514,0.4123,-0.5177200000000001,18.5,0,0,0,0,0,23.9438671875,7344,18.877078243169873,999.1493961414147,0,,,,N/A
2024-03-17T16:20:04,-0.35892339,0.22731814699999997,10.11386292455,0.041691552507014555,-0.0056505034533316425,-0.0474947722698957,0.03514,0.4123,-0.5177200000000001,18.5,0,0,0,0,0,23.9438671875,7344,18.877078243169873,999.1493961414147,0,,,,N/A
2024-03-17T16:20:04,-0.30867411539999995,0.21475582835,10.06720288385,0.04612032548395016,-0.004123340357836604,-0.04382958084070761,0.025060000000000002,0.41538,-0.51268,18.5,0,0,0,0,0,23.9438671875,7344,18.877078243169873,999.1493961414147,0,,,,N/A
2024-03-17T16:20:04,-0.33020951879999993,0.2117648001,10.0654082669,0.04214970143566306,-0.0036651914291880926,-0.04673119072214818,0.030660000000000003,0.41706000000000004,-0.5028800000000001,18.5,0,0,0,0,0,24.306953125,10316,18.912964207361192,999.1510603741647,0,,,,N/A
2024-03-17T16:20:05,-0.3212364340499999,0.24705893344999996,10.13420191665,0.03588833274413341,-0.00595593607243065,-0.043982297150257116,0.037660000000000006,0.41286,-0.5140800000000001,18.5,0,1128,633,352,1763,24.306953125,10316,18.912964207361192,999.1510603741647,0,,,,N/A
2024-03-17T16:20:05,-0.3002992363,0.22731814699999997,10.11625574715,0.04474587869800463,-0.006566801310628666,-0.04673119072214818,0.028700000000000003,0.41706000000000004,-0.5061,18.5,0,1128,633,352,1763,24.306953125,10316,18.912964207361192,999.1510603741647,0,,,,N/A
2024-03-17T16:20:05,-0.34576286570000003,0.2141576227,10.070792117749999,0.039553524173321496,-0.004123340357836604,-0.04780020488899471,0.03374,0.41818000000000005,-0.5091800000000001,18.5,0,1128,633,352,1763,24.306953125,10316,18.912964207361192,999.1510603741647,0,,,,N/A
2024-03-17T16:20:05,-0.31704899449999996,0.19800607015,10.14018397315,0.04077525464971753,-0.0024434609527920616,-0.04703662334124718,0.03374,0.41818000000000005,-0.4904200000000001,18.5,0,1128,633,352,1763,24.306953125,10316,18.912964207361192,999.1510603741647,0,,,,N/A
2024-03-17T16:20:05,-0.3355933696499999,0.23808584869999996,10.11505933585,0.04459316238845512,-0.0018325957145940463,-0.04734205596034619,0.02562,0.42406000000000005,-0.4904200000000001,18.5,0,1128,633,352,1763,24.306953125,10316,18.912964207361192,999.1510603741647,0,,,,N/A
2024-03-17T16:20:05,-0.31046873235,0.20997018315,10.097711372000001,0.041080687268816536,-0.0006108652381980154,-0.04917465167494024,0.0315,0.42014000000000007,-0.5171600000000001,18.5,0,1128,633,352,1763,24.695625,13334,18.955545250691106,999.1582347570189,0,,,,N/A
2024-03-17T16:20:05,-0.30508488149999996,0.21714865095,10.063015444300001,0.03543018381548489,0.0006108652381980154,-0.04214970143566306,0.029540000000000004,0.42518000000000006,-0.50568,18.5,0,1128,633,352,1763,24.695625,13334,18.955545250691106,999.1582347570189,0,,,,N/A
2024-03-17T16:20:05,-0.33858439789999994,0.20817556619999997,10.034301573099999,0.043982297150257116,-0.0019853120241435504,-0.04413501345980661,0.025340000000000005,0.42434000000000005,-0.50988,18.5,0,1128,633,352,1763,24.695625,13334,18.955545250691106,999.1582347570189,0,,,,N/A
2024-03-17T16:20:05,-0.3272184905499999,0.2117648001,10.006185907549998,0.040317105721069016,-0.0012217304763960308,-0.0433714319120591,0.025340000000000005,0.42434000000000005,-0.50988,18.5,0,1128,633,352,1763,24.695625,13334,18.955545250691106,999.1582347570189,0,,,,N/A
2024-03-17T16:20:05,-0.32662028489999995,0.22313070744999997,10.021141048799999,0.04077525464971753,-0.0015271630954950385,-0.04428772976935611,0.03682,0.42518000000000006,-0.5117,18.5,0,1128,633,352,1763,24.695625,13334,18.955545250691106,999.1582347570189,0,,,,N/A
2024-03-17T16:20:05,-0.3439682487499999,0.19980068709999999,10.1048898398,0.038484510006474966,-0.0033597588100890844,-0.04474587869800463,0.022820000000000003,0.41986,-0.511,18.5,0,1128,633,352,1763,24.695625,13334,18.955545250691106,999.1582347570189,0,,,,N/A
2024-03-17T16:20:05,-0.31465617189999995,0.21894326790000002,10.079765202499999,0.04245513405476207,0.0,-0.04642575810304917,0.022820000000000003,0.41986,-0.511,18.5,0,1128,633,352,1763,25.0675,16364,18.976755699282453,999.162322157354,0,,,,N/A
2024-03-17T16:20:05,-0.2703889538,0.215354034,10.01456078665,0.03787364476827696,-0.002901609881440573,-0.04474587869800463,0.038500000000000006,0.41846000000000005,-0.51156,18.5,0,1128,633,352,1763,25.0675,16364,18.976755699282453,999.162322157354,0,,,,N/A
2024-03-17T16:20:05,-0.32063822839999995,0.19800607015,10.098907783299998,0.04505131131710364,-0.004581489286485115,-0.04673119072214818,0.027860000000000003,0.41846000000000005,-0.5049800000000001,18.5,0,1128,633,352,1763,25.0675,16364,18.976755699282453,999.162322157354,0,,,,N/A
2024-03-17T16:20:05,-0.38644084989999994,0.19381863059999999,10.11386292455,0.04489859500755413,-0.0035124751196385882,-0.04581489286485116,0.027860000000000003,0.41846000000000005,-0.5049800000000001,18.5,0,1128,633,352,1763,25.0675,16364,18.976755699282453,999.162322157354,0,,,,N/A
2024-03-17T16:20:05,-0.31944181709999997,0.22612173569999997,10.0725867347,0.04092797095926703,-0.003970624048287101,-0.04520402762665314,0.02562,0.41566000000000003,-0.4998000000000001,18.5,0,1128,633,352,1763,25.0675,16364,18.976755699282453,999.162322157354,0,,,,N/A
2024-03-17T16:20:05,-0.34277183744999995,0.23629123174999997,9.9601240725,0.04153883619746505,-0.004276056667386108,-0.04306599929296009,0.019180000000000003,0.41874000000000006,-0.5119800000000001,18.5,0,1128,633,352,1763,25.0675,16364,18.976755699282453,999.162322157354,0,,,,N/A
2024-03-17T16:20:05,-0.3415754261499999,0.21954147355,10.0953185494,0.04413501345980661,-0.0070249502392771765,-0.04718933965079669,0.019180000000000003,0.41874000000000006,-0.5119800000000001,18.5,0,1128,633,352,1763,25.4059765625,19317,18.99613134628028,999.1737812675774,0,,,,N/A
2024-03-17T16:20:05,-0.35712877305,0.19381863059999999,10.04925671435,0.03924809155422249,-0.004123340357836604,-0.04474587869800463,0.027300000000000005,0.42042,-0.5146400000000001,18.5,0,1128,633,352,1763,25.4059765625,19317,18.99613134628028,999.1737812675774,0,,,,N/A
2024-03-17T16:20:05,-0.34277183744999995,0.21954147355,10.083354436399997,0.04321871560250959,-0.0027488935718910697,-0.04291328298341058,0.03458000000000001,0.41566000000000003,-0.5166000000000001,18.5,0,1128,633,352,1763,25.4059765625,19317,18.99613134628028,999.1737812675774,0,,,,N/A
2024-03-17T16:20:05,-0.31704899449999996,0.25064816735,10.0414800409,0.0433714319120591,-0.0018325957145940463,-0.052534410485029326,0.024500000000000004,0.41678000000000004,-0.5065200000000001,18.5,0,1128,633,352,1763,25.4059765625,19317,18.99613134628028,999.1737812675774,0,,,,N/A
2024-03-17T16:20:05,-0.30329026454999997,0.22193429615000002,10.100702400249999,0.041691552507014555,-0.0033597588100890844,-0.04581489286485116,0.024500000000000004,0.41678000000000004,-0.5065200000000001,18.5,0,1128,633,352,1763,25.4059765625,19317,18.99613134628028,999.1737812675774,0,,,,N/A
2024-03-17T16:20:05,-0.3296113131499999,0.20638094924999997,10.07318494035,0.04291328298341058,-0.005039638215133627,-0.04291328298341058,0.030100000000000002,0.41902000000000006,-0.49714,18.5,0,1128,633,352,1763,25.4059765625,19317,18.99613134628028,999.1737812675774,0,,,,N/A
2024-03-17T16:20:05,-0.27337998204999997,0.20219350969999997,10.0534441539,0.039553524173321496,-0.002138028333693054,-0.04780020488899471,0.029820000000000003,0.41734000000000004,-0.51324,18.5,0,1128,633,352,1763,25.7065625,22369,18.997961899165652,999.180121799331,0,,,,N/A
2024-03-17T16:20:05,-0.38225341035,0.15912270289999997,10.1611211709,0.04260785036431157,-0.003054326190990077,-0.04718933965079669,0.03262,0.4151,-0.5068,18.5,0,1128,633,352,1763,25.7065625,22369,18.997961899165652,999.180121799331,0,,,,N/A
2024-03-17T16:20:05,-0.3296113131499999,0.2105683888,10.088140081599997,0.0357356164345839,0.0006108652381980154,-0.04673119072214818,0.03262,0.4151,-0.5068,18.5,0,1128,633,352,1763,25.7065625,22369,18.997961899165652,999.180121799331,0,,,,N/A
2024-03-17T16:20:05,-0.28474588939999995,0.27098715944999996,10.106086251099997,0.04001167310197001,-0.004886921905584123,-0.04657847441259867,0.02338,0.42294000000000004,-0.5049800000000001,18.5,0,1128,633,352,1763,25.7065625,22369,18.997961899165652,999.180121799331,0,,,,N/A
2024-03-17T16:20:05,-0.33200413574999993,0.20817556619999997,10.06361364995,0.04016438941151951,-0.0036651914291880926,-0.0474947722698957,0.028980000000000002,0.41146000000000005,-0.51044,18.5,0,1128,633,352,1763,25.7065625,22369,18.997961899165652,999.180121799331,0,,,,N/A
2024-03-17T16:20:05,-0.32602207924999993,0.23449661479999998,10.066006472549999,0.04230241774521256,-0.005039638215133627,-0.04688390703169768,0.028980000000000002,0.41146000000000005,-0.51044,18.5,0,1128,633,352,1763,25.7065625,22369,18.997961899165652,999.180121799331,0,,,,N/A
2024-03-17T16:20:05,-0.3397808092,0.22193429615000002,10.0582297991,0.04291328298341058,-0.0036651914291880926,-0.04444044607890562,0.021700000000000004,0.41566000000000003,-0.4984,18.5,0,1128,633,352,1763,25.9684765625,25348,18.99244813017387,999.1837814056194,0,,,,N/A
2024-03-17T16:20:05,-0.17168502154999998,0.22731814699999997,10.0773723799,0.038789942625573975,-0.0003054326190990077,-0.04382958084070761,0.02758,0.41454,-0.49644000000000005,18.5,0,1128,633,352,1763,25.9684765625,25348,18.99244813017387,999.1837814056194,0,,,,N/A
2024-03-17T16:20:05,-0.29012974025,0.24227328824999997,10.109675485,0.041844268816564056,-0.0025961772623415654,-0.04474587869800463,0.027300000000000005,0.42350000000000004,-0.49756000000000006,18.5,0,1128,633,352,1763,25.9684765625,25348,18.99244813017387,999.1837814056194,0,,,,N/A
2024-03-17T16:20:06,-0.33499516399999996,0.20997018315,10.0462656861,0.04245513405476207,0.0013744467859455349,-0.04596760917440065,0.027300000000000005,0.42350000000000004,-0.49756000000000006,18.5,0,1128,633,352,1763,25.9684765625,25348,18.99244813017387,999.1837814056194,0,,,,N/A
2024-03-17T16:20:06,-0.33260234139999995,0.22971096959999998,10.097711372000001,0.04459316238845512,-0.0038179077387375964,-0.04291328298341058,0.028140000000000005,0.42294000000000004,-0.51156,18.5,0,1128,633,352,1763,25.9684765625,25348,18.99244813017387,999.1837814056194,0,,,,N/A
2024-03-17T16:20:06,-0.3158525832,0.21236300575,10.083354436399997,0.04046982203061852,-0.006414085001079162,-0.04566217655530165,0.03122,0.41846000000000005,-0.50582,18.5,0,1128,633,352,1763,25.9684765625,25348,18.99244813017387,999.1837814056194,0,,,,N/A
2024-03-17T16:20:06,-0.3332005470499999,0.2105683888,10.086943670299998,0.037110063220529434,-0.0015271630954950385,-0.04520402762665314,0.028140000000000005,0.41286,-0.5016200000000001,18.5,0,1128,633,352,1763,26.1940625,28285,18.974557187449843,999.1922667002639,0,,,,N/A
2024-03-17T16:20:06,-0.34576286570000003,0.20338992099999997,10.109675485,0.03726277953007894,-0.006108652381980154,-0.0433714319120591,0.030380000000000004,0.41846000000000005,-0.5096,18.5,0,1128,633,352,1763,26.1940625,28285,18.974557187449843,999.1922667002639,0,,,,N/A
2024-03-17T16:20:06,-0.36849468039999994,0.22492532440000002,10.1072826624,0.04016438941151951,-0.0018325957145940463,-0.04413501345980661,0.028980000000000002,0.41846000000000005,-0.5096,18.5,0,1128,633,352,1763,26.1940625,28285,18.974557187449843,999.1922667002639,0,,,,N/A
2024-03-17T16:20:06,-0.31944181709999997,0.21475582835,10.109675485,0.041844268816564056,-0.002901609881440573,-0.05192354524683131,0.028140000000000005,0.41734000000000004,-0.51212,18.5,0,1128,633,352,1763,26.1940625,28285,18.974557187449843,999.1922667002639,0,,,,N/A
2024-03-17T16:20:06,-0.34815568830000004,0.22731814699999997,10.0654082669,0.03787364476827696,-0.0009162978572970231,-0.04703662334124718,0.030940000000000002,0.41286,-0.51534,18.5,0,1128,633,352,1763,26.1940625,28285,18.974557187449843,999.1922667002639,0,,,,N/A
2024-03-17T16:20:06,-0.3218346397,0.22193429615000002,10.09830957765,0.04016438941151951,-0.003054326190990077,-0.04291328298341058,0.030940000000000002,0.41286,-0.51534,18.5,0,1128,633,352,1763,26.1940625,28285,18.974557187449843,999.1922667002639,0,,,,N/A
2024-03-17T16:20:06,-0.30807590975,0.20279171534999998,10.015757197949998,0.04123340357836604,-0.001069014166846527,-0.04276056667386108,0.027300000000000005,0.42182000000000003,-0.5091800000000001,18.5,0,1128,633,352,1763,26.3895703125,31051,18.97553202745922,999.1962323474822,0,,,,N/A
2024-03-17T16:20:06,-0.2608176634,0.22671994134999998,10.055238770849998,0.04276056667386108,-0.006414085001079162,-0.04474587869800463,0.02142,0.41762000000000005,-0.5091800000000001,18.5,0,1128,633,352,1763,26.3895703125,31051,18.97553202745922,999.1962323474822,0,,,,N/A
2024-03-17T16:20:06,-0.29910282499999996,0.22432711874999997,10.130612682750002,0.04016438941151951,-0.005803219762881146,-0.04780020488899471,0.02758,0.42042,-0.5096,18.5,0,1128,633,352,1763,26.3895703125,31051,18.97553202745922,999.1962323474822,0,,,,N/A
2024-03-17T16:20:06,-0.34217363179999993,0.22432711874999997,10.13420191665,0.04459316238845512,-0.0024434609527920616,-0.04505131131710364,0.02758,0.42042,-0.5096,18.5,0,1128,633,352,1763,26.3895703125,31051,18.97553202745922,999.1962323474822,0,,,,N/A
2024-03-17T16:20:06,-0.31824540579999994,0.20638094924999997,10.1120683076,0.039706240482871004,-0.0038179077387375964,-0.0435241482216086,0.024220000000000002,0.4207,-0.5222,18.5,0,1128,633,352,1763,26.3895703125,31051,18.97553202745922,999.1962323474822,0,,,,N/A
2024-03-17T16:20:06,-0.34037901484999994,0.24227328824999997,10.1072826624,0.039706240482871004,-0.006261368691529657,-0.04856378643674222,0.035980000000000005,0.42098,-0.51044,18.5,0,1128,633,352,1763,26.3895703125,31051,18.97553202745922,999.1962323474822,0,,,,N/A
2024-03-17T16:20:06,-0.34217363179999993,0.21714865095,10.077970585549998,0.040622538340168025,-0.004276056667386108,-0.04230241774521256,0.035980000000000005,0.42098,-0.51044,18.5,0,1128,633,352,1763,26.3895703125,31051,18.97553202745922,999.1962323474822,0,,,,N/A
2024-03-17T16:20:06,-0.28534409504999997,0.2237289131,10.10668445675,0.040317105721069016,-0.004581489286485115,-0.04780020488899471,0.03514,0.41370000000000007,-0.5117,18.5,0,1128,633,352,1763,26.5594921875,33919,18.933828279236252,999.2137537703089,0,,,,N/A
2024-03-17T16:20:06,-0.27577280465,0.2225325018,10.18325477995,0.038179077387375956,-0.002138028333693054,-0.04642575810304917,0.026180000000000002,0.42098,-0.48734000000000005,18.5,0,1128,632,352,1763,26.5594921875,33919,18.933828279236252,999.2137537703089,0,,,,N/A
2024-03-17T16:20:06,-0.32422746229999994,0.21714865095,10.10309522285,0.04260785036431157,-0.004276056667386108,-0.04566217655530165,0.030380000000000004,0.4142600000000001,-0.5222,18.5,0,1128,632,352,1763,26.5594921875,33919,18.933828279236252,999.2137537703089,0,,,,N/A
2024-03-17T16:20:06,-0.32542387359999997,0.22432711874999997,10.246664578849998,0.037110063220529434,-0.0015271630954950385,-0.04444044607890562,0.030380000000000004,0.4142600000000001,-0.5222,18.5,0,1128,632,352,1763,26.5594921875,33919,18.933828279236252,999.2137537703089,0,,,,N/A
2024-03-17T16:20:06,-0.32303105099999996,0.23928225999999997,10.086943670299998,0.038789942625573975,-0.004276056667386108,-0.04428772976935611,0.020860000000000004,0.42126,-0.49140000000000006,18.5,0,1128,632,352,1763,26.5594921875,33919,18.933828279236252,999.2137537703089,0,,,,N/A
2024-03-17T16:20:06,-0.3756731482,0.22073788485,10.0773723799,0.041996985126113565,-0.0027488935718910697,-0.04489859500755413,0.030100000000000002,0.4053,-0.51338,18.5,0,1128,632,352,1763,26.5594921875,33919,18.933828279236252,999.2137537703089,0,,,,N/A
2024-03-17T16:20:06,-0.32303105099999996,0.21296121140000002,10.0701939121,0.04077525464971753,-0.0024434609527920616,-0.047952921198544204,0.032060000000000005,0.4151,-0.4974200000000001,18.5,0,1128,632,352,1763,26.706953125,36563,18.90112322073958,999.2232126264587,0,,,,N/A
2024-03-17T16:20:06,-0.28175486115,0.25722842949999997,9.999007439749999,0.036804630601430424,-0.003207042500539581,-0.04581489286485116,0.02254,0.41286,-0.5103000000000001,18.5,0,1128,632,352,1763,26.706953125,36563,18.90112322073958,999.2232126264587,0,,,,N/A
2024-03-17T16:20:06,-0.31046873235,0.20638094924999997,10.071390323399998,0.041080687268816536,-0.002138028333693054,-0.041844268816564056,0.02254,0.41286,-0.5103000000000001,18.5,0,1128,632,352,1763,26.706953125,36563,18.90112322073958,999.2232126264587,0,,,,N/A
2024-03-17T16:20:06,-0.30927232104999997,0.20937197749999997,10.078568791199999,0.041691552507014555,-0.004886921905584123,-0.04612032548395016,0.030940000000000002,0.42182000000000003,-0.50778,18.5,0,1128,632,352,1763,26.706953125,36563,18.90112322073958,999.2232126264587,0,,,,N/A
2024-03-17T16:20:06,-0.4019941968,0.19142580799999998,10.076175968599998,0.04260785036431157,-0.0003054326190990077,-0.04535674393620265,0.02142,0.4148200000000001,-0.50904,18.5,0,1128,632,352,1763,26.706953125,36563,18.90112322073958,999.2232126264587,0,,,,N/A
2024-03-17T16:20:06,-0.37268211995,0.1950150419,10.1120683076,0.038484510006474966,-0.0027488935718910697,-0.04917465167494024,0.02142,0.4148200000000001,-0.50904,18.5,0,1128,632,352,1763,26.706953125,36563,18.90112322073958,999.2232126264587,0,,,,N/A
2024-03-17T16:20:06,-0.38943187814999997,0.20997018315,10.1168539528,0.038179077387375956,-0.004123340357836604,-0.04810563750809371,0.018340000000000002,0.42322000000000004,-0.50568,18.5,0,1128,632,352,1763,26.8344921875,39357,18.877566619573653,999.2252021020594,0,,,,N/A
2024-03-17T16:20:06,-0.30867411539999995,0.24825534474999997,10.150951674849997,0.039858956792420505,0.0003054326190990077,-0.04505131131710364,0.02562,0.41594000000000003,-0.5026,18.5,0,1128,632,352,1763,26.8344921875,39357,18.877566619573653,999.2252021020594,0,,,,N/A
2024-03-17T16:20:06,-0.3415754261499999,0.20937197749999997,10.0953185494,0.04092797095926703,-0.001069014166846527,-0.04550946024575215,0.032900000000000006,0.40978000000000003,-0.5184200000000001,18.5,0,1128,632,352,1763,26.8344921875,39357,18.877566619573653,999.2252021020594,0,,,,N/A
2024-03-17T16:20:06,-0.36729826909999996,0.22612173569999997,10.127023448849998,0.041691552507014555,-0.0012217304763960308,-0.0476474885794452,0.032900000000000006,0.40978000000000003,-0.5184200000000001,18.5,0,1128,632,352,1763,26.8344921875,39357,18.877566619573653,999.2252021020594,0,,,,N/A
2024-03-17T16:20:06,-0.33020951879999993,0.19621145319999997,10.066006472549999,0.0433714319120591,-0.0018325957145940463,-0.04718933965079669,0.028140000000000005,0.41370000000000007,-0.50456,18.5,0,1128,632,352,1763,26.8344921875,39357,18.877566619573653,999.2252021020594,0,,,,N/A
2024-03-17T16:20:06,-0.35234312785,0.21954147355,10.033105161799998,0.041996985126113565,-0.0009162978572970231,-0.04688390703169768,0.032900000000000006,0.41370000000000007,-0.52612,18.5,0,1128,632,352,1763,26.8344921875,39357,18.877566619573653,999.2252021020594,0,,,,N/A
2024-03-17T16:20:06,-0.31465617189999995,0.23150558654999998,10.094720343749998,0.03756821214917795,-0.003054326190990077,-0.04886921905584123,0.032900000000000006,0.41370000000000007,-0.52612,18.5,0,1128,632,352,1763,26.8344921875,39357,18.877566619573653,999.2252021020594,0,,,,N/A
2024-03-17T16:20:06,-0.33858439789999994,0.22791635265,10.0953185494,0.038331793696925465,-0.0018325957145940463,-0.04703662334124718,0.02478,0.41958000000000006,-0.51632,18.5,0,1128,632,352,1763,26.9462109375,41978,18.842791637316015,999.2317674242255,0,,,,N/A
2024-03-17T16:20:07,-0.3720839143,0.19621145319999997,10.155139114399999,0.03665191429188092,0.0007635815477475193,-0.04505131131710364,0.03178,0.42210000000000003,-0.5216400000000001,18.5,0,1128,632,352,1763,26.9462109375,41978,18.842791637316015,999.2317674242255,0,,,,N/A
2024-03-17T16:20:07,-0.28893332894999996,0.20518453794999997,10.1072826624,0.04230241774521256,0.00045814892864851157,-0.04627304179349966,0.03122,0.4207,-0.52402,18.5,0,1128,632,352,1763,26.9462109375,41978,18.842791637316015,999.2317674242255,0,,,,N/A
2024-03-17T16:20:07,-0.29371897415,0.2165504453,10.073783145999998,0.03924809155422249,0.0013744467859455349,-0.0476474885794452,0.037380000000000004,0.42098,-0.5108600000000001,18.5,0,1128,632,352,1763,26.9462109375,41978,18.842791637316015,999.2317674242255,0,,,,N/A
2024-03-17T16:20:07,-0.35593236175,0.21954147355,10.0749795573,0.03665191429188092,-0.0018325957145940463,-0.04535674393620265,0.037380000000000004,0.42098,-0.5108600000000001,18.5,0,1128,632,352,1763,26.9462109375,41978,18.842791637316015,999.2317674242255,0,,,,N/A
2024-03-17T16:20:07,-0.33678978094999995,0.2309073809,10.076175968599998,0.03726277953007894,0.001069014166846527,-0.04612032548395016,0.027300000000000005,0.4207,-0.51898,18.5,0,1128,632,352,1763,26.9462109375,41978,18.842791637316015,999.2317674242255,0,,,,N/A
2024-03-17T16:20:07,-0.31884361145,0.21714865095,10.1132647189,0.041386119887915546,-0.0018325957145940463,-0.04474587869800463,0.03122,0.4142600000000001,-0.5054000000000001,18.5,0,1128,632,352,1763,27.04328125,44359,18.80201954215761,999.2359119305712,0,,,,N/A
2024-03-17T16:20:07,-0.30508488149999996,0.19860427579999998,10.016953609249999,0.038637226316024474,-0.0018325957145940463,-0.04489859500755413,0.02646,0.41594000000000003,-0.5112800000000001,18.5,0,1128,632,352,1763,27.04328125,44359,18.80201954215761,999.2359119305712,0,,,,N/A
2024-03-17T16:20:07,-0.31884361145,0.20518453794999997,10.11386292455,0.038179077387375956,-0.004123340357836604,-0.04535674393620265,0.028980000000000002,0.41258000000000006,-0.51786,18.5,0,1128,632,352,1763,27.04328125,44359,18.80201954215761,999.2359119305712,0,,,,N/A
2024-03-17T16:20:07,-0.39361931769999997,0.2225325018,10.11386292455,0.041996985126113565,-0.0006108652381980154,-0.04474587869800463,0.028980000000000002,0.41258000000000006,-0.51786,18.5,0,1128,632,352,1763,27.04328125,44359,18.80201954215761,999.2359119305712,0,,,,N/A
2024-03-17T16:20:07,-0.37447673689999994,0.2177468566,10.02652489965,0.04016438941151951,-0.002901609881440573,-0.04230241774521256,0.021700000000000004,0.41874000000000006,-0.5033000000000001,18.5,0,1128,632,352,1763,27.04328125,44359,18.80201954215761,999.2359119305712,0,,,,N/A
2024-03-17T16:20:07,-0.3176472001499999,0.21475582835,10.2376914941,0.036499197982331415,-0.0007635815477475193,-0.04780020488899471,0.03178,0.40754,-0.50904,18.5,0,1128,632,352,1763,27.04328125,44359,18.80201954215761,999.2359119305712,0,,,,N/A
2024-03-17T16:20:07,-0.33140593009999997,0.2069791549,10.085747258999998,0.043676864531158106,-0.003054326190990077,-0.048411070127192715,0.03178,0.40754,-0.50904,18.5,0,1128,632,352,1763,27.12921875,46922,18.74000939269079,999.2397913744998,0,,,,N/A
2024-03-17T16:20:07,-0.36729826909999996,0.18544375149999998,10.0462656861,0.041996985126113565,-0.0018325957145940463,-0.04734205596034619,0.026740000000000003,0.41902000000000006,-0.5027400000000001,18.5,0,1128,632,352,1763,27.12921875,46922,18.74000939269079,999.2397913744998,0,,,,N/A
2024-03-17T16:20:07,-0.32422746229999994,0.19142580799999998,10.1120683076,0.04245513405476207,-0.0003054326190990077,-0.04612032548395016,0.02758,0.41342,-0.5114200000000001,18.5,0,1128,632,352,1763,27.12921875,46922,18.74000939269079,999.2397913744998,0,,,,N/A
2024-03-17T16:20:07,-0.2955135911,0.22013967919999997,10.076175968599998,0.040622538340168025,-0.005345070834232635,-0.048258353817643214,0.028980000000000002,0.41986,-0.51114,18.5,0,1128,632,352,1763,27.12921875,46922,18.74000939269079,999.2397913744998,0,,,,N/A
2024-03-17T16:20:07,-0.3296113131499999,0.20817556619999997,10.105488045449999,0.041996985126113565,-0.0025961772623415654,-0.04673119072214818,0.028980000000000002,0.41986,-0.51114,18.5,0,1128,632,352,1763,27.12921875,46922,18.74000939269079,999.2397913744998,0,,,,N/A
2024-03-17T16:20:07,-0.33678978094999995,0.23210379219999996,10.024730282699998,0.039553524173321496,-0.003207042500539581,-0.048411070127192715,0.032060000000000005,0.41342,-0.52192,18.5,0,1128,632,352,1763,27.12921875,46922,18.74000939269079,999.2397913744998,0,,,,N/A
2024-03-17T16:20:07,-0.3397808092,0.24107687694999996,10.07557776295,0.04230241774521256,-0.003207042500539581,-0.04657847441259867,0.03486000000000001,0.42518000000000006,-0.51604,18.5,0,1128,632,352,1763,27.2048046875,49773,18.698007038042302,999.2429012301378,0,,,,N/A
2024-03-17T16:20:07,-0.346959277,0.20518453794999997,10.07916699685,0.04046982203061852,-0.001069014166846527,-0.04657847441259867,0.03374,0.41846000000000005,-0.5231800000000001,18.5,0,1128,632,352,1763,27.2048046875,49773,18.698007038042302,999.2429012301378,0,,,,N/A
2024-03-17T16:20:07,-0.3337987527,0.2237289131,10.1024970172,0.039858956792420505,-0.002138028333693054,-0.04627304179349966,0.027020000000000002,0.41678000000000004,-0.51114,18.5,0,1128,632,352,1763,27.2048046875,49773,18.698007038042302,999.2429012301378,0,,,,N/A
2024-03-17T16:20:07,-0.3397808092,0.19381863059999999,10.10309522285,0.04046982203061852,-0.0019853120241435504,-0.04612032548395016,0.02562,0.42238000000000003,-0.5124000000000001,18.5,0,1128,632,352,1763,27.2048046875,49773,18.698007038042302,999.2429012301378,0,,,,N/A
2024-03-17T16:20:07,-0.35114671655,0.20219350969999997,10.04207824655,0.04016438941151951,-0.002901609881440573,-0.0474947722698957,0.027860000000000003,0.41678000000000004,-0.5091800000000001,18.5,0,1128,632,352,1763,27.2048046875,49773,18.698007038042302,999.2429012301378,0,,,,N/A
2024-03-17T16:20:07,-0.35832518435,0.20338992099999997,10.1048898398,0.04581489286485116,-0.005039638215133627,-0.04718933965079669,0.027860000000000003,0.41678000000000004,-0.5091800000000001,18.5,0,1128,632,352,1763,27.2048046875,49773,18.698007038042302,999.2429012301378,0,,,,N/A
2024-03-17T16:20:07,-0.1950150419,0.20757736054999998,10.0905329042,0.038484510006474966,0.038789942625573975,-0.04596760917440065,0.03402,0.41622000000000003,-0.5230400000000001,18.5,0,1128,632,352,1763,27.2719921875,51694,18.645232780448794,999.2484224957782,0,,,,N/A
2024-03-17T16:20:07,-0.33140593009999997,0.22432711874999997,10.033105161799998,0.043982297150257116,0.0003054326190990077,-0.04459316238845512,0.02926,0.41650000000000004,-0.5017600000000001,18.5,0,1128,632,352,1763,27.2719921875,51694,18.645232780448794,999.2484224957782,0,,,,N/A
2024-03-17T16:20:07,-0.34636107135,0.20757736054999998,10.111470101950001,0.039706240482871004,-0.002901609881440573,-0.0474947722698957,0.02926,0.41650000000000004,-0.5017600000000001,18.5,0,1128,632,352,1763,27.2719921875,51694,18.645232780448794,999.2484224957782,0,,,,N/A
2024-03-17T16:20:07,-0.3176472001499999,0.19740786449999997,10.0773723799,0.04260785036431157,0.0003054326190990077,-0.04230241774521256,0.032060000000000005,0.41342,-0.5070800000000001,18.5,0,1128,632,352,1763,27.2719921875,51694,18.645232780448794,999.2484224957782,0,,,,N/A
2024-03-17T16:20:07,-0.3415754261499999,0.20877377184999998,10.131809094049999,0.04321871560250959,-0.002901609881440573,-0.04550946024575215,0.030100000000000002,0.41706000000000004,-0.50134,18.5,0,1128,632,352,1763,27.2719921875,51694,18.645232780448794,999.2484224957782,0,,,,N/A
2024-03-17T16:20:07,-0.3756731482,0.21116659445,10.078568791199999,0.04413501345980661,-0.002138028333693054,-0.04520402762665314,0.03654,0.40950000000000003,-0.5118400000000001,18.5,0,1128,632,352,1763,27.2719921875,51694,18.645232780448794,999.2484224957782,0,,,,N/A
2024-03-17T16:20:07,-0.33738798659999997,0.20817556619999997,10.137192944899999,0.041996985126113565,-0.0036651914291880926,-0.04245513405476207,0.023100000000000002,0.41762000000000005,-0.5103000000000001,18.5,0,1128,632,352,1763,27.331953125,54114,18.597199685094076,999.2511223450779,0,,,,N/A
2024-03-17T16:20:07,-0.28295127244999996,0.18963119104999998,10.094720343749998,0.040317105721069016,-0.002901609881440573,-0.04474587869800463,0.03654,0.41314000000000006,-0.51646,18.5,0,1129,633,352,1763,27.331953125,54114,18.597199685094076,999.2511223450779,0,,,,N/A
2024-03-17T16:20:07,-0.32482566794999995,0.20638094924999997,10.0845508477,0.0433714319120591,-0.0016798794050445422,-0.04673119072214818,0.03178,0.41006000000000004,-0.50834,18.5,0,1129,633,352,1763,27.331953125,54114,18.597199685094076,999.2511223450779,0,,,,N/A
2024-03-17T16:20:07,-0.34217363179999993,0.22492532440000002,10.098907783299998,0.03588833274413341,-0.0003054326190990077,-0.04444044607890562,0.03654,0.4081,-0.51268,18.5,0,1129,633,352,1763,27.331953125,54114,18.597199685094076,999.2511223450779,0,,,,N/A
2024-03-17T16:20:08,-0.31824540579999994,0.2237289131,10.127621654499999,0.04444044607890562,-0.003054326190990077,-0.04520402762665314,0.03654,0.4081,-0.51268,18.5,0,1129,633,352,1763,27.331953125,54114,18.597199685094076,999.2511223450779,0,,,,N/A
2024-03-17T16:20:08,-0.2739781877,0.21714865095,10.094720343749998,0.04016438941151951,-0.003970624048287101,-0.04428772976935611,0.030100000000000002,0.4148200000000001,-0.50554,18.5,0,1129,633,352,1763,27.331953125,54114,18.597199685094076,999.2511223450779,0,,,,N/A
2024-03-17T16:20:08,-0.34277183744999995,0.21236300575,10.0845508477,0.040317105721069016,-0.001069014166846527,-0.04978551691313826,0.034300000000000004,0.41930000000000006,-0.50666,18.5,0,1129,633,352,1763,27.3860546875,56168,18.553983853988967,999.253225075665,0,,,,N/A
2024-03-17T16:20:08,-0.36550365214999997,0.20279171534999998,10.006185907549998,0.04123340357836604,-0.004886921905584123,-0.04963280060358875,0.038500000000000006,0.41986,-0.50988,18.5,0,1129,633,352,1763,27.3860546875,56168,18.553983853988967,999.253225075665,0,,,,N/A
2024-03-17T16:20:08,-0.3272184905499999,0.20877377184999998,10.2376914941,0.03787364476827696,-0.0009162978572970231,-0.043982297150257116,0.038500000000000006,0.41986,-0.50988,18.5,0,1129,633,352,1763,27.3860546875,56168,18.553983853988967,999.253225075665,0,,,,N/A
2024-03-17T16:20:08,-0.3439682487499999,0.21834506225,10.08036340815,0.038942658935123484,-0.0015271630954950385,-0.041996985126113565,0.02758,0.41146000000000005,-0.51786,18.5,0,1129,633,352,1763,27.3860546875,56168,18.553983853988967,999.253225075665,0,,,,N/A
2024-03-17T16:20:08,-0.3397808092,0.21116659445,10.100702400249999,0.04291328298341058,-0.0003054326190990077,-0.04612032548395016,0.025900000000000003,0.42798,-0.5048400000000001,18.5,0,1129,633,352,1763,27.3860546875,56168,18.553983853988967,999.253225075665,0,,,,N/A
2024-03-17T16:20:08,-0.37986058775,0.20997018315,10.085149053349998,0.04627304179349966,-0.004123340357836604,-0.04459316238845512,0.029540000000000004,0.41286,-0.51002,18.5,0,1129,633,352,1763,27.3860546875,56168,18.553983853988967,999.253225075665,0,,,,N/A
2024-03-17T16:20:08,-0.30508488149999996,0.20817556619999997,10.06839929515,0.039553524173321496,-0.0025961772623415654,-0.04703662334124718,0.029540000000000004,0.41286,-0.51002,18.5,0,1129,633,352,1763,27.435859375,58626,18.495102484864386,999.2554848793034,0,,,,N/A
2024-03-17T16:20:08,-0.2524427843,0.22073788485,10.110871896299999,0.041844268816564056,-0.00045814892864851157,-0.048716502746291725,0.03318,0.42378000000000005,-0.5065200000000001,18.5,0,1129,633,352,1763,27.435859375,58626,18.495102484864386,999.2554848793034,0,,,,N/A
2024-03-17T16:20:08,-0.3397808092,0.2225325018,10.088140081599997,0.038331793696925465,-0.00473420559603462,-0.04489859500755413,0.03318,0.42378000000000005,-0.5065200000000001,18.5,0,1129,633,352,1763,27.435859375,58626,18.495102484864386,999.2554848793034,0,,,,N/A
2024-03-17T16:20:08,-0.37686955949999995,0.22313070744999997,9.976873830699999,0.041844268816564056,-0.00473420559603462,-0.0476474885794452,0.026180000000000002,0.42518000000000006,-0.5117,18.5,0,1129,633,352,1763,27.435859375,58626,18.495102484864386,999.2554848793034,0,,,,N/A
2024-03-17T16:20:08,-0.32901310749999996,0.24646072779999997,10.071988529050001,0.04123340357836604,-0.001069014166846527,-0.04505131131710364,0.028140000000000005,0.41286,-0.5054000000000001,18.5,0,1129,633,352,1763,27.435859375,58626,18.495102484864386,999.2554848793034,0,,,,N/A
2024-03-17T16:20:08,-0.33200413574999993,0.22193429615000002,10.158130142649997,0.041080687268816536,-0.0025961772623415654,-0.04230241774521256,0.023660000000000004,0.41706000000000004,-0.5114200000000001,18.5,0,1129,633,352,1763,27.435859375,58626,18.495102484864386,999.2554848793034,0,,,,N/A
2024-03-17T16:20:08,-0.29970103065,0.21116659445,10.07438135165,0.04291328298341058,-0.0019853120241435504,-0.04978551691313826,0.023660000000000004,0.41706000000000004,-0.5114200000000001,18.5,0,1129,633,352,1763,27.4813671875,60868,18.45141474717368,999.2561183618923,0,,,,N/A
2024-03-17T16:20:08,-0.3493520996,0.20458633229999998,10.097113166349997,0.039095375244672985,0.003054326190990077,-0.04474587869800463,0.027300000000000005,0.41762000000000005,-0.49938000000000005,18.5,0,1129,633,352,1763,27.4813671875,60868,18.45141474717368,999.2561183618923,0,,,,N/A
2024-03-17T16:20:08,-0.3062812928,0.24526431649999997,10.073783145999998,0.039706240482871004,-0.0038179077387375964,-0.04734205596034619,0.033460000000000004,0.4123,-0.50148,18.5,0,1129,633,352,1763,27.4813671875,60868,18.45141474717368,999.2561183618923,0,,,,N/A
2024-03-17T16:20:08,-0.32004002274999993,0.22313070744999997,10.0414800409,0.04077525464971753,-0.004581489286485115,-0.047952921198544204,0.03626000000000001,0.41846000000000005,-0.5138,18.5,0,1129,633,352,1763,27.4813671875,60868,18.45141474717368,999.2561183618923,0,,,,N/A
2024-03-17T16:20:08,-0.36789647475,0.215354034,10.07557776295,0.04001167310197001,-0.0019853120241435504,-0.04444044607890562,0.03626000000000001,0.41846000000000005,-0.5138,18.5,0,1129,633,352,1763,27.4813671875,60868,18.45141474717368,999.2561183618923,0,,,,N/A
2024-03-17T16:20:08,-0.32422746229999994,0.21116659445,10.097711372000001,0.04382958084070761,-0.0024434609527920616,-0.047952921198544204,0.022820000000000003,0.41454,-0.50302,18.5,0,1129,633,352,1763,27.4813671875,60868,18.45141474717368,999.2561183618923,0,,,,N/A
2024-03-17T16:20:08,-0.32422746229999994,0.2177468566,10.08395264205,0.04214970143566306,-0.004276056667386108,-0.04566217655530165,0.026740000000000003,0.41258000000000006,-0.50736,18.5,0,1128,633,352,1763,27.5221875,62770,18.41260837018865,999.2527074255482,0,,,,N/A
2024-03-17T16:20:08,-0.33260234139999995,0.20398812665,10.0115697584,0.041080687268816536,-0.0007635815477475193,-0.04627304179349966,0.03542,0.41090000000000004,-0.51688,18.5,0,1128,633,352,1763,27.5221875,62770,18.41260837018865,999.2527074255482,0,,,,N/A
2024-03-17T16:20:08,-0.34337004309999997,0.22731814699999997,10.1001041946,0.041844268816564056,-0.0035124751196385882,-0.04886921905584123,0.03542,0.41090000000000004,-0.51688,18.5,0,1128,633,352,1763,27.5221875,62770,18.41260837018865,999.2527074255482,0,,,,N/A
2024-03-17T16:20:08,-0.30927232104999997,0.21475582835,10.09950598895,0.03726277953007894,-0.003054326190990077,-0.04734205596034619,0.027020000000000002,0.41790000000000005,-0.4904200000000001,18.5,0,1128,633,352,1763,27.5221875,62770,18.41260837018865,999.2527074255482,0,,,,N/A
2024-03-17T16:20:08,-0.3278166962,0.19980068709999999,10.12941627145,0.03802636107782646,-0.0018325957145940463,-0.04230241774521256,0.034300000000000004,0.41846000000000005,-0.50358,18.5,0,1128,633,352,1763,27.5221875,62770,18.41260837018865,999.2527074255482,0,,,,N/A
2024-03-17T16:20:08,-0.3236292566499999,0.21714865095,10.121639597999998,0.04230241774521256,-0.0036651914291880926,-0.047952921198544204,0.02842,0.41174000000000005,-0.5048400000000001,18.5,0,1128,633,352,1763,27.5221875,62770,18.41260837018865,999.2527074255482,0,,,,N/A
2024-03-17T16:20:08,-0.31824540579999994,0.20458633229999998,10.141380384449999,0.041996985126113565,-0.003970624048287101,-0.04642575810304917,0.02842,0.41174000000000005,-0.5048400000000001,18.5,0,1128,633,352,1763,27.5622265625,65044,18.358349853681286,999.2462342339377,0,,,,N/A
2024-03-17T16:20:08,-0.3236292566499999,0.2177468566,10.043274657849999,0.041386119887915546,-0.0044287729769356115,-0.04428772976935611,0.027300000000000005,0.41762000000000005,-0.51744,18.5,0,1128,633,352,1763,27.5622265625,65044,18.358349853681286,999.2462342339377,0,,,,N/A
2024-03-17T16:20:08,-0.3332005470499999,0.20877377184999998,10.109077279349998,0.04230241774521256,0.00015271630954950385,-0.0476474885794452,0.030380000000000004,0.42742,-0.50512,18.5,0,1128,633,352,1763,27.5622265625,65044,18.358349853681286,999.2462342339377,0,,,,N/A
2024-03-17T16:20:08,-0.32243284534999994,0.19680965884999999,10.088738287249999,0.041386119887915546,-0.0033597588100890844,-0.052839843104128335,0.030380000000000004,0.42742,-0.50512,18.5,0,1128,633,352,1763,27.5622265625,65044,18.358349853681286,999.2462342339377,0,,,,N/A
2024-03-17T16:20:08,-0.3696910917,0.18424734019999997,10.14018397315,0.04046982203061852,0.0003054326190990077,-0.041844268816564056,0.02758,0.4151,-0.49994000000000005,18.5,0,1128,633,352,1763,27.5622265625,65044,18.358349853681286,999.2462342339377,0,,,,N/A
2024-03-17T16:20:08,-0.346959277,0.22073788485,10.071988529050001,0.039095375244672985,-0.0007635815477475193,-0.04444044607890562,0.024500000000000004,0.41566000000000003,-0.5122600000000002,18.5,0,1128,633,352,1763,27.5622265625,65044,18.358349853681286,999.2462342339377,0,,,,N/A
2024-03-17T16:20:08,-0.32602207924999993,0.21954147355,10.101300605899999,0.038484510006474966,-0.00473420559603462,-0.04382958084070761,0.024500000000000004,0.41566000000000003,-0.5122600000000002,18.5,0,1128,633,352,1763,27.599140625,67167,18.29879469725966,999.2471876318965,0,,,,N/A
2024-03-17T16:20:09,-0.3062812928,0.23808584869999996,10.076774174250001,0.0355829001250344,-0.003054326190990077,-0.04260785036431157,0.023100000000000002,0.42182000000000003,-0.5000800000000001,18.5,0,1128,633,352,1763,27.599140625,67167,18.29879469725966,999.2471876318965,0,,,,N/A
2024-03-17T16:20:09,-0.3332005470499999,0.20159530404999998,10.001998467999998,0.043676864531158106,-0.0003054326190990077,-0.04260785036431157,0.032060000000000005,0.41202000000000005,-0.49896,18.5,0,1128,633,352,1763,27.599140625,67167,18.29879469725966,999.2471876318965,0,,,,N/A
2024-03-17T16:20:09,-0.36191441825,0.18843477974999998,10.094720343749998,0.04001167310197001,-0.0025961772623415654,-0.04596760917440065,0.026740000000000003,0.41762000000000005,-0.5054000000000001,18.5,0,1128,633,352,1763,27.599140625,67167,18.29879469725966,999.2471876318965,0,,,,N/A
2024-03-17T16:20:09,-0.33439695834999994,0.215354034,10.100702400249999,0.04123340357836604,0.0018325957145940463,-0.04459316238845512,0.026740000000000003,0.41762000000000005,-0.5054000000000001,18.5,0,1128,633,352,1763,27.599140625,67167,18.29879469725966,999.2471876318965,0,,,,N/A
2024-03-17T16:20:09,-0.29730820804999997,0.23449661479999998,10.085747258999998,0.04321871560250959,-0.0019853120241435504,-0.04810563750809371,0.025060000000000002,0.42294000000000004,-0.5129600000000001,18.5,0,1128,633,352,1763,27.599140625,67167,18.29879469725966,999.2471876318965,0,,,,N/A
2024-03-17T16:20:09,-0.18544375149999998,0.23509482044999996,10.0115697584,0.03726277953007894,-0.0022907446432425577,-0.0474947722698957,0.02338,0.41790000000000005,-0.5010600000000001,18.5,0,1128,633,352,1763,27.633515625,68866,18.25451773556402,999.2511612958853,0,,,,N/A
2024-03-17T16:20:09,-0.37148570864999997,0.22313070744999997,10.104291634149998,0.04153883619746505,-0.00473420559603462,-0.047952921198544204,0.025060000000000002,0.41258000000000006,-0.50988,18.5,0,1128,633,352,1763,27.633515625,68866,18.25451773556402,999.2511612958853,0,,,,N/A
2024-03-17T16:20:09,-0.43728833014999996,0.2009970984,10.070792117749999,0.039858956792420505,-0.0013744467859455349,-0.04856378643674222,0.025060000000000002,0.41258000000000006,-0.50988,18.5,0,1128,633,352,1763,27.633515625,68866,18.25451773556402,999.2511612958853,0,,,,N/A
2024-03-17T16:20:09,-0.34277183744999995,0.21355941705,10.195218892949999,0.038331793696925465,-0.0015271630954950385,-0.043982297150257116,0.03514,0.42602000000000007,-0.50624,18.5,0,1128,633,352,1763,27.633515625,68866,18.25451773556402,999.2511612958853,0,,,,N/A
2024-03-17T16:20:09,-0.34875389395,0.23808584869999996,10.094720343749998,0.04505131131710364,-0.00595593607243065,-0.04474587869800463,0.027860000000000003,0.41258000000000006,-0.50722,18.5,0,1128,633,352,1763,27.633515625,68866,18.25451773556402,999.2511612958853,0,,,,N/A
2024-03-17T16:20:09,-0.31106693799999996,0.21296121140000002,10.0534441539,0.03772092845872745,-0.0019853120241435504,-0.0476474885794452,0.024220000000000002,0.41174000000000005,-0.49364,18.5,0,1128,633,352,1764,27.633515625,68866,18.25451773556402,999.2511612958853,0,,,,N/A
2024-03-17T16:20:09,-0.3505485109,0.23150558654999998,10.1024970172,0.03634648167278191,-0.0019853120241435504,-0.037110063220529434,0.024220000000000002,0.41118000000000005,-0.51156,18.5,0,1128,633,352,1764,27.6653515625,71251,18.2049756407602,999.2492230772773,0,,,,N/A
2024-03-17T16:20:09,-0.30927232104999997,0.23210379219999996,10.112666513249998,0.037110063220529434,-0.003970624048287101,-0.04581489286485116,0.024220000000000002,0.41874000000000006,-0.49966000000000005,18.5,0,1128,633,352,1764,27.6653515625,71251,18.2049756407602,999.2492230772773,0,,,,N/A
2024-03-17T16:20:09,-0.32542387359999997,0.20159530404999998,10.085747258999998,0.041691552507014555,-0.0007635815477475193,-0.04612032548395016,0.02842,0.41930000000000006,-0.51646,18.5,0,1128,633,352,1764,27.6653515625,71251,18.2049756407602,999.2492230772773,0,,,,N/A
2024-03-17T16:20:09,-0.30807590975,0.23150558654999998,10.03848901265,0.04276056667386108,-0.0012217304763960308,-0.043982297150257116,0.02842,0.41930000000000006,-0.51646,18.5,0,1128,633,352,1764,27.6653515625,71251,18.2049756407602,999.2492230772773,0,,,,N/A
2024-03-17T16:20:09,-0.29371897415,0.23030917524999997,10.0941221381,0.04123340357836604,-0.0022907446432425577,-0.04520402762665314,0.02562,0.41734000000000004,-0.49140000000000006,18.5,0,1128,633,352,1764,27.6653515625,71251,18.2049756407602,999.2492230772773,0,,,,N/A
2024-03-17T16:20:09,-0.33140593009999997,0.20039889274999997,10.148558852249998,0.036499197982331415,-0.0033597588100890844,-0.047952921198544204,0.025900000000000003,0.41986,-0.5161800000000001,18.5,0,1128,633,352,1764,27.6653515625,71251,18.2049756407602,999.2492230772773,0,,,,N/A
2024-03-17T16:20:09,-0.29012974025,0.20398812665,10.11864856975,0.04306599929296009,-0.0015271630954950385,-0.04581489286485116,0.03486000000000001,0.42126,-0.51632,18.5,0,1128,633,352,1764,27.6962109375,73039,18.15539244329118,999.2403349954991,0,,,,N/A
2024-03-17T16:20:09,-0.3278166962,0.215354034,10.097113166349997,0.04001167310197001,-0.0016798794050445422,-0.039706240482871004,0.028700000000000003,0.4207,-0.50624,18.5,0,1128,633,352,1764,27.6962109375,73039,18.15539244329118,999.2403349954991,0,,,,N/A
2024-03-17T16:20:10,-0.35593236175,0.21236300575,10.111470101950001,0.04276056667386108,-0.0019853120241435504,-0.047952921198544204,0.028700000000000003,0.41790000000000005,-0.5157600000000001,18.5,0,1128,633,352,1764,27.6962109375,73039,18.15539244329118,999.2403349954991,0,,,,N/A
2024-03-17T16:20:10,-0.33140593009999997,0.20518453794999997,10.082756230749998,0.038179077387375956,-0.0007635815477475193,-0.04520402762665314,0.027300000000000005,0.4207,-0.50904,18.5,0,1128,633,352,1764,27.6962109375,73039,18.15539244329118,999.2403349954991,0,,,,N/A
2024-03-17T16:20:10,-0.30807590975,0.21834506225,10.091729315499999,0.04413501345980661,-0.0018325957145940463,-0.04550946024575215,0.037380000000000004,0.41594000000000003,-0.51268,18.5,0,1128,633,352,1764,27.6962109375,73039,18.15539244329118,999.2403349954991,0,,,,N/A
2024-03-17T16:20:10,-0.33678978094999995,0.22013967919999997,10.083354436399997,0.04382958084070761,-0.001069014166846527,-0.04734205596034619,0.037380000000000004,0.41594000000000003,-0.51268,18.5,0,1128,633,352,1764,27.6962109375,73039,18.15539244329118,999.2403349954991,0,,,,N/A
2024-03-17T16:20:10,-0.3505485109,0.20578274359999998,10.068997500799998,0.04382958084070761,-0.002901609881440573,-0.04886921905584123,0.026740000000000003,0.43022000000000005,-0.5124000000000001,18.5,0,1128,633,352,1764,27.21125,67489,17.85705254343033,999.2533661953291,0,,,,N/A
2024-03-17T16:20:10,-0.33738798659999997,0.19082760235,10.0893364929,0.038179077387375956,-0.0070249502392771765,-0.043676864531158106,0.023100000000000002,0.41398,-0.50932,18.5,0,1128,633,352,1764,26.970625,72725,17.838726615950453,999.221443749487,0,,,,N/A
2024-03-17T16:20:10,-0.32243284534999994,0.21834506225,10.2460663732,0.04230241774521256,0.0006108652381980154,-0.04489859500755413,0.03878,0.41902000000000006,-0.50624,18.5,0,1128,633,352,1764,26.970625,72725,17.838726615950453,999.221443749487,0,,,,N/A
2024-03-17T16:20:10,-0.3493520996,0.22013967919999997,10.097711372000001,0.04291328298341058,-0.0035124751196385882,-0.043982297150257116,0.025060000000000002,0.41314000000000006,-0.50946,18.5,0,1128,633,352,1764,26.970625,72725,17.838726615950453,999.221443749487,0,,,,N/A
2024-03-17T16:20:11,-0.35772697870000003,0.23030917524999997,10.185647602549999,0.03726277953007894,0.001069014166846527,-0.04810563750809371,0.03458000000000001,0.41790000000000005,-0.49896,18.5,0,1128,633,352,1764,26.970625,72725,17.838726615950453,999.221443749487,0,,,,N/A
2024-03-17T16:20:11,-0.3553341561,0.22791635265,10.043274657849999,0.04230241774521256,-0.0035124751196385882,-0.04428772976935611,0.03458000000000001,0.41790000000000005,-0.49896,18.5,0,1128,633,352,1764,26.970625,72725,17.838726615950453,999.221443749487,0,,,,N/A
2024-03-17T16:20:11,-0.33858439789999994,0.22671994134999998,10.1048898398,0.043982297150257116,-0.0035124751196385882,-0.04413501345980661,0.021700000000000004,0.42406000000000005,-0.50316,18.5,0,1128,633,352,1763,26.4559765625,68586,17.576149504400625,999.2292511822914,0,,,,N/A
2024-03-17T16:20:11,-0.24825534474999997,0.19441683624999997,10.173085283899999,0.04001167310197001,0.0,-0.04642575810304917,0.02926,0.42210000000000003,-0.52332,18.5,0,1128,633,352,1763,26.4559765625,68586,17.576149504400625,999.2292511822914,0,,,,N/A
2024-03-17T16:20:11,-0.33439695834999994,0.2225325018,10.085149053349998,0.03588833274413341,-0.003970624048287101,-0.0474947722698957,0.034300000000000004,0.41902000000000006,-0.5091800000000001,18.5,0,1128,633,352,1763,26.4559765625,68586,17.576149504400625,999.2292511822914,0,,,,N/A
2024-03-17T16:20:12,-0.2536391956,0.23569302609999998,10.08036340815,0.04291328298341058,-0.0033597588100890844,-0.043982297150257116,0.034300000000000004,0.41902000000000006,-0.5091800000000001,18.5,0,1128,633,352,1763,26.4559765625,68586,17.576149504400625,999.2292511822914,0,,,,N/A
2024-03-17T16:20:12,-0.3565305674,0.20458633229999998,10.1001041946,0.038331793696925465,-0.0012217304763960308,-0.04642575810304917,0.032900000000000006,0.41874000000000006,-0.51156,18.5,0,1128,633,352,1763,26.4559765625,68586,17.576149504400625,999.2292511822914,0,,,,N/A
2024-03-17T16:20:12,-0.27816562724999994,0.2117648001,10.021739254449999,0.039095375244672985,0.0007635815477475193,-0.04657847441259867,0.02562,0.42154,-0.5075000000000001,18.5,0,1129,633,352,1764,25.939765625,66322,17.42643465142542,999.2315457678133,0,,,,N/A
2024-03-17T16:20:12,-0.3720839143,0.22013967919999997,10.1120683076,0.03924809155422249,-0.0018325957145940463,-0.04688390703169768,0.03262,0.41678000000000004,-0.51492,18.5,0,1129,633,352,1764,25.939765625,66322,17.42643465142542,999.2315457678133,0,,,,N/A
2024-03-17T16:20:12,-0.3176472001499999,0.2237289131,10.079765202499999,0.03756821214917795,-0.0027488935718910697,-0.048258353817643214,0.024220000000000002,0.41566000000000003,-0.511,18.5,0,1129,633,352,1764,25.939765625,66322,17.42643465142542,999.2315457678133,0,,,,N/A
2024-03-17T16:20:13,-0.3062812928,0.24885355039999998,10.11864856975,0.04444044607890562,-0.0027488935718910697,-0.04734205596034619,0.024220000000000002,0.41566000000000003,-0.511,18.5,0,1129,633,352,1764,25.939765625,66322,17.42643465142542,999.2315457678133,0,,,,N/A
2024-03-17T16:20:13,-0.3278166962,0.19860427579999998,10.1288180658,0.039400807863771994,-0.002138028333693054,-0.04489859500755413,0.0315,0.40782000000000007,-0.5152,18.5,0,1129,633,352,1764,25.939765625,66322,17.42643465142542,999.2315457678133,0,,,,N/A
2024-03-17T16:20:13,-0.3152543775499999,0.21296121140000002,10.110273690649999,0.04230241774521256,-0.002138028333693054,-0.04642575810304917,0.030100000000000002,0.41958000000000006,-0.49476000000000003,18.5,0,1129,633,352,1765,25.5096875,66742,17.34269948624897,999.2232116048418,0,,,,N/A
2024-03-17T16:20:13,-0.41874395499999995,0.20398812665,10.13420191665,0.04260785036431157,-0.0016798794050445422,-0.04596760917440065,0.02926,0.41342,-0.51114,18.5,0,1129,633,352,1765,25.5096875,66742,17.34269948624897,999.2232116048418,0,,,,N/A
2024-03-17T16:20:13,-0.32542387359999997,0.21296121140000002,10.14736244095,0.04230241774521256,-0.0013744467859455349,-0.04459316238845512,0.023660000000000004,0.42182000000000003,-0.50246,18.5,0,1129,633,352,1765,25.5096875,66742,17.34269948624897,999.2232116048418,0,,,,N/A
2024-03-17T16:20:14,-0.3337987527,0.20997018315,10.030114133549999,0.04276056667386108,-0.003207042500539581,-0.04382958084070761,0.023660000000000004,0.42182000000000003,-0.50246,18.5,0,1129,633,352,1765,25.5096875,66742,17.34269948624897,999.2232116048418,0,,,,N/A
2024-03-17T16:20:14,-0.3493520996,0.21296121140000002,10.039087218299999,0.040317105721069016,-0.002138028333693054,-0.04657847441259867,0.030940000000000002,0.41286,-0.50638,18.5,0,1129,633,352,1765,25.5096875,66742,17.34269948624897,999.2232116048418,0,,,,N/A
2024-03-17T16:20:14,-0.26321048599999997,0.1890329854,10.04207824655,0.041844268816564056,0.0015271630954950385,-0.043982297150257116,0.02338,0.4148200000000001,-0.50358,18.5,0,1129,633,352,1764,25.164765625,67435,17.324479038714692,999.2245295489456,0,,,,N/A
2024-03-17T16:20:14,-0.3218346397,0.2237289131,10.18325477995,0.041080687268816536,-0.0036651914291880926,-0.04520402762665314,0.024220000000000002,0.41370000000000007,-0.5108600000000001,18.5,0,1129,633,352,1764,25.164765625,67435,17.324479038714692,999.2245295489456,0,,,,N/A
2024-03-17T16:20:14,-0.1782652837,0.19322042494999997,10.071390323399998,0.039553524173321496,0.0003054326190990077,-0.04688390703169768,0.027020000000000002,0.42154,-0.49252,18.5,0,1129,633,352,1764,25.164765625,67435,17.324479038714692,999.2245295489456,0,,,,N/A
2024-03-17T16:20:15,-0.31944181709999997,0.20757736054999998,10.071390323399998,0.04581489286485116,-0.0033597588100890844,-0.04505131131710364,0.027020000000000002,0.42154,-0.49252,18.5,0,1129,633,352,1764,25.164765625,67435,17.324479038714692,999.2245295489456,0,,,,N/A
2024-03-17T16:20:15,-0.3397808092,0.2009970984,10.101300605899999,0.039706240482871004,-0.0038179077387375964,-0.04581489286485116,0.029540000000000004,0.41342,-0.51814,18.5,0,1129,633,352,1764,25.164765625,67435,17.324479038714692,999.2245295489456,0,,,,N/A
2024-03-17T16:20:15,-0.31645078885,0.2105683888,10.179067340399998,0.04276056667386108,-0.0013744467859455349,-0.04642575810304917,0.025340000000000005,0.41958000000000006,-0.5054000000000001,18.5,0,1129,633,352,1764,25.164765625,67435,17.324479038714692,999.2245295489456,0,,,,N/A
2024-03-17T16:20:15,-0.3236292566499999,0.22612173569999997,10.085149053349998,0.040622538340168025,-0.0009162978572970231,-0.04780020488899471,0.025340000000000005,0.41958000000000006,-0.5054000000000001,18.5,0,1129,633,352,1764,24.8923046875,67815,17.315193115523975,999.2205438111741,0,,,,N/A
2024-03-17T16:20:15,-0.32303105099999996,0.2524427843,10.0115697584,0.03695734691097993,-0.006719517620178169,-0.04459316238845512,0.030100000000000002,0.41594000000000003,-0.5241600000000001,18.5,0,1129,633,352,1764,24.914375,75389,17.361920718508326,999.197762796955,0,,,,N/A
2024-03-17T16:20:15,-0.35593236175,0.19142580799999998,10.062417238649997,0.03772092845872745,-0.0027488935718910697,-0.043982297150257116,0.025900000000000003,0.42546000000000006,-0.5194000000000001,18.5,0,1129,633,352,1764,24.914375,75389,17.361920718508326,999.197762796955,0,,,,N/A
2024-03-17T16:20:16,-0.34277183744999995,0.21236300575,10.085747258999998,0.04245513405476207,0.0006108652381980154,-0.04245513405476207,0.025340000000000005,0.41930000000000006,-0.5122600000000002,18.5,0,1129,633,352,1764,24.914375,75389,17.361920718508326,999.197762796955,0,,,,N/A
2024-03-17T16:20:16,-0.36430724085,0.21116659445,10.138987561849998,0.04092797095926703,-0.0036651914291880926,-0.04596760917440065,0.025340000000000005,0.41930000000000006,-0.5122600000000002,18.5,0,1129,633,352,1764,24.914375,75389,17.361920718508326,999.197762796955,0,,,,N/A
2024-03-17T16:20:16,-0.30687949845,0.22851455829999998,10.0438728635,0.04092797095926703,-0.004581489286485115,-0.04856378643674222,0.021700000000000004,0.42910000000000004,-0.5170200000000001,18.5,0,1129,633,352,1764,24.914375,75389,17.361920718508326,999.197762796955,0,,,,N/A
2024-03-17T16:20:16,-0.22193429615000002,0.2141576227,10.0366943957,0.04077525464971753,-0.0013744467859455349,-0.04382958084070761,0.027860000000000003,0.41734000000000004,-0.51632,18.5,0,1129,633,352,1765,24.7747265625,73677,17.339376548808595,999.2016626423583,0,,,,N/A
2024-03-17T16:20:16,-0.33798619224999993,0.25064816735,10.096514960699999,0.04276056667386108,-0.004123340357836604,-0.047952921198544204,0.025340000000000005,0.4142600000000001,-0.5217800000000001,18.5,0,1130,633,352,1766,24.7747265625,73677,17.339376548808595,999.2016626423583,0,,,,N/A
2024-03-17T16:20:17,-0.3212364340499999,0.21236300575,10.064211855599998,0.041996985126113565,-0.0044287729769356115,-0.04612032548395016,0.025340000000000005,0.4142600000000001,-0.5241600000000001,18.5,0,1130,633,352,1766,24.7747265625,73677,17.339376548808595,999.2016626423583,0,,,,N/A
2024-03-17T16:20:17,-0.30568308715,0.24107687694999996,10.057033387799999,0.04153883619746505,-0.00045814892864851157,-0.04505131131710364,0.03318,0.4207,-0.5241600000000001,18.5,0,1130,633,352,1766,24.7747265625,73677,17.339376548808595,999.2016626423583,0,,,,N/A
2024-03-17T16:20:17,-0.33678978094999995,0.24586252214999998,10.171290666949998,0.041844268816564056,-0.0036651914291880926,-0.05009094953223726,0.026180000000000002,0.41538,-0.51856,18.5,0,1130,633,352,1766,24.7747265625,73677,17.339376548808595,999.2016626423583,0,,,,N/A
2024-03-17T16:20:17,-0.32602207924999993,0.20039889274999997,10.0929257268,0.07696902001294993,-0.0044287729769356115,-0.04489859500755413,0.025340000000000005,0.42154,-0.51324,18.5,0,1129,633,352,1765,24.6098828125,73166,17.33071009284148,999.2124578329682,0,,,,N/A
2024-03-17T16:20:17,-0.3720839143,0.24227328824999997,10.09830957765,0.04123340357836604,-0.0033597588100890844,-0.040622538340168025,0.02338,0.42434000000000005,-0.49812000000000006,18.5,0,1129,633,352,1765,24.6098828125,73166,17.33071009284148,999.2124578329682,0,,,,N/A
2024-03-17T16:20:17,-0.3176472001499999,0.24346969954999997,10.08036340815,0.039706240482871004,-0.0009162978572970231,-0.04505131131710364,0.02338,0.42434000000000005,-0.49812000000000006,18.5,0,1129,633,352,1765,24.6098828125,73166,17.33071009284148,999.2124578329682,0,,,,N/A
2024-03-17T16:20:18,-0.24765713909999998,0.22851455829999998,10.092327521149999,0.0435241482216086,-0.0027488935718910697,-0.0476474885794452,0.02758,0.41986,-0.5271,18.5,0,1129,633,352,1765,24.6098828125,73166,17.33071009284148,999.2124578329682,0,,,,N/A
2024-03-17T16:20:18,-0.33260234139999995,0.20937197749999997,10.2281202037,0.04260785036431157,-0.0044287729769356115,-0.04413501345980661,0.02254,0.4151,-0.51814,18.5,0,1129,633,352,1765,24.6098828125,73166,17.33071009284148,999.2124578329682,0,,,,N/A
2024-03-17T16:20:18,-0.38464623295,0.22911276394999996,10.082756230749998,0.04016438941151951,-0.0018325957145940463,-0.04474587869800463,0.02646,0.41734000000000004,-0.5198200000000001,18.5,0,1130,633,352,1765,24.470625,73741,17.34363078016478,999.2168003788597,0,,,,N/A
2024-03-17T16:20:18,-0.2919243572,0.21236300575,10.048658508699999,0.043982297150257116,-0.0027488935718910697,-0.04657847441259867,0.02646,0.41734000000000004,-0.51674,18.5,0,1130,633,352,1765,24.470625,73741,17.34363078016478,999.2168003788597,0,,,,N/A
2024-03-17T16:20:18,-0.33140593009999997,0.19740786449999997,10.08155981945,0.040317105721069016,-0.005039638215133627,-0.04657847441259867,0.023940000000000003,0.42658,-0.51674,18.5,0,1130,633,352,1765,24.470625,73741,17.34363078016478,999.2168003788597,0,,,,N/A
2024-03-17T16:20:19,-0.2560320182,0.23389840915,10.086943670299998,0.03741549583962844,-0.002138028333693054,-0.048716502746291725,0.03626000000000001,0.41370000000000007,-0.51674,18.5,0,1130,633,352,1765,24.470625,73741,17.34363078016478,999.2168003788597,0,,,,N/A
2024-03-17T16:20:19,-0.3332005470499999,0.22671994134999998,10.0893364929,0.04306599929296009,-0.0012217304763960308,-0.04505131131710364,0.024220000000000002,0.42518000000000006,-0.5086200000000001,18.5,0,1130,633,352,1765,24.470625,73741,17.34363078016478,999.2168003788597,0,,,,N/A
2024-03-17T16:20:19,-0.3332005470499999,0.24346969954999997,10.097113166349997,0.04474587869800463,-0.00595593607243065,-0.04474587869800463,0.025900000000000003,0.42294000000000004,-0.52248,18.5,0,1129,633,352,1765,24.3587109375,74457,17.352928343899098,999.2176061127808,0,,,,N/A
2024-03-17T16:20:19,-0.38464623295,0.22432711874999997,10.092327521149999,0.03924809155422249,-0.00045814892864851157,-0.04489859500755413,0.03122,0.42238000000000003,-0.5166000000000001,18.5,0,1129,633,352,1765,24.3587109375,74457,17.352928343899098,999.2176061127808,0,,,,N/A
2024-03-17T16:20:19,-0.33020951879999993,0.20279171534999998,10.1204431867,0.041386119887915546,-0.00473420559603462,-0.04886921905584123,0.032060000000000005,0.41958000000000006,-0.52262,18.5,0,1129,633,352,1765,24.3587109375,74457,17.352928343899098,999.2176061127808,0,,,,N/A
2024-03-17T16:20:20,-0.31884361145,0.2165504453,10.1001041946,0.04291328298341058,-0.0033597588100890844,-0.047952921198544204,0.029540000000000004,0.41594000000000003,-0.5349400000000001,18.5,0,1129,633,352,1765,24.3587109375,74457,17.352928343899098,999.2176061127808,0,,,,N/A
2024-03-17T16:20:20,-0.31944181709999997,0.21116659445,10.078568791199999,0.041844268816564056,-0.0015271630954950385,-0.0476474885794452,0.029540000000000004,0.41594000000000003,-0.5349400000000001,18.5,0,1129,633,352,1765,24.3587109375,74457,17.352928343899098,999.2176061127808,0,,,,N/A
2024-03-17T16:20:20,-0.33858439789999994,0.20159530404999998,10.088140081599997,0.043676864531158106,-0.004123340357836604,-0.050701814770435276,0.028700000000000003,0.42294000000000004,-0.5147800000000001,18.5,0,1129,633,352,1765,24.3587109375,74457,17.352928343899098,999.2176061127808,0,,,,N/A
2024-03-17T16:20:20,-0.32662028489999995,0.20578274359999998,10.239486111049999,0.041996985126113565,-0.00045814892864851157,-0.04963280060358875,0.028140000000000005,0.42322000000000004,-0.5236000000000001,18.5,0,1129,633,352,1765,24.3587109375,74457,17.352928343899098,999.2176061127808,0,,,,N/A
2024-03-17T16:20:20,-0.31226334929999994,0.21834506225,10.02054284315,0.038637226316024474,-0.004886921905584123,-0.04382958084070761,0.028980000000000002,0.41706000000000004,-0.5208,18.5,0,1129,633,352,1764,24.2704296875,75187,17.3685224327844,999.2177587201393,0,,,,N/A
2024-03-17T16:20:20,-0.29910282499999996,0.24047867129999997,10.15693373135,0.041080687268816536,-0.002901609881440573,-0.04505131131710364,0.01386,0.41930000000000006,-0.5147800000000001,18.5,0,1129,633,352,1764,24.2704296875,75187,17.3685224327844,999.2177587201393,0,,,,N/A
2024-03-17T16:20:20,-0.33798619224999993,0.17108681589999997,10.13420191665,0.04520402762665314,-0.0027488935718910697,-0.047952921198544204,0.026740000000000003,0.42574000000000006,-0.5124000000000001,18.5,0,1129,633,352,1764,24.2704296875,75187,17.3685224327844,999.2177587201393,0,,,,N/A
2024-03-17T16:20:21,-0.29491538544999996,0.21894326790000002,10.16770143305,0.04642575810304917,-0.004276056667386108,-0.04948008429403925,0.025900000000000003,0.42098,-0.5145,18.5,0,1129,633,352,1764,24.2704296875,75187,17.3685224327844,999.2177587201393,0,,,,N/A
2024-03-17T16:20:21,-0.33260234139999995,0.22133609049999997,10.073783145999998,0.03924809155422249,-0.002901609881440573,-0.05192354524683131,0.025900000000000003,0.42098,-0.5145,18.5,0,1129,633,352,1764,24.2704296875,75187,17.3685224327844,999.2177587201393,0,,,,N/A
2024-03-17T16:20:21,-0.3278166962,0.21355941705,10.02054284315,0.04092797095926703,0.0006108652381980154,-0.04428772976935611,0.024500000000000004,0.41874000000000006,-0.5068,18.5,0,1128,633,352,1763,24.2001171875,77252,17.385058132106526,999.2133887055231,0,,,,N/A
2024-03-17T16:20:21,-0.37088750299999995,0.2141576227,10.086943670299998,0.04276056667386108,-0.0018325957145940463,-0.04688390703169768,0.022820000000000003,0.42546000000000006,-0.50778,18.5,0,1128,633,352,1763,24.2001171875,77252,17.385058132106526,999.2133887055231,0,,,,N/A
2024-03-17T16:20:21,-0.32004002274999993,0.22073788485,10.0929257268,0.04153883619746505,-0.0033597588100890844,-0.04596760917440065,0.03374,0.42630000000000007,-0.5135200000000001,18.5,0,1128,633,352,1763,24.2001171875,77252,17.385058132106526,999.2133887055231,0,,,,N/A
2024-03-17T16:20:22,-0.31166514365,0.23270199784999998,10.07557776295,0.041996985126113565,-0.0013744467859455349,-0.04550946024575215,0.022820000000000003,0.42714,-0.49994000000000005,18.5,0,1128,633,352,1763,24.2001171875,77252,17.385058132106526,999.2133887055231,0,,,,N/A
2024-03-17T16:20:22,-0.34755748264999997,0.22193429615000002,10.073783145999998,0.041844268816564056,-0.0019853120241435504,-0.050243665841786765,0.022820000000000003,0.42714,-0.49994000000000005,18.5,0,1128,633,352,1763,24.2001171875,77252,17.385058132106526,999.2133887055231,0,,,,N/A
2024-03-17T16:20:22,-0.41276189849999995,0.22971096959999998,10.107880868049998,0.039095375244672985,-0.0019853120241435504,-0.04428772976935611,0.02254,0.41706000000000004,-0.5117,18.5,0,1128,633,352,1764,24.145234375,77679,17.407459998922917,999.2092621074858,0,,,,N/A
2024-03-17T16:20:22,-0.33499516399999996,0.22133609049999997,10.121639597999998,0.03787364476827696,0.0003054326190990077,-0.04856378643674222,0.023100000000000002,0.42518000000000006,-0.51562,18.5,0,1128,633,352,1764,24.145234375,77679,17.407459998922917,999.2092621074858,0,,,,N/A
2024-03-17T16:20:22,-0.33619157529999993,0.22013967919999997,10.091729315499999,0.03772092845872745,-0.007330382858376185,-0.049938233222687756,0.020860000000000004,0.41846000000000005,-0.4998000000000001,18.5,0,1128,633,352,1764,24.145234375,77679,17.407459998922917,999.2092621074858,0,,,,N/A
2024-03-17T16:20:23,-0.29611179675,0.24227328824999997,10.166505021749998,0.040317105721069016,-0.0038179077387375964,-0.04550946024575215,0.0175,0.42294000000000004,-0.5129600000000001,18.5,0,1128,633,352,1764,24.145234375,77679,17.407459998922917,999.2092621074858,0,,,,N/A
2024-03-17T16:20:23,-0.33140593009999997,0.20279171534999998,10.08395264205,0.03802636107782646,-0.0056505034533316425,-0.04474587869800463,0.0175,0.42294000000000004,-0.5129600000000001,18.5,0,1128,633,352,1764,24.145234375,77679,17.407459998922917,999.2092621074858,0,,,,N/A
2024-03-17T16:20:23,-0.35353953914999997,0.22073788485,10.11505933585,0.038942658935123484,-0.0018325957145940463,-0.04413501345980661,0.028700000000000003,0.41762000000000005,-0.5140800000000001,18.5,0,1129,633,352,1764,24.1034375,78620,17.42549217283927,999.2157865360866,0,,,,N/A
2024-03-17T16:20:23,-0.34755748264999997,0.19621145319999997,10.154540908749999,0.04260785036431157,-0.0007635815477475193,-0.04596760917440065,0.025340000000000005,0.4148200000000001,-0.5108600000000001,18.5,0,1129,633,352,1764,24.1034375,78620,17.42549217283927,999.2157865360866,0,,,,N/A
2024-03-17T16:20:23,-0.3176472001499999,0.22612173569999997,10.14975526355,0.04260785036431157,-0.0003054326190990077,-0.04718933965079669,0.029820000000000003,0.41398,-0.5278,18.5,0,1129,633,352,1765,24.1034375,78620,17.42549217283927,999.2157865360866,0,,,,N/A
2024-03-17T16:20:24,-0.36011980130000004,0.23330020349999997,10.09950598895,0.04001167310197001,-0.005192354524683131,-0.043982297150257116,0.029820000000000003,0.41398,-0.5278,18.5,0,1129,633,352,1765,24.1034375,78620,17.42549217283927,999.2157865360866,0,,,,N/A
2024-03-17T16:20:24,-0.31645078885,0.22612173569999997,10.168897844349999,0.039706240482871004,-0.0038179077387375964,-0.04489859500755413,0.01778,0.41986,-0.5135200000000001,18.5,0,1129,633,352,1765,24.1034375,78620,17.42549217283927,999.2157865360866,0,,,,N/A
2024-03-17T16:20:24,-0.34815568830000004,0.2117648001,10.13420191665,0.03924809155422249,-0.0044287729769356115,-0.04581489286485116,0.02198,0.41846000000000005,-0.51674,18.5,0,1129,633,352,1765,24.070234375,79734,17.433861065472062,999.2203157105137,0,,,,N/A
2024-03-17T16:20:24,-0.29132615154999997,0.22492532440000002,10.0749795573,0.039553524173321496,-0.0054977871437821395,-0.04474587869800463,0.018900000000000004,0.41006000000000004,-0.5201,18.5,0,1129,633,352,1765,24.070234375,79734,17.433861065472062,999.2203157105137,0,,,,N/A
2024-03-17T16:20:24,-0.35892339,0.20757736054999998,10.060024416049998,0.04505131131710364,-0.005345070834232635,-0.04810563750809371,0.02646,0.41566000000000003,-0.5136600000000001,18.5,0,1129,633,352,1765,24.070234375,79734,17.433861065472062,999.2203157105137,0,,,,N/A
2024-03-17T16:20:25,-0.3212364340499999,0.22492532440000002,10.091729315499999,0.041844268816564056,-0.003970624048287101,-0.04963280060358875,0.02646,0.41566000000000003,-0.5136600000000001,18.5,0,1129,633,352,1765,24.070234375,79734,17.433861065472062,999.2203157105137,0,,,,N/A
2024-03-17T16:20:25,-0.32004002274999993,0.20279171534999998,10.08036340815,0.04214970143566306,-0.004581489286485115,-0.04413501345980661,0.027300000000000005,0.41286,-0.5047,18.5,0,1129,633,352,1765,24.070234375,79734,17.433861065472062,999.2203157105137,0,,,,N/A
2024-03-17T16:20:25,-0.2835494781,0.22971096959999998,10.015158992299998,0.04214970143566306,-0.0018325957145940463,-0.04566217655530165,0.030100000000000002,0.42154,-0.5136600000000001,18.5,0,1129,633,352,1765,24.070234375,79734,17.433861065472062,999.2203157105137,0,,,,N/A
2024-03-17T16:20:25,-0.35473595045,0.22193429615000002,10.082756230749998,0.04245513405476207,-0.003054326190990077,-0.04780020488899471,0.030100000000000002,0.42154,-0.5136600000000001,18.5,0,1129,633,352,1765,24.0440625,80726,17.447657162517128,999.2220842317355,0,,,,N/A
2024-03-17T16:20:25,-0.3038884702,0.17407784415000002,10.0462656861,0.04459316238845512,-0.0054977871437821395,-0.04642575810304917,0.02338,0.4277,-0.5075000000000001,18.5,0,1130,634,352,1765,24.2524609375,88332,17.50418910177071,999.2080332833059,0,,,,N/A
2024-03-17T16:20:25,-0.41156548719999997,0.21236300575,10.09113110985,0.040622538340168025,-0.0033597588100890844,-0.04673119072214818,0.03486000000000001,0.42434000000000005,-0.5166000000000001,18.5,0,1130,634,352,1765,24.2524609375,88332,17.50418910177071,999.2080332833059,0,,,,N/A
2024-03-17T16:20:25,-0.33020951879999993,0.20997018315,10.088140081599997,0.041386119887915546,-0.0013744467859455349,-0.04428772976935611,0.02338,0.42462000000000005,-0.5049800000000001,18.5,0,1130,634,352,1765,24.2524609375,88332,17.50418910177071,999.2080332833059,0,,,,N/A
2024-03-17T16:20:26,-0.31106693799999996,0.19561324754999998,10.006185907549998,0.04153883619746505,-0.0044287729769356115,-0.0435241482216086,0.02338,0.42462000000000005,-0.5049800000000001,18.5,0,1130,634,352,1765,24.2524609375,88332,17.50418910177071,999.2080332833059,0,,,,N/A
2024-03-17T16:20:26,-0.29312076849999996,0.22731814699999997,10.118050364099998,0.040622538340168025,-0.005039638215133627,-0.04489859500755413,0.032900000000000006,0.42154,-0.5122600000000002,18.5,0,1130,634,352,1765,24.2524609375,88332,17.50418910177071,999.2080332833059,0,,,,N/A
2024-03-17T16:20:26,-0.3098705267,0.23509482044999996,10.151549880500001,0.03726277953007894,-0.0007635815477475193,-0.04291328298341058,0.02478,0.42238000000000003,-0.5159000000000001,18.5,0,1129,634,352,1765,24.2587109375,87417,17.474147284041283,999.2164393596682,0,,,,N/A
2024-03-17T16:20:26,-0.34516466005,0.21595223965000002,10.12463062625,0.04291328298341058,-0.0013744467859455349,-0.04963280060358875,0.027020000000000002,0.42238000000000003,-0.5161800000000001,18.5,0,1129,634,352,1765,24.2587109375,87417,17.474147284041283,999.2164393596682,0,,,,N/A
2024-03-17T16:20:26,-0.32841490184999994,0.2141576227,10.109675485,0.041080687268816536,-0.002901609881440573,-0.04856378643674222,0.027020000000000002,0.42238000000000003,-0.5161800000000001,18.5,0,1129,634,352,1765,24.2587109375,87417,17.474147284041283,999.2164393596682,0,,,,N/A
2024-03-17T16:20:27,-0.28773691765000003,0.23928225999999997,10.05643518215,0.03924809155422249,-0.002138028333693054,-0.04948008429403925,0.03458000000000001,0.41454,-0.50778,18.5,0,1129,634,352,1765,24.2587109375,87417,17.474147284041283,999.2164393596682,0,,,,N/A
2024-03-17T16:20:27,-0.32243284534999994,0.19920248144999997,10.0414800409,0.038331793696925465,-0.0025961772623415654,-0.04627304179349966,0.03962,0.42014000000000007,-0.5215,18.5,0,1129,634,352,1765,24.2587109375,87417,17.474147284041283,999.2164393596682,0,,,,N/A
2024-03-17T16:20:27,-0.2979064137,0.21595223965000002,10.09830957765,0.04276056667386108,-0.0009162978572970231,-0.04718933965079669,0.033460000000000004,0.42518000000000006,-0.50834,18.5,0,1129,633,352,1766,24.20890625,85992,17.441159305822623,999.222378324561,0,,,,N/A
2024-03-17T16:20:27,-0.33678978094999995,0.21116659445,10.078568791199999,0.04001167310197001,-0.004581489286485115,-0.049021935365390734,0.03318,0.41846000000000005,-0.51968,18.5,0,1129,633,352,1766,24.20890625,85992,17.441159305822623,999.222378324561,0,,,,N/A
2024-03-17T16:20:28,-0.31944181709999997,0.19621145319999997,10.04207824655,0.04077525464971753,-0.0022907446432425577,-0.04642575810304917,0.03318,0.41846000000000005,-0.518,18.5,0,1129,633,352,1766,24.20890625,85992,17.441159305822623,999.222378324561,0,,,,N/A
2024-03-17T16:20:28,-0.17647066675,0.2105683888,10.0749795573,0.04505131131710364,-0.0024434609527920616,-0.04321871560250959,0.034300000000000004,0.41818000000000005,-0.518,18.5,0,1129,633,352,1766,24.20890625,85992,17.441159305822623,999.222378324561,0,,,,N/A
2024-03-17T16:20:28,-0.28713871199999996,0.22432711874999997,10.052845948249999,0.04230241774521256,-0.002138028333693054,-0.048411070127192715,0.030100000000000002,0.41762000000000005,-0.51422,18.5,0,1129,633,352,1766,24.20890625,85992,17.441159305822623,999.222378324561,0,,,,N/A
2024-03-17T16:20:28,-0.36729826909999996,0.19680965884999999,10.061819032999999,0.04001167310197001,-0.005039638215133627,-0.048716502746291725,0.025900000000000003,0.41986,-0.51212,18.5,0,1130,634,352,1766,24.1606640625,85904,17.438619152082232,999.2326287717219,0,,,,N/A
2024-03-17T16:20:28,-0.2739781877,0.25722842949999997,10.042676452199998,0.04077525464971753,-0.0015271630954950385,-0.04612032548395016,0.023100000000000002,0.41146000000000005,-0.50736,18.5,0,1130,634,352,1766,24.1606640625,85904,17.438619152082232,999.2326287717219,0,,,,N/A
2024-03-17T16:20:28,-0.33140593009999997,0.20937197749999997,10.104291634149998,0.03741549583962844,-0.0007635815477475193,-0.047952921198544204,0.023100000000000002,0.41146000000000005,-0.50736,18.5,0,1130,634,352,1766,24.1606640625,85904,17.438619152082232,999.2326287717219,0,,,,N/A
2024-03-17T16:20:29,-0.3415754261499999,0.18005990065000002,10.070792117749999,0.04413501345980661,-0.002138028333693054,-0.04657847441259867,0.02646,0.41874000000000006,-0.5065200000000001,18.5,0,1130,634,352,1766,24.1606640625,85904,17.438619152082232,999.2326287717219,0,,,,N/A
2024-03-17T16:20:29,-0.32004002274999993,0.23210379219999996,10.05763159345,0.03497203488683638,0.00015271630954950385,-0.04535674393620265,0.03458000000000001,0.40754,-0.51058,18.5,0,1130,634,352,1766,24.1606640625,85904,17.438619152082232,999.2326287717219,0,,,,N/A
2024-03-17T16:20:29,-0.36011980130000004,0.16749758199999998,10.18325477995,0.041996985126113565,-0.005192354524683131,-0.04550946024575215,0.03626000000000001,0.41370000000000007,-0.49602,18.5,0,1130,634,352,1766,24.1184765625,86699,17.4414570808215,999.2349640026952,0,,,,N/A
2024-03-17T16:20:29,-0.3439682487499999,0.23569302609999998,10.152746291799998,0.038331793696925465,0.00045814892864851157,-0.04596760917440065,0.026740000000000003,0.42546000000000006,-0.5089,18.5,0,1130,634,352,1766,24.1184765625,86699,17.4414570808215,999.2349640026952,0,,,,N/A
2024-03-17T16:20:29,-0.3355933696499999,0.19621145319999997,10.0749795573,0.036193765363232405,-0.0022907446432425577,-0.04566217655530165,0.026740000000000003,0.42546000000000006,-0.5089,18.5,0,1130,634,352,1766,24.1184765625,86699,17.4414570808215,999.2349640026952,0,,,,N/A
2024-03-17T16:20:30,-0.32901310749999996,0.22432711874999997,10.080961613799998,0.041080687268816536,0.00015271630954950385,-0.04886921905584123,0.030100000000000002,0.41650000000000004,-0.51338,18.5,0,1130,634,352,1766,24.1184765625,86699,17.4414570808215,999.2349640026952,0,,,,N/A
2024-03-17T16:20:30,-0.3337987527,0.19202401365,10.0893364929,0.036804630601430424,-0.00045814892864851157,-0.04382958084070761,0.03318,0.41258000000000006,-0.5229000000000001,18.5,0,1130,634,352,1766,24.1184765625,86699,17.4414570808215,999.2349640026952,0,,,,N/A
2024-03-17T16:20:30,-0.32542387359999997,0.2225325018,10.193424276,0.040317105721069016,-0.0015271630954950385,-0.04245513405476207,0.03318,0.41258000000000006,-0.5229000000000001,18.5,0,1130,634,352,1766,24.1184765625,86699,17.4414570808215,999.2349640026952,0,,,,N/A
2024-03-17T16:20:30,-0.3355933696499999,0.19920248144999997,10.073783145999998,0.039858956792420505,-0.0036651914291880926,-0.05299255941367784,0.02254,0.41902000000000006,-0.51282,18.5,0,1130,634,352,1766,24.1184765625,86699,17.4414570808215,999.2349640026952,0,,,,N/A
2024-03-17T16:20:30,-0.3158525832,0.22731814699999997,10.04566748045,0.04535674393620265,0.0006108652381980154,-0.04550946024575215,0.029820000000000003,0.42042,-0.5124000000000001,18.5,0,1130,634,352,1766,24.0833203125,86877,17.444665064471458,999.2274266094604,0,,,,N/A
2024-03-17T16:20:30,-0.3236292566499999,0.2165504453,10.104291634149998,0.038637226316024474,-0.0007635815477475193,-0.04214970143566306,0.023940000000000003,0.42210000000000003,-0.5119800000000001,18.5,0,1130,634,352,1766,24.0833203125,86877,17.444665064471458,999.2274266094604,0,,,,N/A
2024-03-17T16:20:31,-0.30807590975,0.22552353004999998,10.0749795573,0.041080687268816536,-0.0019853120241435504,-0.050549098460885775,0.023940000000000003,0.42210000000000003,-0.5119800000000001,18.5,0,1130,634,352,1766,24.0833203125,86877,17.444665064471458,999.2274266094604,0,,,,N/A
2024-03-17T16:20:31,-0.41515472109999996,0.2009970984,10.119844981049999,0.039706240482871004,0.0,-0.04673119072214818,0.028700000000000003,0.41370000000000007,-0.52514,18.5,0,1130,634,352,1766,24.0833203125,86877,17.444665064471458,999.2274266094604,0,,,,N/A
2024-03-17T16:20:31,-0.33619157529999993,0.20638094924999997,10.060024416049998,0.037110063220529434,-0.00595593607243065,-0.04718933965079669,0.020300000000000002,0.41622000000000003,-0.5136600000000001,18.5,0,1130,634,352,1766,24.0833203125,86877,17.444665064471458,999.2274266094604,0,,,,N/A
2024-03-17T16:20:31,-0.30508488149999996,0.19262221929999998,10.018150020550001,0.04153883619746505,-0.004581489286485115,-0.041844268816564056,0.026740000000000003,0.41062000000000004,-0.50526,18.5,0,1130,634,352,1765,24.0548046875,87599,17.44822243054017,999.2271535114915,0,,,,N/A
2024-03-17T16:20:31,-0.31704899449999996,0.21475582835,9.8727860476,0.04535674393620265,-0.004123340357836604,-0.04550946024575215,0.02142,0.40922000000000003,-0.52332,18.5,0,1130,634,352,1765,24.0548046875,87599,17.44822243054017,999.2271535114915,0,,,,N/A
2024-03-17T16:20:31,-0.35234312785,0.20817556619999997,10.073783145999998,0.04505131131710364,-0.003207042500539581,-0.04444044607890562,0.022820000000000003,0.41538,-0.52458,18.5,0,1130,634,352,1765,24.0548046875,87599,17.44822243054017,999.2271535114915,0,,,,N/A
2024-03-17T16:20:32,-0.29910282499999996,0.2177468566,10.061819032999999,0.038331793696925465,-0.0022907446432425577,-0.04230241774521256,0.027860000000000003,0.41006000000000004,-0.5230400000000001,18.5,0,1130,634,352,1765,24.0548046875,87599,17.44822243054017,999.2271535114915,0,,,,N/A
2024-03-17T16:20:32,-0.3152543775499999,0.21595223965000002,10.091729315499999,0.040317105721069016,-0.0009162978572970231,-0.04321871560250959,0.027860000000000003,0.41006000000000004,-0.5230400000000001,18.5,0,1130,634,352,1765,24.0548046875,87599,17.44822243054017,999.2271535114915,0,,,,N/A
2024-03-17T16:20:32,-0.27577280465,0.22552353004999998,10.048060303049999,0.041844268816564056,0.0003054326190990077,-0.04291328298341058,0.02142,0.42322000000000004,-0.5091800000000001,18.5,0,1130,634,352,1765,24.0337109375,88425,17.462286409830245,999.2194280801199,0,,,,N/A
2024-03-17T16:20:32,-0.30747770409999997,0.19142580799999998,10.08395264205,0.04230241774521256,-0.004123340357836604,-0.04718933965079669,0.025900000000000003,0.4151,-0.5159000000000001,18.5,0,1130,634,352,1765,24.0337109375,88425,17.462286409830245,999.2194280801199,0,,,,N/A
2024-03-17T16:20:32,-0.3493520996,0.19262221929999998,10.1264252432,0.04046982203061852,-0.038789942625573975,-0.04505131131710364,0.024220000000000002,0.42546000000000006,-0.5103000000000001,18.5,0,1130,634,352,1765,24.0337109375,88425,17.462286409830245,999.2194280801199,0,,,,N/A
2024-03-17T16:20:33,-0.32004002274999993,0.19621145319999997,10.11386292455,0.04046982203061852,-0.0027488935718910697,-0.04703662334124718,0.0315,0.41594000000000003,-0.52234,18.5,0,1130,634,352,1765,24.0337109375,88425,17.462286409830245,999.2194280801199,0,,,,N/A
2024-03-17T16:20:33,-0.35712877305,0.22432711874999997,10.05882800475,0.04627304179349966,0.0,-0.0433714319120591,0.0315,0.41594000000000003,-0.52234,18.5,0,1130,634,352,1765,24.0337109375,88425,17.462286409830245,999.2194280801199,0,,,,N/A
2024-03-17T16:20:33,-0.35593236175,0.20219350969999997,10.106086251099997,0.0435241482216086,-0.0027488935718910697,-0.0433714319120591,0.023100000000000002,0.41958000000000006,-0.5076400000000001,18.5,0,1129,633,352,1764,24.017109375,89551,17.47152893886718,999.219022689683,0,,,,N/A
2024-03-17T16:20:33,-0.2536391956,0.23988046564999999,10.016953609249999,0.038942658935123484,-0.003054326190990077,-0.04489859500755413,0.027020000000000002,0.41342,-0.5049800000000001,18.5,0,1129,633,352,1764,24.017109375,89551,17.47152893886718,999.219022689683,0,,,,N/A
2024-03-17T16:20:33,-0.3272184905499999,0.22193429615000002,10.13420191665,0.04016438941151951,-0.0027488935718910697,-0.04245513405476207,0.024220000000000002,0.42378000000000005,-0.5080600000000001,18.5,0,1129,633,352,1764,24.017109375,89551,17.47152893886718,999.219022689683,0,,,,N/A
2024-03-17T16:20:34,-0.31704899449999996,0.20757736054999998,10.054042359550001,0.0476474885794452,-0.0007635815477475193,-0.04856378643674222,0.029540000000000004,0.41202000000000005,-0.5147800000000001,18.5,0,1129,633,352,1764,24.017109375,89551,17.47152893886718,999.219022689683,0,,,,N/A
2024-03-17T16:20:34,-0.31106693799999996,0.18664016279999998,10.097113166349997,0.03726277953007894,-0.0056505034533316425,-0.04550946024575215,0.029540000000000004,0.41202000000000005,-0.5147800000000001,18.5,0,1129,633,352,1764,24.017109375,89551,17.47152893886718,999.219022689683,0,,,,N/A
2024-03-17T16:20:34,-0.3176472001499999,0.17647066675,10.057033387799999,0.041844268816564056,-0.0027488935718910697,-0.04810563750809371,0.03458000000000001,0.41678000000000004,-0.5199600000000001,18.5,0,1128,633,352,1764,24.00421875,89933,17.48602602077886,999.2157806742725,0,,,,N/A
2024-03-17T16:20:34,-0.25782663515,0.2009970984,10.09950598895,0.038637226316024474,-0.005039638215133627,-0.04886921905584123,0.027860000000000003,0.41454,-0.5279400000000001,18.5,0,1128,633,352,1764,24.00421875,89933,17.48602602077886,999.2157806742725,0,,,,N/A
2024-03-17T16:20:34,-0.31405796625,0.2165504453,10.1132647189,0.0435241482216086,-0.004276056667386108,-0.0435241482216086,0.030660000000000003,0.41650000000000004,-0.50834,18.5,0,1128,633,352,1764,24.00421875,89933,17.48602602077886,999.2157806742725,0,,,,N/A
2024-03-17T16:20:35,-0.30448667585,0.2141576227,10.1204431867,0.040622538340168025,-0.0016798794050445422,-0.04550946024575215,0.034300000000000004,0.42350000000000004,-0.51632,18.5,0,1128,633,352,1764,24.00421875,89933,17.48602602077886,999.2157806742725,0,,,,N/A
2024-03-17T16:20:35,-0.32841490184999994,0.19621145319999997,10.097711372000001,0.039706240482871004,-0.0044287729769356115,-0.04474587869800463,0.034300000000000004,0.42350000000000004,-0.51632,18.5,0,1128,633,352,1764,24.00421875,89933,17.48602602077886,999.2157806742725,0,,,,N/A
2024-03-17T16:20:35,-0.36909288605,0.21894326790000002,10.109675485,0.03695734691097993,-0.0044287729769356115,-0.04459316238845512,0.026740000000000003,0.41650000000000004,-0.5152,18.5,0,1128,633,352,1764,24.00421875,89933,17.48602602077886,999.2157806742725,0,,,,N/A
2024-03-17T16:20:35,-0.31405796625,0.21355941705,10.1659068161,0.0435241482216086,-0.0033597588100890844,-0.043982297150257116,0.030660000000000003,0.40614000000000006,-0.52836,18.5,0,1128,633,352,1764,23.9946484375,90318,17.495639819756693,999.2072893950944,0,,,,N/A
2024-03-17T16:20:35,-0.2596212521,0.20877377184999998,10.04207824655,0.04230241774521256,-0.005345070834232635,-0.04734205596034619,0.030940000000000002,0.41538,-0.5230400000000001,18.5,0,1127,632,351,1762,24.2149609375,96871,17.547775216473028,999.1895884441053,0,,,,N/A
2024-03-17T16:20:35,-0.36191441825,0.20338992099999997,10.1383893562,0.03924809155422249,-0.0036651914291880926,-0.04535674393620265,0.029820000000000003,0.4148200000000001,-0.52262,18.5,0,1127,632,351,1762,24.2149609375,96871,17.547775216473028,999.1895884441053,0,,,,N/A
2024-03-17T16:20:35,-0.30687949845,0.20159530404999998,10.0701939121,0.03726277953007894,-0.00045814892864851157,-0.04413501345980661,0.030100000000000002,0.41454,-0.5068,18.5,0,1127,632,351,1762,24.2149609375,96871,17.547775216473028,999.1895884441053,0,,,,N/A
2024-03-17T16:20:36,-0.43489550755,0.23389840915,10.1001041946,0.04092797095926703,-0.0036651914291880926,-0.04734205596034619,0.027020000000000002,0.40698,-0.5173000000000001,18.5,0,1127,632,351,1762,24.2149609375,96871,17.547775216473028,999.1895884441053,0,,,,N/A
2024-03-17T16:20:36,-0.3439682487499999,0.22133609049999997,10.107880868049998,0.0435241482216086,-0.0025961772623415654,-0.04917465167494024,0.027020000000000002,0.40698,-0.5173000000000001,18.5,0,1127,632,351,1762,24.2149609375,96871,17.547775216473028,999.1895884441053,0,,,,N/A
2024-03-17T16:20:36,-0.30867411539999995,0.22851455829999998,10.08395264205,0.07788531787024697,-0.0018325957145940463,-0.04321871560250959,0.0315,0.43022000000000005,-0.5161800000000001,18.5,0,1127,632,351,1761,24.2317578125,94750,17.52840933356764,999.1991837302979,0,,,,N/A
2024-03-17T16:20:36,-0.32602207924999993,0.25124637299999997,10.078568791199999,0.04306599929296009,-0.002138028333693054,-0.04413501345980661,0.01862,0.42154,-0.5222,18.5,0,1127,632,351,1761,24.2317578125,94750,17.52840933356764,999.1991837302979,0,,,,N/A
2024-03-17T16:20:36,-0.3397808092,0.20877377184999998,10.0905329042,0.043982297150257116,-0.0033597588100890844,-0.048411070127192715,0.028700000000000003,0.42406000000000005,-0.52444,18.5,0,1127,632,351,1761,24.2317578125,94750,17.52840933356764,999.1991837302979,0,,,,N/A
2024-03-17T16:20:37,-0.3493520996,0.20817556619999997,10.061819032999999,0.04214970143566306,-0.004123340357836604,-0.04474587869800463,0.028700000000000003,0.42406000000000005,-0.52444,18.5,0,1127,632,351,1761,24.2317578125,94750,17.52840933356764,999.1991837302979,0,,,,N/A
2024-03-17T16:20:37,-0.34755748264999997,0.24227328824999997,10.04088183525,0.041691552507014555,-0.0025961772623415654,-0.0474947722698957,0.021700000000000004,0.41370000000000007,-0.5188400000000001,18.5,0,1127,632,351,1761,24.2317578125,94750,17.52840933356764,999.1991837302979,0,,,,N/A
2024-03-17T16:20:37,-0.31345976059999997,0.23389840915,10.12223780365,0.03772092845872745,-0.0027488935718910697,-0.04688390703169768,0.03122,0.41790000000000005,-0.5317200000000001,18.5,0,1126,632,351,1760,24.1903515625,94995,17.50090737280132,999.2045849642382,0,,,,N/A
2024-03-17T16:20:37,-0.3415754261499999,0.23030917524999997,10.12223780365,0.07757988525114795,-0.0035124751196385882,-0.04688390703169768,0.03178,0.42098,-0.51282,18.5,0,1126,632,351,1760,24.1903515625,94995,17.50090737280132,999.2045849642382,0,,,,N/A
2024-03-17T16:20:37,-0.346959277,0.18185451760000002,10.1431750014,0.04276056667386108,0.0038179077387375964,-0.04627304179349966,0.03318,0.4089400000000001,-0.5289200000000001,18.5,0,1126,632,351,1760,24.1903515625,94995,17.50090737280132,999.2045849642382,0,,,,N/A
2024-03-17T16:20:38,-0.30209385325,0.22612173569999997,10.199406332499999,0.040317105721069016,-0.0003054326190990077,-0.04474587869800463,0.03318,0.4089400000000001,-0.5289200000000001,18.5,0,1126,632,350,1760,24.1903515625,94995,17.50090737280132,999.2045849642382,0,,,,N/A
2024-03-17T16:20:38,-0.3397808092,0.24107687694999996,10.114461130199999,0.038789942625573975,-0.0003054326190990077,-0.04321871560250959,0.028140000000000005,0.41538,-0.5327000000000001,18.5,0,1126,632,350,1760,24.1903515625,94995,17.50090737280132,999.2045849642382,0,,,,N/A
2024-03-17T16:20:38,-0.33140593009999997,0.22552353004999998,10.11625574715,0.0003054326190990077,0.001069014166846527,-0.04917465167494024,0.028700000000000003,0.4053,-0.5317200000000001,18.5,0,1126,632,350,1760,24.1485546875,94889,17.503761398776618,999.2093413614809,0,,,,N/A
2024-03-17T16:20:38,-0.31106693799999996,0.23868405434999998,10.0594262104,0.04291328298341058,-0.005803219762881146,-0.04688390703169768,0.028700000000000003,0.41258000000000006,-0.5171600000000001,18.5,0,1126,632,350,1760,24.1485546875,94889,17.503761398776618,999.2093413614809,0,,,,N/A
2024-03-17T16:20:38,-0.2907279459,0.22013967919999997,10.105488045449999,0.04230241774521256,-0.0016798794050445422,-0.04276056667386108,0.03262,0.41286,-0.51968,18.5,0,1126,632,350,1760,24.1485546875,94889,17.503761398776618,999.2093413614809,0,,,,N/A
2024-03-17T16:20:39,-0.36729826909999996,0.19322042494999997,9.988239738049998,0.04291328298341058,-0.0016798794050445422,-0.04550946024575215,0.03262,0.41286,-0.51968,18.5,0,1126,632,350,1760,24.1485546875,94889,17.503761398776618,999.2093413614809,0,,,,N/A
2024-03-17T16:20:39,-0.39840496289999994,0.21296121140000002,10.100702400249999,0.039095375244672985,-0.003207042500539581,-0.04886921905584123,0.02338,0.41734000000000004,-0.52262,18.5,0,1126,632,350,1760,24.1485546875,94889,17.503761398776618,999.2093413614809,0,,,,N/A
2024-03-17T16:20:39,-0.24825534474999997,0.20997018315,10.0187482262,0.040317105721069016,-0.003970624048287101,-0.04230241774521256,0.02842,0.40950000000000003,-0.5265400000000001,18.5,0,1126,632,350,1760,24.1133984375,94782,17.517088857330126,999.2178031332047,0,,,,N/A
2024-03-17T16:20:39,-0.36071800695,0.2117648001,10.122836009299998,0.0435241482216086,-0.005192354524683131,-0.048258353817643214,0.025340000000000005,0.4123,-0.50456,18.5,0,1126,632,350,1760,24.1133984375,94782,17.517088857330126,999.2178031332047,0,,,,N/A
2024-03-17T16:20:39,-0.3212364340499999,0.22911276394999996,10.150951674849997,0.039400807863771994,-0.038637226316024474,-0.040622538340168025,0.025340000000000005,0.4123,-0.50456,18.5,0,1126,632,350,1760,24.1133984375,94782,17.517088857330126,999.2178031332047,0,,,,N/A
2024-03-17T16:20:40,-0.32662028489999995,0.2225325018,10.106086251099997,0.04016438941151951,-0.0035124751196385882,-0.04489859500755413,0.03542,0.41874000000000006,-0.52822,18.5,0,1126,632,350,1760,24.1133984375,94782,17.517088857330126,999.2178031332047,0,,,,N/A
2024-03-17T16:20:40,-0.33200413574999993,0.22671994134999998,10.0666046782,0.0433714319120591,-0.006108652381980154,-0.04810563750809371,0.02338,0.41762000000000005,-0.5360600000000001,18.5,0,1126,632,350,1760,24.1133984375,94782,17.517088857330126,999.2178031332047,0,,,,N/A
2024-03-17T16:20:40,-0.31645078885,0.2237289131,10.1001041946,0.04046982203061852,-0.00473420559603462,-0.04886921905584123,0.0413,0.41118000000000005,-0.53886,18.5,0,1126,632,350,1760,24.1133984375,94782,17.517088857330126,999.2178031332047,0,,,,N/A
2024-03-17T16:20:40,-0.33080772444999995,0.23688943739999999,10.0558369765,0.04153883619746505,0.0013744467859455349,-0.043982297150257116,0.0413,0.41118000000000005,-0.53886,18.5,0,1126,632,350,1760,24.0864453125,95317,17.520726366370276,999.2307425085121,0,,,,N/A
2024-03-17T16:20:40,-0.31106693799999996,0.22432711874999997,10.1479606466,0.04382958084070761,-0.0027488935718910697,-0.04428772976935611,0.027020000000000002,0.41790000000000005,-0.5262600000000001,18.5,0,1125,631,350,1759,24.2915234375,101291,17.577159745011553,999.2147995493142,0,,,,N/A
2024-03-17T16:20:40,-0.31226334929999994,0.22552353004999998,10.222138147199999,0.04214970143566306,-0.0007635815477475193,-0.04856378643674222,0.03234,0.4151,-0.5301800000000001,18.5,0,1125,631,350,1759,24.2915234375,101291,17.577159745011553,999.2147995493142,0,,,,N/A
2024-03-17T16:20:40,-0.34217363179999993,0.21894326790000002,10.0749795573,0.04428772976935611,-0.003970624048287101,-0.0433714319120591,0.03234,0.4151,-0.5301800000000001,18.5,0,1125,631,350,1759,24.2915234375,101291,17.577159745011553,999.2147995493142,0,,,,N/A
2024-03-17T16:20:41,-0.35593236175,0.19022939669999997,10.076175968599998,0.039400807863771994,-0.0024434609527920616,-0.04505131131710364,0.02562,0.41706000000000004,-0.5321400000000001,18.5,0,1125,631,350,1759,24.2915234375,101291,17.577159745011553,999.2147995493142,0,,,,N/A
2024-03-17T16:20:41,-0.3062812928,0.21236300575,10.0462656861,0.039706240482871004,-0.004886921905584123,-0.04596760917440065,0.032900000000000006,0.4207,-0.51632,18.5,0,1125,631,350,1759,24.2915234375,101291,17.577159745011553,999.2147995493142,0,,,,N/A
2024-03-17T16:20:41,-0.29970103065,0.2644068973,10.01456078665,0.03924809155422249,0.001069014166846527,-0.04642575810304917,0.03122,0.41762000000000005,-0.52192,18.5,0,1126,632,350,1759,24.2962109375,99499,17.552079793715947,999.2224368843526,0,,,,N/A
2024-03-17T16:20:41,-0.32303105099999996,0.22193429615000002,10.052845948249999,0.04092797095926703,-0.0003054326190990077,-0.04413501345980661,0.03318,0.41398,-0.5194000000000001,18.5,0,1126,632,350,1759,24.2962109375,99499,17.552079793715947,999.2224368843526,0,,,,N/A
2024-03-17T16:20:41,-0.3391826035499999,0.23330020349999997,10.0893364929,0.038179077387375956,-0.0033597588100890844,-0.04413501345980661,0.03318,0.41398,-0.5194000000000001,18.5,0,1126,632,350,1759,24.2962109375,99499,17.552079793715947,999.2224368843526,0,,,,N/A
2024-03-17T16:20:42,-0.3332005470499999,0.19680965884999999,10.073783145999998,0.04001167310197001,-0.005345070834232635,-0.043982297150257116,0.025900000000000003,0.41202000000000005,-0.52374,18.5,0,1126,632,350,1759,24.2962109375,99499,17.552079793715947,999.2224368843526,0,,,,N/A
2024-03-17T16:20:42,-0.32422746229999994,0.20817556619999997,10.148558852249998,0.039400807863771994,0.0012217304763960308,-0.04703662334124718,0.02842,0.41650000000000004,-0.51968,18.5,0,1126,632,350,1759,24.2962109375,99499,17.552079793715947,999.2224368843526,0,,,,N/A
2024-03-17T16:20:42,-0.33439695834999994,0.2177468566,10.097711372000001,0.04123340357836604,0.0006108652381980154,-0.0474947722698957,0.028700000000000003,0.41538,-0.5334000000000001,18.5,0,1126,632,350,1760,24.245625,97543,17.539270798200246,999.2235562237661,0,,,,N/A
2024-03-17T16:20:42,-0.34755748264999997,0.19980068709999999,10.14736244095,0.037110063220529434,-0.0068722339297276735,-0.04642575810304917,0.028700000000000003,0.41370000000000007,-0.52444,18.5,0,1126,632,350,1760,24.245625,97543,17.539270798200246,999.2235562237661,0,,,,N/A
2024-03-17T16:20:42,-0.3493520996,0.19142580799999998,10.1168539528,0.03802636107782646,-0.00045814892864851157,-0.04673119072214818,0.03374,0.41762000000000005,-0.5209400000000001,18.5,0,1126,632,350,1760,24.245625,97543,17.539270798200246,999.2235562237661,0,,,,N/A
2024-03-17T16:20:43,-0.27696921594999996,0.19322042494999997,10.079765202499999,0.038942658935123484,-0.0013744467859455349,-0.04718933965079669,0.030940000000000002,0.41566000000000003,-0.5136600000000001,18.5,0,1126,632,350,1760,24.245625,97543,17.539270798200246,999.2235562237661,0,,,,N/A
2024-03-17T16:20:43,-0.45463629399999994,0.22671994134999998,10.138987561849998,0.04505131131710364,-0.0018325957145940463,-0.043676864531158106,0.03514,0.41846000000000005,-0.51856,18.5,0,1126,632,350,1760,24.245625,97543,17.539270798200246,999.2235562237661,0,,,,N/A
2024-03-17T16:20:43,-0.35473595045,0.20458633229999998,10.14018397315,0.04077525464971753,-0.001069014166846527,-0.04703662334124718,0.030940000000000002,0.4025000000000001,-0.5258400000000001,18.5,0,1125,631,350,1759,24.1954296875,97318,17.53155055053274,999.2253005646738,0,,,,N/A
2024-03-17T16:20:43,-0.27996024419999993,0.20279171534999998,9.958329455549999,0.04123340357836604,0.0,-0.04627304179349966,0.025060000000000002,0.41650000000000004,-0.5208,18.5,0,1125,631,350,1759,24.1954296875,97318,17.53155055053274,999.2253005646738,0,,,,N/A
2024-03-17T16:20:43,-0.3278166962,0.21355941705,10.112666513249998,0.04123340357836604,0.0007635815477475193,-0.0474947722698957,0.030940000000000002,0.41006000000000004,-0.5184200000000001,18.5,0,1125,631,350,1759,24.1954296875,97318,17.53155055053274,999.2253005646738,0,,,,N/A
2024-03-17T16:20:44,-0.37387853125,0.2117648001,10.11745215845,0.040317105721069016,-0.002901609881440573,-0.04627304179349966,0.032060000000000005,0.41930000000000006,-0.52486,18.5,0,1125,631,350,1759,24.1954296875,97318,17.53155055053274,999.2253005646738,0,,,,N/A
2024-03-17T16:20:44,-0.3296113131499999,0.19740786449999997,10.088140081599997,0.04291328298341058,-0.0015271630954950385,-0.050396382151336266,0.032060000000000005,0.41930000000000006,-0.52486,18.5,0,1125,631,350,1759,24.1954296875,97318,17.53155055053274,999.2253005646738,0,,,,N/A
2024-03-17T16:20:44,-0.36251262389999994,0.22073788485,10.080961613799998,0.039553524173321496,-0.0012217304763960308,-0.050701814770435276,0.025060000000000002,0.41818000000000005,-0.52192,18.5,0,1125,631,350,1758,24.15421875,96871,17.53443342865082,999.2345657721619,0,,,,N/A
2024-03-17T16:20:44,-0.29970103065,0.2165504453,10.0354979844,0.039095375244672985,-0.004276056667386108,-0.04612032548395016,0.03962,0.4142600000000001,-0.51338,18.5,0,1125,631,350,1758,24.15421875,96871,17.53443342865082,999.2345657721619,0,,,,N/A
2024-03-17T16:20:44,-0.3296113131499999,0.2237289131,10.050453125649998,0.03802636107782646,-0.0006108652381980154,-0.04780020488899471,0.030380000000000004,0.4081,-0.51548,18.5,0,1125,631,350,1758,24.15421875,96871,17.53443342865082,999.2345657721619,0,,,,N/A
2024-03-17T16:20:45,-0.3278166962,0.20997018315,10.145567823999999,0.039553524173321496,-0.0044287729769356115,-0.04001167310197001,0.028700000000000003,0.41762000000000005,-0.5140800000000001,18.5,0,1125,631,350,1758,24.15421875,96871,17.53443342865082,999.2345657721619,0,,,,N/A
2024-03-17T16:20:45,-0.3098705267,0.21595223965000002,10.1443714127,0.04123340357836604,-0.0033597588100890844,-0.0476474885794452,0.028700000000000003,0.41762000000000005,-0.5140800000000001,18.5,0,1125,631,349,1757,24.15421875,96871,17.53443342865082,999.2345657721619,0,,,,N/A
2024-03-17T16:20:45,-0.31704899449999996,0.21355941705,10.07557776295,0.04673119072214818,-0.002138028333693054,-0.04550946024575215,0.03122,0.41006000000000004,-0.5394200000000001,18.5,0,1125,631,349,1757,24.15421875,96871,17.53443342865082,999.2345657721619,0,,,,N/A
2024-03-17T16:20:45,-0.3337987527,0.2069791549,10.24068252235,0.04474587869800463,-0.0025961772623415654,-0.04780020488899471,0.02478,0.42378000000000005,-0.5230400000000001,18.5,0,1125,631,349,1757,24.12140625,97318,17.542823222115185,999.2379613371251,0,,,,N/A
2024-03-17T16:20:45,-0.35413774480000004,0.24047867129999997,10.176674517799999,0.04230241774521256,-0.0024434609527920616,-0.0476474885794452,0.0315,0.41818000000000005,-0.5236000000000001,18.5,0,1124,630,349,1755,24.3223828125,105799,17.593998579212442,999.2153055651479,0,,,,N/A
2024-03-17T16:20:45,-0.26739792554999997,0.2763710103,10.030114133549999,0.041844268816564056,-0.004276056667386108,-0.04321871560250959,0.038500000000000006,0.40642,-0.5166000000000001,18.5,0,1124,630,349,1755,24.3223828125,105799,17.593998579212442,999.2153055651479,0,,,,N/A
2024-03-17T16:20:45,-0.31046873235,0.24287149389999999,10.078568791199999,0.07712173632249944,0.0019853120241435504,-0.04291328298341058,0.030100000000000002,0.41762000000000005,-0.52696,18.5,0,1124,630,349,1755,24.3223828125,105799,17.593998579212442,999.2153055651479,0,,,,N/A
2024-03-17T16:20:46,-0.39302111205,0.2225325018,9.97148997985,0.039553524173321496,-0.0018325957145940463,-0.04413501345980661,0.030940000000000002,0.41454,-0.52402,18.5,0,1124,630,349,1755,24.3223828125,105799,17.593998579212442,999.2153055651479,0,,,,N/A
2024-03-17T16:20:46,-0.3152543775499999,0.2009970984,10.076774174250001,0.039706240482871004,-0.0013744467859455349,-0.050549098460885775,0.030940000000000002,0.41454,-0.52402,18.5,0,1124,630,349,1755,24.3223828125,105799,17.593998579212442,999.2153055651479,0,,,,N/A
2024-03-17T16:20:46,-0.36191441825,0.20997018315,10.085149053349998,0.038789942625573975,-0.0013744467859455349,-0.04550946024575215,0.02114,0.41818000000000005,-0.52108,18.5,0,1123,630,349,1755,24.3247265625,102896,17.568789123682343,999.2244569699426,0,,,,N/A
2024-03-17T16:20:46,-0.36610185780000004,0.22731814699999997,10.097113166349997,0.04214970143566306,-0.005345070834232635,-0.04856378643674222,0.03542,0.41202000000000005,-0.518,18.5,0,1123,630,349,1755,24.3247265625,102896,17.568789123682343,999.2244569699426,0,,,,N/A
2024-03-17T16:20:46,-0.34516466005,0.18963119104999998,10.061819032999999,0.04291328298341058,-0.003207042500539581,-0.04596760917440065,0.026740000000000003,0.41034000000000004,-0.51786,18.5,0,1123,630,349,1755,24.3247265625,102896,17.568789123682343,999.2244569699426,0,,,,N/A
2024-03-17T16:20:47,-0.34337004309999997,0.19381863059999999,10.082756230749998,0.04321871560250959,-0.006108652381980154,-0.04780020488899471,0.04046,0.41958000000000006,-0.5215,18.5,0,1123,630,349,1755,24.3247265625,102896,17.568789123682343,999.2244569699426,0,,,,N/A
2024-03-17T16:20:47,-0.31046873235,0.1806581063,10.0893364929,0.036804630601430424,-0.00045814892864851157,-0.04642575810304917,0.04046,0.41958000000000006,-0.5215,18.5,0,1123,630,349,1755,24.3247265625,102896,17.568789123682343,999.2244569699426,0,,,,N/A
2024-03-17T16:20:47,-0.16151552549999998,0.20518453794999997,10.154540908749999,0.040622538340168025,-0.0056505034533316425,-0.04673119072214818,0.02478,0.42042,-0.51674,18.5,0,1121,629,348,1752,24.2700390625,101048,17.535499323677158,999.2295645941872,0,,,,N/A
2024-03-17T16:20:47,-0.35174492220000003,0.20159530404999998,10.112666513249998,0.03634648167278191,-0.003207042500539581,-0.04520402762665314,0.03542,0.41286,-0.51926,18.5,0,1121,629,348,1752,24.2700390625,101048,17.535499323677158,999.2295645941872,0,,,,N/A
2024-03-17T16:20:47,-0.32841490184999994,0.20398812665,10.086943670299998,0.04230241774521256,-0.006414085001079162,-0.04596760917440065,0.03234,0.41566000000000003,-0.5231800000000001,18.5,0,1121,629,348,1752,24.2700390625,101048,17.535499323677158,999.2295645941872,0,,,,N/A
2024-03-17T16:20:48,-0.32063822839999995,0.19262221929999998,9.9960164115,0.040622538340168025,-0.004581489286485115,-0.04856378643674222,0.03234,0.41566000000000003,-0.5231800000000001,18.5,0,1121,629,348,1752,24.2700390625,101048,17.535499323677158,999.2295645941872,0,,,,N/A
2024-03-17T16:20:48,-0.32004002274999993,0.23270199784999998,10.066006472549999,0.04306599929296009,-0.0013744467859455349,-0.04856378643674222,0.030940000000000002,0.42574000000000006,-0.5222,18.5,0,1121,629,348,1752,24.2700390625,101048,17.535499323677158,999.2295645941872,0,,,,N/A
2024-03-17T16:20:48,-0.346959277,0.18723836844999997,10.025926693999999,0.038179077387375956,-0.003207042500539581,-0.04917465167494024,0.027020000000000002,0.41790000000000005,-0.49910000000000004,19.5,0,1120,628,347,1750,24.2180859375,100030,17.527685981375654,999.2302270209199,0,,,,N/A
2024-03-17T16:20:48,-0.27996024419999993,0.22492532440000002,10.1132647189,0.036804630601430424,-0.004581489286485115,-0.049021935365390734,0.03122,0.41202000000000005,-0.51548,19.5,0,1120,628,347,1750,24.2180859375,100030,17.527685981375654,999.2302270209199,0,,,,N/A
2024-03-17T16:20:48,-0.34337004309999997,0.22013967919999997,10.101898811549999,0.03772092845872745,-0.0003054326190990077,-0.04596760917440065,0.030380000000000004,0.41398,-0.52332,18.5,0,1120,628,347,1750,24.2180859375,100030,17.527685981375654,999.2302270209199,0,,,,N/A
2024-03-17T16:20:49,-0.4366901245,0.2105683888,10.025926693999999,0.039858956792420505,-0.004886921905584123,-0.0435241482216086,0.030380000000000004,0.41398,-0.52332,18.5,0,1120,628,347,1750,24.2180859375,100030,17.527685981375654,999.2302270209199,0,,,,N/A
2024-03-17T16:20:49,-0.30508488149999996,0.23509482044999996,9.97029356855,0.04291328298341058,-0.0018325957145940463,-0.04581489286485116,0.02758,0.41090000000000004,-0.51562,18.5,0,1120,628,347,1750,24.2180859375,100030,17.527685981375654,999.2302270209199,0,,,,N/A
2024-03-17T16:20:49,-0.3391826035499999,0.21355941705,10.04985492,0.040317105721069016,-0.00473420559603462,-0.048411070127192715,0.03402,0.41342,-0.5038600000000001,18.5,0,1119,628,347,1749,24.1743359375,99970,17.525371941556728,999.2389132670185,0,,,,N/A
2024-03-17T16:20:49,-0.42532421714999996,0.15732808594999997,10.1001041946,0.04245513405476207,-0.0016798794050445422,-0.0476474885794452,0.0315,0.4151,-0.5119800000000001,18.5,0,1119,628,347,1749,24.1743359375,99970,17.525371941556728,999.2389132670185,0,,,,N/A
2024-03-17T16:20:50,-0.3098705267,0.2165504453,10.100702400249999,0.03802636107782646,-0.005192354524683131,-0.04474587869800463,0.030380000000000004,0.41874000000000006,-0.5227600000000001,18.5,0,1119,628,347,1749,24.1743359375,99970,17.525371941556728,999.2389132670185,0,,,,N/A
2024-03-17T16:20:50,-0.3152543775499999,0.19202401365,10.07438135165,0.04230241774521256,-0.001069014166846527,-0.048411070127192715,0.030380000000000004,0.41874000000000006,-0.5227600000000001,18.5,0,1119,628,347,1749,24.1743359375,99970,17.525371941556728,999.2389132670185,0,,,,N/A
2024-03-17T16:20:50,-0.3062812928,0.25423740125,10.110871896299999,0.038789942625573975,-0.00473420559603462,-0.04673119072214818,0.028700000000000003,0.41258000000000006,-0.5257000000000001,18.5,0,1119,628,347,1749,24.1743359375,99970,17.525371941556728,999.2389132670185,0,,,,N/A
2024-03-17T16:20:50,-0.33678978094999995,0.19621145319999997,10.028319516599998,0.04214970143566306,-0.004886921905584123,-0.04474587869800463,0.02842,0.42294000000000004,-0.52136,18.5,0,1119,628,347,1749,24.1743359375,99970,17.525371941556728,999.2389132670185,0,,,,N/A
2024-03-17T16:20:50,-0.28414768374999994,0.21834506225,10.07916699685,0.04382958084070761,-0.001069014166846527,-0.04703662334124718,0.03542,0.41622000000000003,-0.52458,18.5,0,1119,628,347,1749,24.139375,99616,17.513399635995643,999.2423647300752,0,,,,N/A
2024-03-17T16:20:50,-0.32063822839999995,0.21954147355,10.001998467999998,0.038484510006474966,0.001069014166846527,-0.050549098460885775,0.030100000000000002,0.42266000000000004,-0.52234,18.5,0,1120,628,347,1750,24.339765625,108661,17.5695871317618,999.2205167223733,0,,,,N/A
2024-03-17T16:20:50,-0.36370903520000003,0.18424734019999997,10.067801089499998,0.04489859500755413,0.0006108652381980154,-0.04535674393620265,0.030940000000000002,0.42042,-0.52136,18.5,0,1120,628,347,1750,24.339765625,108661,17.5695871317618,999.2205167223733,0,,,,N/A
2024-03-17T16:20:50,-0.34636107135,0.20638094924999997,10.078568791199999,0.04230241774521256,0.0003054326190990077,-0.04413501345980661,0.032060000000000005,0.4207,-0.50148,18.5,0,1120,628,347,1750,24.339765625,108661,17.5695871317618,999.2205167223733,0,,,,N/A
2024-03-17T16:20:51,-0.2656033086,0.22013967919999997,10.076175968599998,0.04444044607890562,-0.0013744467859455349,-0.043982297150257116,0.032060000000000005,0.4207,-0.50148,18.5,0,1120,628,347,1750,24.339765625,108661,17.5695871317618,999.2205167223733,0,,,,N/A
2024-03-17T16:20:51,-0.35234312785,0.1890329854,10.080961613799998,0.04153883619746505,-0.002901609881440573,-0.0433714319120591,0.023940000000000003,0.41678000000000004,-0.51968,18.5,0,1120,628,347,1750,24.339765625,108661,17.5695871317618,999.2205167223733,0,,,,N/A
2024-03-17T16:20:51,-0.42771703974999997,0.19202401365,10.042676452199998,0.04550946024575215,-0.0027488935718910697,-0.050243665841786765,0.027300000000000005,0.40950000000000003,-0.53634,18.5,0,1119,628,347,1749,24.3409375,105075,17.529124678257638,999.2277589663586,0,,,,N/A
2024-03-17T16:20:51,-0.31824540579999994,0.23210379219999996,10.132407299699999,0.04260785036431157,-0.0015271630954950385,-0.04703662334124718,0.027860000000000003,0.42154,-0.5285,18.5,0,1119,628,347,1749,24.3409375,105075,17.529124678257638,999.2277589663586,0,,,,N/A
2024-03-17T16:20:52,-0.35952159564999997,0.23270199784999998,10.076175968599998,0.04123340357836604,-0.0024434609527920616,-0.043676864531158106,0.027860000000000003,0.42014000000000007,-0.51268,18.5,0,1119,628,347,1749,24.3409375,105075,17.529124678257638,999.2277589663586,0,,,,N/A
2024-03-17T16:20:52,-0.2907279459,0.2237289131,10.0594262104,0.041996985126113565,-0.00595593607243065,-0.04413501345980661,0.026180000000000002,0.42014000000000007,-0.51268,18.5,0,1119,628,347,1749,24.3409375,105075,17.529124678257638,999.2277589663586,0,,,,N/A
2024-03-17T16:20:52,-0.27577280465,0.19561324754999998,10.1072826624,0.03741549583962844,-0.0003054326190990077,-0.04627304179349966,0.027300000000000005,0.41762000000000005,-0.5182800000000001,18.5,0,1119,628,347,1749,24.3409375,105075,17.529124678257638,999.2277589663586,0,,,,N/A
2024-03-17T16:20:52,-0.26380869165,0.19202401365,10.0438728635,0.039553524173321496,-0.002901609881440573,-0.04459316238845512,0.032060000000000005,0.41202000000000005,-0.5044200000000001,18.5,0,1119,628,347,1749,24.28625,102834,17.50597532998797,999.2346478942757,0,,,,N/A
2024-03-17T16:20:52,-0.32841490184999994,0.21714865095,10.110871896299999,0.038331793696925465,-0.0007635815477475193,-0.04474587869800463,0.02646,0.41846000000000005,-0.49938000000000005,18.5,0,1119,628,347,1749,24.28625,102834,17.50597532998797,999.2346478942757,0,,,,N/A
2024-03-17T16:20:53,-0.32063822839999995,0.20338992099999997,10.063015444300001,0.04092797095926703,0.00045814892864851157,-0.04780020488899471,0.02646,0.41846000000000005,-0.49938000000000005,18.5,0,1119,628,347,1749,24.28625,102834,17.50597532998797,999.2346478942757,0,,,,N/A
2024-03-17T16:20:53,-0.27337998204999997,0.24526431649999997,10.050453125649998,0.04001167310197001,0.00015271630954950385,-0.04657847441259867,0.03626000000000001,0.42238000000000003,-0.52136,18.5,0,1119,628,347,1749,24.28625,102834,17.50597532998797,999.2346478942757,0,,,,N/A
2024-03-17T16:20:53,-0.35234312785,0.22193429615000002,10.076175968599998,0.041386119887915546,-0.003970624048287101,-0.04566217655530165,0.033460000000000004,0.41874000000000006,-0.5194000000000001,18.5,0,1119,628,347,1749,24.28625,102834,17.50597532998797,999.2346478942757,0,,,,N/A
2024-03-17T16:20:53,-0.3026920589,0.23330020349999997,10.0474620974,0.041386119887915546,-0.0016798794050445422,-0.04382958084070761,0.030380000000000004,0.41958000000000006,-0.5227600000000001,18.5,0,1119,627,347,1748,24.2333203125,101964,17.482929915441865,999.2408319260663,0,,,,N/A
2024-03-17T16:20:53,-0.3613162126,0.24167508259999998,10.06481006125,0.0435241482216086,0.001069014166846527,-0.04780020488899471,0.03178,0.41706000000000004,-0.5076400000000001,18.5,0,1119,627,347,1748,24.2333203125,101964,17.482929915441865,999.2408319260663,0,,,,N/A
2024-03-17T16:20:54,-0.34815568830000004,0.25722842949999997,10.0929257268,0.04153883619746505,-0.0025961772623415654,-0.04734205596034619,0.03178,0.41706000000000004,-0.5076400000000001,18.5,0,1119,627,347,1748,24.2333203125,101964,17.482929915441865,999.2408319260663,0,,,,N/A
2024-03-17T16:20:54,-0.35114671655,0.215354034,10.104291634149998,0.04276056667386108,-0.0006108652381980154,-0.04214970143566306,0.03374,0.41706000000000004,-0.51492,18.5,0,1119,627,347,1748,24.2333203125,101964,17.482929915441865,999.2408319260663,0,,,,N/A
2024-03-17T16:20:54,-0.28594230069999993,0.22552353004999998,10.03131054485,0.041386119887915546,-0.005192354524683131,-0.04321871560250959,0.032900000000000006,0.42518000000000006,-0.5139400000000001,18.5,0,1119,627,347,1748,24.2333203125,101964,17.482929915441865,999.2408319260663,0,,,,N/A
2024-03-17T16:20:54,-0.31944181709999997,0.20159530404999998,10.101898811549999,0.0433714319120591,-0.0022907446432425577,-0.04474587869800463,0.03682,0.4207,-0.518,18.5,0,1118,627,347,1748,24.1887890625,102459,17.470458394310832,999.2464702805728,0,,,,N/A
2024-03-17T16:20:54,-0.2835494781,0.19920248144999997,10.08634546465,0.039858956792420505,-0.0056505034533316425,-0.04612032548395016,0.03934,0.41706000000000004,-0.5140800000000001,18.5,0,1118,627,347,1748,24.1887890625,102459,17.470458394310832,999.2464702805728,0,,,,N/A
2024-03-17T16:20:55,-0.34456645439999994,0.215354034,10.070792117749999,0.04214970143566306,-0.0054977871437821395,-0.04550946024575215,0.03934,0.41706000000000004,-0.5140800000000001,18.5,0,1118,627,347,1748,24.1887890625,102459,17.470458394310832,999.2464702805728,0,,,,N/A
2024-03-17T16:20:55,-0.3062812928,0.215354034,10.0594262104,0.04001167310197001,-0.0022907446432425577,-0.04780020488899471,0.034300000000000004,0.41454,-0.5258400000000001,18.5,0,1118,627,347,1748,24.1887890625,102459,17.470458394310832,999.2464702805728,0,,,,N/A
2024-03-17T16:20:55,-0.3415754261499999,0.20219350969999997,10.08634546465,0.038942658935123484,-0.0018325957145940463,-0.048258353817643214,0.041580000000000006,0.41370000000000007,-0.50624,18.5,0,1118,627,347,1748,24.1887890625,102459,17.470458394310832,999.2464702805728,0,,,,N/A
2024-03-17T16:20:55,-0.31046873235,0.20518453794999997,10.154540908749999,0.041996985126113565,-0.0016798794050445422,-0.04382958084070761,0.041580000000000006,0.41370000000000007,-0.50624,18.5,0,1118,627,347,1748,24.1887890625,102459,17.470458394310832,999.2464702805728,0,,,,N/A
2024-03-17T16:20:55,-0.39481572899999995,0.18424734019999997,10.03729260135,0.04214970143566306,-0.00595593607243065,-0.047952921198544204,0.034300000000000004,0.41594000000000003,-0.5135200000000001,18.5,0,1118,627,347,1748,24.153828125,103022,17.463555124968195,999.242815013423,0,,,,N/A
2024-03-17T16:20:55,-0.3397808092,0.2165504453,10.164710404799997,0.03665191429188092,-0.005345070834232635,-0.04382958084070761,0.03262,0.4207,-0.5271,18.5,0,1119,628,347,1749,24.35421875,111681,17.519698757414098,999.2316200506824,0,,,,N/A
2024-03-17T16:20:55,-0.3505485109,0.23330020349999997,10.125228831899998,0.04245513405476207,-0.005345070834232635,-0.04566217655530165,0.03318,0.42602000000000007,-0.52122,18.5,0,1119,628,347,1749,24.35421875,111681,17.519698757414098,999.2316200506824,0,,,,N/A
2024-03-17T16:20:56,-0.33080772444999995,0.2141576227,10.054042359550001,0.038484510006474966,-0.0013744467859455349,-0.048716502746291725,0.03682,0.42938000000000004,-0.53368,18.5,0,1119,628,347,1749,24.35421875,111681,17.519698757414098,999.2316200506824,0,,,,N/A
2024-03-17T16:20:56,-0.25663022385,0.19202401365,10.070792117749999,0.04382958084070761,-0.005192354524683131,-0.04474587869800463,0.03234,0.4207,-0.5157600000000001,18.5,0,1119,628,347,1749,24.35421875,111681,17.519698757414098,999.2316200506824,0,,,,N/A
2024-03-17T16:20:56,-0.2739781877,0.2177468566,10.06839929515,0.04001167310197001,-0.004276056667386108,-0.04489859500755413,0.033460000000000004,0.42042,-0.5220600000000001,18.5,0,1119,628,347,1749,24.35421875,111681,17.519698757414098,999.2316200506824,0,,,,N/A
2024-03-17T16:20:56,-0.30508488149999996,0.20458633229999998,10.104291634149998,0.04260785036431157,-0.0027488935718910697,-0.04673119072214818,0.035980000000000005,0.42098,-0.5139400000000001,18.5,0,1120,628,347,1750,24.3548046875,108801,17.484284070821108,999.2379077867653,0,,,,N/A
2024-03-17T16:20:56,-0.26380869165,0.21236300575,10.061819032999999,0.04260785036431157,-0.001069014166846527,-0.047952921198544204,0.034300000000000004,0.42042,-0.5124000000000001,18.5,0,1120,628,347,1750,24.3548046875,108801,17.484284070821108,999.2379077867653,0,,,,N/A
2024-03-17T16:20:56,-0.3397808092,0.2069791549,10.119844981049999,0.04230241774521256,0.0003054326190990077,-0.0476474885794452,0.03374,0.4151,-0.51912,18.5,0,1120,628,347,1750,24.3548046875,108801,17.484284070821108,999.2379077867653,0,,,,N/A
2024-03-17T16:20:57,-0.31046873235,0.22671994134999998,10.1048898398,0.041080687268816536,-0.0009162978572970231,-0.04780020488899471,0.035980000000000005,0.41454,-0.5019,18.5,0,1120,628,347,1750,24.3548046875,108801,17.484284070821108,999.2379077867653,0,,,,N/A
2024-03-17T16:20:57,-0.3565305674,0.20338992099999997,10.0893364929,0.047952921198544204,-0.004123340357836604,-0.043676864531158106,0.03654,0.42042,-0.5135200000000001,18.5,0,1120,628,347,1750,24.3548046875,108801,17.484284070821108,999.2379077867653,0,,,,N/A
2024-03-17T16:20:57,-0.3272184905499999,0.2009970984,10.076774174250001,0.0013744467859455349,-0.004581489286485115,-0.04978551691313826,0.026740000000000003,0.41622000000000003,-0.51786,18.5,0,1120,628,347,1750,24.2997265625,106669,17.451005527906457,999.2423853603789,0,,,,N/A
2024-03-17T16:20:57,-0.37926238209999996,0.21954147355,10.042676452199998,0.041080687268816536,-0.0019853120241435504,-0.04444044607890562,0.024220000000000002,0.41986,-0.5152,18.5,0,1120,628,347,1750,24.2997265625,106669,17.451005527906457,999.2423853603789,0,,,,N/A
2024-03-17T16:20:57,-0.36251262389999994,0.2165504453,10.07916699685,0.03924809155422249,-0.004276056667386108,-0.04092797095926703,0.034300000000000004,0.40866,-0.52514,18.5,0,1120,628,347,1750,24.2997265625,106669,17.451005527906457,999.2423853603789,0,,,,N/A
2024-03-17T16:20:58,-0.32422746229999994,0.19920248144999997,10.04207824655,0.04306599929296009,-0.0003054326190990077,-0.04428772976935611,0.029820000000000003,0.41762000000000005,-0.51534,18.5,0,1120,628,347,1750,24.2997265625,106669,17.451005527906457,999.2423853603789,0,,,,N/A
2024-03-17T16:20:58,-0.34576286570000003,0.20817556619999997,10.14736244095,0.038484510006474966,-0.003054326190990077,-0.04016438941151951,0.029820000000000003,0.41902000000000006,-0.52346,18.5,0,1120,628,347,1750,24.2997265625,106669,17.451005527906457,999.2423853603789,0,,,,N/A
