Timestamp,Accel_X,Accel_Y,Accel_Z,Gyro_X,Gyro_Y,Gyro_Z,Mag_X,Mag_Y,Mag_Z,LSM9DS1_Temp,Proximity,Color_R,Color_G,Color_B,Color_C,BME680_Temp,Gas,Humidity,Pressure,Switch_Pressed,GPS_Latitude,GPS_Longitude,GPS_Speed,GPS_Timestamp
2024-03-25T13:11:39,-2.976073108749999,1.60857499285,9.491729048549999,0.017715091907742446,0.01664607774089592,0.0829249560853806,0.19586,0.19726000000000002,-0.44254000000000004,2.5,0,0,0,0,0,33.574921875,48209,100,695.662002676745,0,,,,N/A
2024-03-25T13:11:40,-2.95932335055,1.5954144685499996,9.460622354749999,0.01618792881224741,0.019547687622336492,0.08628471489546968,0.19614,0.19586,-0.45038000000000006,2.5,0,0,0,0,0,33.574921875,48209,100,695.662002676745,0,,,,N/A
2024-03-25T13:11:40,-2.9635107901,1.5972090855,9.47378287905,0.01863138976503947,0.015577063574049392,0.08445211918087563,0.19166000000000002,0.19474,-0.46228,2.5,0,0,0,0,0,33.574921875,48209,100,695.662002676745,0,,,,N/A
2024-03-25T13:11:40,-2.9922246613,1.5864413838,9.518648302799999,0.015271630954950386,0.01863138976503947,0.08552113334772216,0.19166000000000002,0.19474,-0.46228,3.5,0,0,0,0,0,33.574921875,48209,100,695.662002676745,0,,,,N/A
2024-03-25T13:11:40,-3.0101708308,1.6025929363499998,9.40798025755,0.019547687622336492,0.01710422666954443,0.08429940287132612,0.19194000000000003,0.19894000000000003,-0.4508000000000001,2.5,0,0,0,0,0,33.574921875,48209,100,695.662002676745,0,,,,N/A
2024-03-25T13:11:40,-3.02632238335,1.5655041860499999,9.4253282214,0.018478673455489966,0.014966198335851376,0.08353582132357862,0.19950000000000004,0.19250000000000003,-0.46088000000000007,2.5,0,0,0,0,0,33.574921875,48209,100,695.662002676745,0,,,,N/A
2024-03-25T13:11:40,-2.9970103064999996,1.5589239239,9.45224747565,0.018020524526841455,0.017256942979093935,0.08628471489546968,0.18634000000000003,0.19110000000000002,-0.44184,3.5,0,0,0,0,0,11.040546875,1746,29.84444314580626,1029.5375156696575,0,,,,N/A
2024-03-25T13:11:40,-2.9946174838999995,1.6055839645999996,9.351748926449998,0.016035212502697904,0.021227567027381034,0.08491026810952414,0.19110000000000002,0.20286,-0.44716,3.5,0,0,0,0,0,11.040546875,1746,29.84444314580626,1029.5375156696575,0,,,,N/A
2024-03-25T13:11:40,-2.9772695200499997,1.61575346065,9.437890540049999,0.020005836550985007,0.020463985479633514,0.08613199858592017,0.18802000000000002,0.20258,-0.44520000000000004,3.5,0,0,0,0,0,11.040546875,1746,29.84444314580626,1029.5375156696575,0,,,,N/A
2024-03-25T13:11:40,-2.9623143788,1.5912270289999997,9.460622354749999,0.016340645121796914,0.016035212502697904,0.08659014751456869,0.19838000000000003,0.19922000000000004,-0.4501,3.5,0,0,0,0,0,11.040546875,1746,29.84444314580626,1029.5375156696575,0,,,,N/A
2024-03-25T13:11:40,-2.9826533709,1.63489604145,9.510871629349998,0.018020524526841455,0.020463985479633514,0.08353582132357862,0.19782000000000002,0.19894000000000003,-0.44464000000000004,3.5,0,0,0,0,0,11.040546875,1746,29.84444314580626,1029.5375156696575,0,40.68906,-73.991616,0.04,17:11:38
2024-03-25T13:11:40,-2.9665018183499994,1.62652116235,9.4253282214,0.01832595714594046,0.021532999646480044,0.0872010127527667,0.19278000000000003,0.20034000000000002,-0.45682000000000006,3.5,0,0,0,0,0,11.29484375,2285,29.912474078806387,1029.5206118768515,0,40.68906,-73.991616,0.04,17:11:38
2024-03-25T13:11:40,-2.9647072013999995,1.5960126742,9.478568524249999,0.016035212502697904,0.018478673455489966,0.08643743120501918,0.18886,0.19838000000000003,-0.44926000000000005,2.5,0,0,0,0,0,11.29484375,2285,29.912474078806387,1029.5206118768515,0,40.68906,-73.99162,0.04,17:11:39
2024-03-25T13:11:40,-3.0245277664,1.5984054967999999,9.510871629349998,0.013591751549905842,0.01863138976503947,0.08460483549042512,0.19278000000000003,0.18942,-0.4494,3.5,0,0,0,0,0,11.29484375,2285,29.912474078806387,1029.5206118768515,0,40.68906,-73.99162,0.04,17:11:39
2024-03-25T13:11:40,-2.9772695200499997,1.6283157792999998,9.482755963799999,0.018173240836390957,0.018784106074588976,0.08506298441907365,0.18746000000000002,0.20258,-0.44632000000000005,3.5,0,0,0,0,0,11.29484375,2285,29.912474078806387,1029.5206118768515,0,40.68906,-73.99162,0.04,17:11:39
2024-03-25T13:11:40,-2.9946174838999995,1.6049857589499996,9.55035320225,0.015882496193148403,0.014966198335851376,0.08582656596682116,0.19558,0.20286,-0.44086000000000003,3.5,0,0,0,0,0,11.29484375,2285,29.912474078806387,1029.5206118768515,0,40.68906,-73.99162,0.06,17:11:39
2024-03-25T13:11:40,-2.97966234265,1.6025929363499998,9.62213788025,0.021532999646480044,0.018020524526841455,0.08506298441907365,0.18438000000000002,0.18774000000000002,-0.4443600000000001,3.5,0,0,0,0,0,11.66671875,2802,29.962116848352345,1029.5202808392457,0,40.68906,-73.99162,0.06,17:11:39
2024-03-25T13:11:40,-2.9712874635499995,1.6187444888999998,9.4707918508,0.015118914645400881,0.020005836550985007,0.08659014751456869,0.18830000000000002,0.19950000000000004,-0.44996,3.5,0,1026,730,1230,3394,11.66671875,2802,29.962116848352345,1029.5202808392457,0,40.689056,-73.991616,0.06,17:11:40
2024-03-25T13:11:40,-2.931207685,1.6271193679999998,9.35055251515,0.020922134408282028,0.020463985479633514,0.08277223977583109,0.19250000000000003,0.2009,-0.4443600000000001,3.5,0,1026,730,1230,3394,11.66671875,2802,29.962116848352345,1029.5202808392457,0,40.689056,-73.991616,0.06,17:11:40
2024-03-25T13:11:40,-2.998206717799999,1.6007983193999997,9.62931634805,0.019242255003237483,0.018784106074588976,0.08659014751456869,0.1897,0.19754000000000002,-0.43946,3.5,0,1026,730,1230,3394,11.66671875,2802,29.962116848352345,1029.5202808392457,0,40.689056,-73.991616,0.06,17:11:40
2024-03-25T13:11:40,-2.9886354273999993,1.59661087985,9.5042913672,0.02061670178918302,0.016951510359994926,0.08399397025222713,0.19502,0.19810000000000003,-0.45444000000000007,3.5,0,1026,730,1230,3394,11.66671875,2802,29.962116848352345,1029.5202808392457,0,40.689056,-73.991616,0.06,17:11:40
2024-03-25T13:11:40,-3.02751879465,1.5864413838,9.580263484749999,0.016035212502697904,0.025350907385217638,0.08521570072862314,0.18634000000000003,0.19754000000000002,-0.4502400000000001,3.5,0,1026,730,1230,3394,12.0637890625,3382,29.991946874902485,1029.5237721434135,0,40.689056,-73.991616,0.06,17:11:40
2024-03-25T13:11:40,-2.976073108749999,1.59661087985,9.553942436149999,0.016798794050445424,0.01756237559819294,0.08521570072862314,0.18438000000000002,0.19642,-0.44800000000000006,3.5,0,1026,730,1230,3394,12.0637890625,3382,29.991946874902485,1029.5237721434135,0,40.689058,-73.99162,0.06,17:11:41
2024-03-25T13:11:41,-2.9766713144,1.6103696097999998,9.52522856495,0.018478673455489966,0.017715091907742446,0.08643743120501918,0.19278000000000003,0.20370000000000002,-0.44716,3.5,0,1026,730,1230,3394,12.4440625,3843,30.009709288488853,1029.536438883762,0,40.689058,-73.99162,0.06,17:11:41
2024-03-25T13:11:41,-3.0209385324999998,1.6091731985,9.486943403349999,0.01863138976503947,0.02336559536107409,0.08261952346628158,0.18662,0.20370000000000002,-0.45122,3.5,0,1026,730,1230,3394,12.4440625,3843,30.009709288488853,1029.536438883762,0,40.689058,-73.99162,0.06,17:11:41
2024-03-25T13:11:41,-3.03350085115,1.6067803759,9.55513884745,0.01664607774089592,0.016798794050445424,0.08582656596682116,0.18662,0.20370000000000002,-0.45122,3.5,0,1026,730,1230,3394,12.4440625,3843,30.009709288488853,1029.536438883762,0,40.689058,-73.99162,0.04,17:11:41
2024-03-25T13:11:41,-2.9665018183499994,1.6067803759,9.58145989605,0.011606439525762293,0.016493361431346415,0.08628471489546968,0.18942,0.19838000000000003,-0.4403000000000001,3.5,0,1026,730,1230,3394,12.4440625,3843,30.009709288488853,1029.536438883762,0,40.689058,-73.99162,0.04,17:11:41
2024-03-25T13:11:41,-2.9898318387,1.5972090855,9.5688975774,0.014813482026301873,0.017409659288643436,0.08521570072862314,0.18522000000000002,0.20174,-0.44534,3.5,0,1026,730,1230,3394,12.4440625,3843,30.009709288488853,1029.536438883762,0,40.68906,-73.991625,0.04,17:11:42
2024-03-25T13:11:42,-2.9964121008499993,1.6193426945499998,9.602995299449999,0.04581489286485116,-0.06643159465403417,-0.057879481319261954,0.18886,0.20762000000000003,-0.46130000000000004,3.5,1,1028,731,1230,3397,12.53390625,4127,29.885174609542936,1029.57910892361,0,40.68906,-73.991625,0.04,17:11:42
2024-03-25T13:11:42,-2.9754749030999994,1.6055839645999996,9.580263484749999,0.03726277953007894,-0.03390302071998985,-0.04734205596034619,0.19250000000000003,0.1953,-0.44002,3.5,1,1028,731,1230,3397,12.53390625,4127,29.885174609542936,1029.57910892361,0,40.68906,-73.991625,0.04,17:11:42
2024-03-25T13:11:42,-2.97966234265,1.60139652505,9.6167540294,0.03481931857728687,-0.013439035240356337,-0.04917465167494024,0.1869,0.20594000000000004,-0.4473000000000001,3.5,1,1028,731,1230,3397,12.53390625,4127,29.885174609542936,1029.57910892361,0,40.68906,-73.991625,0.05,17:11:42
2024-03-25T13:11:42,-3.0257241777000004,1.6002001137499997,9.6095755616,0.03313943917224234,-0.03756821214917795,-0.04978551691313826,0.18662,0.1967,-0.44156000000000006,3.5,1,1028,731,1230,3397,12.53390625,4127,29.885174609542936,1029.57910892361,0,40.68906,-73.991625,0.05,17:11:42
2024-03-25T13:11:42,-2.9826533709,1.5780665047,9.574879633899998,0.0319177086958463,0.0119118721448613,-0.04428772976935611,0.19166000000000002,0.20482000000000003,-0.45598,3.5,1,1028,731,1230,3397,12.53390625,4127,29.885174609542936,1029.57910892361,0,40.689061,-73.991628,0.05,17:11:43
2024-03-25T13:11:43,-2.96889464095,1.6097714041500002,9.61137017855,0.0316122760767473,0.007483099167925688,-0.03252857393404432,0.19278000000000003,0.20006000000000004,-0.44828,3.5,1,1028,731,1231,3398,12.1887890625,4304,29.542547893747862,1029.5809543000737,0,40.689061,-73.991628,0.05,17:11:43
2024-03-25T13:11:43,-2.9766713144,1.59900370245,9.6358966102,0.03588833274413341,0.0068722339297276735,-0.03359758810089085,0.18830000000000002,0.20034000000000002,-0.44996,3.5,1,1028,731,1231,3398,12.1887890625,4304,29.542547893747862,1029.5809543000737,0,40.689061,-73.991628,0.05,17:11:43
2024-03-25T13:11:43,-2.9694928465999992,1.59661087985,9.61495941245,0.039858956792420505,0.00595593607243065,-0.03481931857728687,0.18942,0.1953,-0.4548600000000001,3.5,1,1028,731,1231,3398,12.1887890625,4304,29.542547893747862,1029.5809543000737,0,40.689061,-73.991628,0.05,17:11:43
2024-03-25T13:11:43,-2.9964121008499993,1.6151552549999997,9.62213788025,0.03756821214917795,0.012675453692608819,-0.03634648167278191,0.18466000000000002,0.19922000000000004,-0.44254000000000004,3.5,1,1028,731,1231,3398,12.1887890625,4304,29.542547893747862,1029.5809543000737,0,40.689061,-73.991628,0.05,17:11:43
2024-03-25T13:11:43,-3.00478697995,1.6103696097999998,9.6658068927,0.0319177086958463,0.0054977871437821395,-0.03329215548179184,0.18746000000000002,0.19922000000000004,-0.44114000000000003,3.5,1,1028,731,1231,3398,12.1887890625,4304,29.542547893747862,1029.5809543000737,0,40.689061,-73.991628,0.05,17:11:43
2024-03-25T13:11:43,-3.026920589,1.5954144685499996,9.6981099978,0.03802636107782646,0.008552113334772215,-0.03512475119638588,0.18382,0.20622000000000001,-0.44926000000000005,3.5,1,1028,731,1231,3398,11.8872265625,4638,29.313216170315357,1029.5935265321084,0,40.689061,-73.991628,0.05,17:11:43
2024-03-25T13:11:43,-2.9718856691999997,1.5912270289999997,9.643075077999999,0.03588833274413341,0.007483099167925688,-0.03466660226773738,0.19138000000000002,0.19698000000000002,-0.44576000000000005,3.5,1,1028,731,1232,3400,11.8872265625,4638,29.313216170315357,1029.5935265321084,0,40.689061,-73.991628,0.05,17:11:43
2024-03-25T13:11:43,-3.0197421211999997,1.6073785815499997,9.5018985446,0.03695734691097993,0.006261368691529657,-0.03512475119638588,0.18438000000000002,0.2023,-0.43988000000000005,3.5,1,1028,731,1232,3400,11.8872265625,4638,29.313216170315357,1029.5935265321084,0,40.689061,-73.991628,0.06,17:11:43
2024-03-25T13:11:43,-2.97966234265,1.61694987195,9.75493953455,0.0355829001250344,0.010384709049366262,-0.036804630601430424,0.18746000000000002,0.19334000000000004,-0.45976000000000006,3.5,1,1028,731,1232,3400,11.8872265625,4638,29.313216170315357,1029.5935265321084,0,40.689061,-73.991628,0.06,17:11:43
2024-03-25T13:11:43,-2.97846593135,1.5912270289999997,9.6263253198,0.03695734691097993,0.0054977871437821395,-0.03665191429188092,0.19110000000000002,0.20538000000000003,-0.45542,3.5,1,1028,731,1232,3400,11.8872265625,4638,29.313216170315357,1029.5935265321084,0,40.689063,-73.991631,0.06,17:11:44
2024-03-25T13:11:44,-2.9814569596,1.59900370245,9.6035935051,0.038484510006474966,0.005039638215133627,-0.03207042500539581,0.18802000000000002,0.21126000000000003,-0.45514000000000004,3.5,1,1025,729,1232,3394,11.896796875,5358,29.35745713290278,1029.5609352972708,0,40.689063,-73.991631,0.06,17:11:44
2024-03-25T13:11:44,-2.98444798785,1.5810575329499996,9.638887638449999,0.03543018381548489,0.00916297857297023,-0.03527746750593539,0.18550000000000003,0.20202,-0.44926000000000005,3.5,1,1025,729,1232,3394,11.896796875,5358,29.35745713290278,1029.5609352972708,0,40.689063,-73.991631,0.06,17:11:44
2024-03-25T13:11:44,-2.9862426047999997,1.6366906583999998,9.583254513,0.0357356164345839,0.010231992739816757,-0.03512475119638588,0.18830000000000002,0.20454000000000003,-0.43806000000000006,3.5,1,1025,729,1232,3394,11.896796875,5358,29.35745713290278,1029.5609352972708,0,40.689063,-73.991631,0.06,17:11:44
2024-03-25T13:11:44,-3.0173492985999992,1.61096781545,9.628718142399999,0.036499197982331415,0.010842857978014774,-0.03313943917224234,0.18998,0.20762000000000003,-0.45416,3.5,1,1025,729,1232,3394,11.896796875,5358,29.35745713290278,1029.5609352972708,0,40.689063,-73.991631,0.06,17:11:44
2024-03-25T13:11:44,-2.98923363305,1.6079767872,9.69033332435,0.03420845333908886,0.010384709049366262,-0.03283400655314333,0.19474,0.19810000000000003,-0.44758000000000003,3.5,1,1025,729,1232,3394,11.896796875,5358,29.35745713290278,1029.5609352972708,0,40.689064,-73.991633,0.06,17:11:45
2024-03-25T13:11:45,-2.9491538545,1.5894324120499999,9.7878408453,0.03543018381548489,0.011606439525762293,-0.03329215548179184,0.18018,0.20678000000000002,-0.43386,3.5,1,1024,730,1234,3398,11.733515625,5647,29.127951455239664,1029.576348690433,0,40.689064,-73.991633,0.06,17:11:45
2024-03-25T13:11:45,-2.88873508385,1.5948162628999998,9.608977355949998,0.03405573702953936,0.007635815477475193,-0.03497203488683638,0.18046,0.20594000000000004,-0.44534,3.5,1,1024,730,1234,3398,11.733515625,5647,29.127951455239664,1029.576348690433,0,40.689064,-73.991633,0.06,17:11:45
2024-03-25T13:11:45,-2.95453770535,1.61216422675,9.60060247685,0.03741549583962844,0.012370021073509813,-0.03420845333908886,0.18662,0.2093,-0.43596,3.5,1,1024,730,1234,3398,11.733515625,5647,29.127951455239664,1029.576348690433,0,40.689064,-73.991633,0.05,17:11:45
2024-03-25T13:11:45,-3.00478697995,1.5852449725,9.66879792095,0.039553524173321496,0.0068722339297276735,-0.03329215548179184,0.18326,0.20314000000000002,-0.44828,3.5,1,1024,730,1234,3398,11.733515625,5647,29.127951455239664,1029.576348690433,0,40.689064,-73.991633,0.05,17:11:45
2024-03-25T13:11:45,-2.9946174838999995,1.5948162628999998,9.647262517549999,0.03436116964863837,0.006719517620178169,-0.03665191429188092,0.18746000000000002,0.20454000000000003,-0.4491200000000001,3.5,1,1024,730,1234,3398,11.733515625,5647,29.127951455239664,1029.576348690433,0,40.689068,-73.991638,0.05,17:11:46
2024-03-25T13:11:46,-3.0293134116,1.5930216459499997,9.59581683165,0.03481931857728687,0.013897184169004852,-0.03344487179134134,0.19614,0.19586,-0.45332000000000006,3.5,1,1032,735,1239,3415,11.5450390625,5976,28.91340990997388,1029.5871381015663,0,40.689068,-73.991638,0.05,17:11:46
2024-03-25T13:11:46,-3.0053851856,1.61096781545,9.6562356023,0.04123340357836604,0.01145372321621279,-0.0355829001250344,0.18662,0.19782000000000002,-0.44492000000000004,3.5,1,1032,735,1239,3415,11.5450390625,5976,28.91340990997388,1029.5871381015663,0,40.689068,-73.991638,0.05,17:11:46
2024-03-25T13:11:46,-2.97966234265,1.60857499285,9.601798888149998,0.03359758810089085,0.010995574287564279,-0.03436116964863837,0.18466000000000002,0.20174,-0.43484,3.5,1,1032,735,1239,3415,11.5450390625,5976,28.91340990997388,1029.5871381015663,0,40.689068,-73.991638,0.05,17:11:46
2024-03-25T13:11:46,-3.0113672421,1.6061821702499999,9.800403163949998,0.038331793696925465,0.006261368691529657,-0.03130684345764829,0.18718,0.19782000000000002,-0.43302,3.5,1,1032,735,1239,3415,11.5450390625,5976,28.91340990997388,1029.5871381015663,0,40.689068,-73.991638,0.05,17:11:46
2024-03-25T13:11:46,-2.9539394997,1.6097714041500002,9.646664311899999,0.036193765363232405,0.010842857978014774,-0.03344487179134134,0.18718,0.19782000000000002,-0.43302,3.5,1,1032,735,1239,3415,11.5450390625,5976,28.91340990997388,1029.5871381015663,0,40.68907,-73.991638,0.05,17:11:47
2024-03-25T13:11:47,-2.9772695200499997,1.6061821702499999,9.727422074649999,0.03695734691097993,0.010995574287564279,-0.03359758810089085,0.18354,0.20062000000000002,-0.4578000000000001,3.5,0,1029,733,1236,3408,11.383125,6417,28.71210314035338,1029.5854222704509,0,40.68907,-73.991638,0.05,17:11:47
2024-03-25T13:11:47,-3.00837621385,1.6055839645999996,9.62692352545,0.03802636107782646,0.008857545953871223,-0.036499197982331415,0.18522000000000002,0.20454000000000003,-0.4403000000000001,3.5,0,1029,733,1236,3408,11.383125,6417,28.71210314035338,1029.5854222704509,0,40.68907,-73.991638,0.05,17:11:47
2024-03-25T13:11:47,-2.9300112737000004,1.5912270289999997,9.6035935051,0.038331793696925465,0.01145372321621279,-0.03130684345764829,0.18886,0.19446000000000002,-0.44492000000000004,3.5,0,1029,733,1236,3408,11.383125,6417,28.71210314035338,1029.5854222704509,0,40.68907,-73.991638,0.03,17:11:47
2024-03-25T13:11:47,-3.00837621385,1.6055839645999996,9.6598248362,0.03726277953007894,0.009773843811168246,-0.03329215548179184,0.18718,0.19838000000000003,-0.43862000000000007,3.5,0,1029,733,1236,3408,11.383125,6417,28.71210314035338,1029.5854222704509,0,40.68907,-73.991638,0.03,17:11:47
2024-03-25T13:11:47,-2.99043004435,1.5978072911499999,9.628119936749998,0.038484510006474966,0.007483099167925688,-0.03252857393404432,0.18942,0.19894000000000003,-0.44982000000000005,3.5,0,1029,733,1236,3408,11.383125,6417,28.71210314035338,1029.5854222704509,0,40.68907,-73.99164,0.03,17:11:48
2024-03-25T13:11:48,-2.9976085121499993,1.5882360007499998,9.660423041849999,0.031764992386296806,0.011301006906663285,-0.03451388595818787,0.18046,0.20482000000000003,-0.43918000000000007,3.5,1,1031,734,1238,3412,11.2567578125,6878,28.54618715025494,1029.5900494168118,0,40.68907,-73.99164,0.03,17:11:48
2024-03-25T13:11:48,-2.9324040963,1.60857499285,9.589834775149999,0.036193765363232405,0.00916297857297023,-0.03481931857728687,0.17850000000000002,0.20734000000000002,-0.44366,3.5,1,1031,734,1238,3412,11.2567578125,6878,28.54618715025494,1029.5900494168118,0,40.68907,-73.99164,0.03,17:11:48
2024-03-25T13:11:48,-2.99880492345,1.5852449725,9.6012006825,0.03436116964863837,0.007941248096574201,-0.038484510006474966,0.18242000000000003,0.20622000000000001,-0.43736,3.5,1,1031,734,1238,3412,11.2567578125,6878,28.54618715025494,1029.5900494168118,0,40.68907,-73.99164,0.03,17:11:48
2024-03-25T13:11:48,-2.9623143788,1.6103696097999998,9.745368244149999,0.03741549583962844,0.011759155835311796,-0.03512475119638588,0.18242000000000003,0.20622000000000001,-0.43736,3.5,1,1031,734,1238,3412,11.2567578125,6878,28.54618715025494,1029.5900494168118,0,40.68907,-73.99164,0.03,17:11:48
2024-03-25T13:11:48,-3.0293134116,1.5876377951,9.6753781831,0.03497203488683638,0.007177666548826681,-0.03436116964863837,0.18522000000000002,0.20538000000000003,-0.43386,3.5,1,1031,734,1238,3412,11.2567578125,6878,28.54618715025494,1029.5900494168118,0,40.68907,-73.99164,0.03,17:11:48
2024-03-25T13:11:48,-3.0119654477499997,1.6002001137499997,9.608977355949998,0.03695734691097993,0.01069014166846527,-0.03481931857728687,0.18578000000000003,0.19838000000000003,-0.44604000000000005,3.5,1,1031,734,1238,3412,11.1657421875,7448,28.37767846447873,1029.5955140124606,0,40.68907,-73.99164,0.03,17:11:48
2024-03-25T13:11:48,-2.9461628262499997,1.59661087985,9.585049129949999,0.03772092845872745,0.008399397025222712,-0.03512475119638588,0.18354,0.2023,-0.43932000000000004,3.5,1,1032,735,1239,3415,11.1657421875,7448,28.37767846447873,1029.5955140124606,0,40.68907,-73.99164,0.03,17:11:48
2024-03-25T13:11:48,-3.0317062341999996,1.5876377951,9.701101026049999,0.038789942625573975,0.010995574287564279,-0.0357356164345839,0.18886,0.20706000000000002,-0.44856000000000007,3.5,1,1032,735,1239,3415,11.1657421875,7448,28.37767846447873,1029.5955140124606,0,40.68907,-73.99164,0.05,17:11:48
2024-03-25T13:11:48,-2.9712874635499995,1.5906288233499997,9.605388122049998,0.03130684345764829,0.01114829059711378,-0.03741549583962844,0.18354,0.19474,-0.43778,3.5,1,1032,735,1239,3415,11.1657421875,7448,28.37767846447873,1029.5955140124606,0,40.68907,-73.99164,0.05,17:11:48
2024-03-25T13:11:48,-2.95334129405,1.6091731985,9.63529840455,0.038484510006474966,0.007483099167925688,-0.03512475119638588,0.18494000000000002,0.19978000000000004,-0.45304,3.5,1,1032,735,1239,3415,11.1657421875,7448,28.37767846447873,1029.5955140124606,0,40.68907,-73.99164,0.05,17:11:49
2024-03-25T13:11:49,-2.95453770535,1.6097714041500002,9.605388122049998,0.03665191429188092,0.01145372321621279,-0.036193765363232405,0.18186000000000002,0.20622000000000001,-0.44072,3.5,1,1029,732,1234,3402,11.3333203125,8446,28.427423047120254,1029.5651771186722,0,40.68907,-73.99164,0.05,17:11:49
2024-03-25T13:11:49,-2.9724838748499995,1.6193426945499998,9.6215396746,0.03588833274413341,0.0068722339297276735,-0.03481931857728687,0.18634000000000003,0.19950000000000004,-0.44394000000000006,3.5,1,1029,732,1234,3402,11.3333203125,8446,28.427423047120254,1029.5651771186722,0,40.68907,-73.99164,0.05,17:11:49
2024-03-25T13:11:49,-2.8977081685999995,1.59661087985,9.643075077999999,0.03634648167278191,0.010384709049366262,-0.0357356164345839,0.18522000000000002,0.20538000000000003,-0.44576000000000005,3.5,1,1029,732,1234,3402,11.3333203125,8446,28.427423047120254,1029.5651771186722,0,40.68907,-73.99164,0.02,17:11:49
2024-03-25T13:11:49,-2.9808587539499998,1.5978072911499999,9.5856473356,0.039400807863771994,0.010537425358915765,-0.03344487179134134,0.18522000000000002,0.20538000000000003,-0.44800000000000006,3.5,1,1029,732,1234,3402,11.3333203125,8446,28.427423047120254,1029.5651771186722,0,40.68907,-73.99164,0.02,17:11:49
2024-03-25T13:11:49,-2.9838497821999996,1.61216422675,9.628119936749998,0.03497203488683638,0.007941248096574201,-0.03313943917224234,0.19054000000000001,0.19950000000000004,-0.44800000000000006,3.5,1,1029,732,1234,3402,11.3333203125,8446,28.427423047120254,1029.5651771186722,0,40.68907,-73.991636,0.02,17:11:50
2024-03-25T13:11:50,-2.9838497821999996,1.5852449725,9.6981099978,0.03207042500539581,0.008399397025222712,-0.030390545600351267,0.19222000000000003,0.19474,-0.44576000000000005,3.5,0,1027,731,1233,3398,11.2614453125,8690,28.217289013218565,1029.5736171829383,0,40.68907,-73.991636,0.02,17:11:50
2024-03-25T13:11:50,-3.0406793189499997,1.5786647103499998,9.51685368585,0.038484510006474966,0.01069014166846527,-0.03466660226773738,0.18102000000000001,0.19838000000000003,-0.44254000000000004,3.5,0,1027,731,1233,3398,11.2614453125,8690,28.217289013218565,1029.5736171829383,0,40.68907,-73.991636,0.02,17:11:50
2024-03-25T13:11:50,-2.98205516525,1.6091731985,9.61854864635,0.03665191429188092,0.008399397025222712,-0.03359758810089085,0.1869,0.20258,-0.42714,3.5,0,1027,731,1233,3398,11.2614453125,8690,28.217289013218565,1029.5736171829383,0,40.68907,-73.991636,0.03,17:11:50
2024-03-25T13:11:50,-2.9748766974499996,1.5882360007499998,9.6490571345,0.037110063220529434,0.00916297857297023,-0.03543018381548489,0.18914,0.19726000000000002,-0.43596,3.5,0,1027,731,1233,3398,11.2614453125,8690,28.217289013218565,1029.5736171829383,0,40.68907,-73.991636,0.03,17:11:50
2024-03-25T13:11:50,-2.9868408104499995,1.6043875532999998,9.66161945315,0.03207042500539581,0.006108652381980154,-0.0357356164345839,0.18914,0.19726000000000002,-0.43596,3.5,0,1027,731,1233,3398,11.2614453125,8690,28.217289013218565,1029.5736171829383,0,40.68907,-73.991635,0.03,17:11:51
2024-03-25T13:11:51,-2.9802605483,1.5948162628999998,9.63051275935,0.03772092845872745,0.00916297857297023,-0.03283400655314333,0.18298000000000003,0.20062000000000002,-0.4438000000000001,3.5,1,1030,732,1233,3399,11.1782421875,9119,28.049801000764393,1029.5819254868945,0,40.68907,-73.991635,0.03,17:11:51
2024-03-25T13:11:51,-2.9814569596,1.61216422675,9.61854864635,0.038179077387375956,0.009315694882519735,-0.031459559767197796,0.18858000000000003,0.20118,-0.44464000000000004,3.5,1,1030,732,1233,3399,11.1782421875,9119,28.049801000764393,1029.5819254868945,0,40.68907,-73.991635,0.03,17:11:51
2024-03-25T13:11:51,-2.9473592375499993,1.6175480775999997,9.655637396649999,0.03772092845872745,0.010079276430267254,-0.03252857393404432,0.17934,0.19950000000000004,-0.43946,3.5,1,1030,732,1233,3399,11.1782421875,9119,28.049801000764393,1029.5819254868945,0,40.68907,-73.991635,0.3,17:11:51
2024-03-25T13:11:51,-3.0053851856,1.6199409001999998,9.673583566149999,0.038484510006474966,0.005803219762881146,-0.0357356164345839,0.18606000000000003,0.20482000000000003,-0.4548600000000001,3.5,1,1030,732,1233,3399,11.1782421875,9119,28.049801000764393,1029.5819254868945,0,40.68907,-73.991635,0.3,17:11:51
2024-03-25T13:11:51,-2.9970103064999996,1.5960126742,9.601798888149998,0.03772092845872745,0.009773843811168246,-0.03405573702953936,0.18438000000000002,0.20818,-0.44352,3.5,1,1030,732,1233,3399,11.1782421875,9119,28.049801000764393,1029.5819254868945,0,40.68907,-73.991635,0.3,17:11:52
2024-03-25T13:11:52,-3.0155546816499994,1.6073785815499997,9.59940606555,0.039553524173321496,0.007941248096574201,-0.03222314131494531,0.18438000000000002,0.20454000000000003,-0.43050000000000005,3.5,1,1033,735,1239,3415,11.0821484375,9575,27.87092284391683,1029.5821990586855,0,40.68907,-73.991635,0.3,17:11:52
2024-03-25T13:11:52,-2.97966234265,1.6073785815499997,9.6215396746,0.037110063220529434,0.00946841119206924,-0.036193765363232405,0.19306000000000004,0.19866000000000003,-0.46046000000000004,3.5,1,1033,735,1239,3415,11.0821484375,9575,27.87092284391683,1029.5821990586855,0,40.68907,-73.991635,0.3,17:11:52
2024-03-25T13:11:52,-2.9563323222999998,1.5876377951,9.607182738999999,0.03451388595818787,0.008399397025222712,-0.03329215548179184,0.18662,0.20006000000000004,-0.44282000000000005,4.5,1,1033,735,1239,3415,11.0821484375,9575,27.87092284391683,1029.5821990586855,0,40.68907,-73.991635,0.33,17:11:52
2024-03-25T13:11:52,-2.9629125844499997,1.61694987195,9.6167540294,0.03344487179134134,0.009621127501618741,-0.0355829001250344,0.19054000000000001,0.19978000000000004,-0.44072,3.5,1,1033,735,1239,3415,11.0821484375,9575,27.87092284391683,1029.5821990586855,0,40.68907,-73.991635,0.33,17:11:52
2024-03-25T13:11:52,-2.93060947935,1.6247265453999997,9.5928258034,0.038789942625573975,0.012217304763960308,-0.03283400655314333,0.18746000000000002,0.19754000000000002,-0.43092,3.5,1,1033,735,1239,3415,11.0821484375,9575,27.87092284391683,1029.5821990586855,0,40.689068,-73.991621,0.33,17:11:53
2024-03-25T13:11:53,-2.9964121008499993,1.59182523465,9.678967416999999,0.03390302071998985,0.008399397025222712,-0.03420845333908886,0.18774000000000002,0.19922000000000004,-0.44548000000000004,3.5,1,1034,735,1237,3413,11.0075390625,10070,27.7260518675717,1029.5841542856929,0,40.689068,-73.991621,0.33,17:11:53
2024-03-25T13:11:53,-2.9868408104499995,1.5786647103499998,9.695118969549998,0.03772092845872745,0.008246680715673207,-0.031001410838549282,0.18802000000000002,0.2009,-0.4537400000000001,3.5,1,1034,735,1237,3413,11.0075390625,10070,27.7260518675717,1029.5841542856929,0,40.689068,-73.991621,0.33,17:11:53
2024-03-25T13:11:53,-2.95453770535,1.6103696097999998,9.59222759775,0.03481931857728687,0.010384709049366262,-0.03390302071998985,0.1953,0.20314000000000002,-0.44338000000000005,3.5,1,1034,735,1237,3413,11.0075390625,10070,27.7260518675717,1029.5841542856929,0,40.689068,-73.991621,0.33,17:11:53
2024-03-25T13:11:53,-2.9742784917999994,1.6139588436999999,9.72024360685,0.037110063220529434,0.007483099167925688,-0.03375030441044035,0.1841,0.19978000000000004,-0.4368000000000001,3.5,1,1034,735,1237,3413,11.0075390625,10070,27.7260518675717,1029.5841542856929,0,40.689068,-73.991621,0.33,17:11:53
2024-03-25T13:11:53,-2.9850461934999997,1.5954144685499996,9.6526463684,0.03329215548179184,0.009315694882519735,-0.03268129024359383,0.18886,0.19950000000000004,-0.43134000000000006,3.5,1,1034,735,1237,3413,11.0075390625,10070,27.7260518675717,1029.5841542856929,0,40.689068,-73.991621,0.33,17:11:53
2024-03-25T13:11:53,-2.9479574431999995,1.5828521499,9.65683380795,0.0355829001250344,0.010995574287564279,-0.03436116964863837,0.18942,0.20062000000000002,-0.44352,3.5,1,1034,735,1237,3413,10.9454296875,10607,27.57688687615084,1029.5812275841786,0,40.689068,-73.991621,0.33,17:11:53
2024-03-25T13:11:53,-2.9288148624000003,1.6031911419999998,9.750153889349999,0.03451388595818787,0.01114829059711378,-0.0316122760767473,0.18830000000000002,0.19922000000000004,-0.44058,3.5,1,1034,735,1237,3413,10.9454296875,10607,27.57688687615084,1029.5812275841786,0,40.689068,-73.991621,0.33,17:11:53
2024-03-25T13:11:53,-2.96530540705,1.6181462832499998,9.582058101699998,0.03497203488683638,0.011301006906663285,-0.03420845333908886,0.19222000000000003,0.20034000000000002,-0.43344000000000005,3.5,1,1034,735,1237,3413,10.9454296875,10607,27.57688687615084,1029.5812275841786,0,40.689068,-73.991621,2.2,17:11:53
2024-03-25T13:11:53,-2.9617161731499997,1.6175480775999997,9.628718142399999,0.038179077387375956,0.008093964406123704,-0.03604104905368291,0.19278000000000003,0.2023,-0.4494,3.5,1,1034,735,1237,3413,10.9454296875,10607,27.57688687615084,1029.5812275841786,0,40.689068,-73.991621,2.2,17:11:53
2024-03-25T13:11:53,-2.96889464095,1.6199409001999998,9.63649481585,0.03695734691097993,0.012064588454410803,-0.03130684345764829,0.1869,0.20174,-0.4585000000000001,3.5,1,1034,735,1237,3413,10.9454296875,10607,27.57688687615084,1029.5812275841786,0,40.689066,-73.991613,2.2,17:11:54
2024-03-25T13:11:54,-2.9850461934999997,1.6103696097999998,9.598807859899999,0.0357356164345839,0.010384709049366262,-0.03497203488683638,0.17850000000000002,0.20370000000000002,-0.44254000000000004,3.5,1,1032,733,1233,3402,11.140546875,11817,27.644089659842514,1029.5473901272085,0,40.689066,-73.991613,2.2,17:11:54
2024-03-25T13:11:54,-2.9617161731499997,1.6043875532999998,9.62213788025,0.03695734691097993,0.008552113334772215,-0.036193765363232405,0.18578000000000003,0.20062000000000002,-0.44534,3.5,1,1032,733,1233,3402,11.140546875,11817,27.644089659842514,1029.5473901272085,0,40.689066,-73.991613,2.2,17:11:54
2024-03-25T13:11:54,-2.9952156895499997,1.5649059803999998,9.580263484749999,0.03527746750593539,0.010384709049366262,-0.03344487179134134,0.19558,0.20286,-0.45234,3.5,1,1032,733,1233,3402,11.140546875,11817,27.644089659842514,1029.5473901272085,0,40.689066,-73.991613,2.22,17:11:54
2024-03-25T13:11:54,-2.9946174838999995,1.6091731985,9.641280461049998,0.03451388595818787,0.009773843811168246,-0.0357356164345839,0.17766,0.20678000000000002,-0.45304,3.5,1,1032,733,1233,3402,11.140546875,11817,27.644089659842514,1029.5473901272085,0,40.689066,-73.991613,2.22,17:11:54
2024-03-25T13:11:54,-2.9826533709,1.5942180572499998,9.6562356023,0.03313943917224234,0.006414085001079162,-0.03543018381548489,0.17766,0.20678000000000002,-0.45304,3.5,1,1032,733,1233,3402,11.140546875,11817,27.644089659842514,1029.5473901272085,0,40.689064,-73.991606,2.22,17:11:55
2024-03-25T13:11:55,-2.9551359109999997,1.6043875532999998,9.60060247685,0.03313943917224234,0.008093964406123704,-0.03222314131494531,0.18634000000000003,0.20062000000000002,-0.45766,3.5,1,1034,734,1235,3407,11.121015625,12088,27.476507811269137,1029.5542358283506,0,40.689064,-73.991606,2.22,17:11:55
2024-03-25T13:11:55,-2.9928228669499997,1.6163516663,9.667003304,0.03604104905368291,0.013286318930806834,-0.030390545600351267,0.18466000000000002,0.19138000000000002,-0.44464000000000004,3.5,1,1034,734,1235,3407,11.121015625,12088,27.476507811269137,1029.5542358283506,0,40.689064,-73.991606,2.22,17:11:55
2024-03-25T13:11:55,-3.0017959517,1.5852449725,9.65922663055,0.038484510006474966,0.009315694882519735,-0.03329215548179184,0.18466000000000002,0.19138000000000002,-0.44464000000000004,3.5,1,1034,734,1235,3407,11.121015625,12088,27.476507811269137,1029.5542358283506,0,40.689064,-73.991606,2.03,17:11:55
2024-03-25T13:11:55,-2.9635107901,1.61694987195,9.55513884745,0.03772092845872745,0.009621127501618741,-0.03207042500539581,0.18942,0.21098000000000003,-0.45346000000000003,3.5,1,1034,734,1235,3407,11.121015625,12088,27.476507811269137,1029.5542358283506,0,40.689064,-73.991606,2.03,17:11:55
2024-03-25T13:11:55,-2.9946174838999995,1.59900370245,9.615557618099999,0.03772092845872745,0.008246680715673207,-0.03252857393404432,0.18046,0.20314000000000002,-0.4491200000000001,3.5,1,1040,741,1246,3433,11.121015625,12088,27.476507811269137,1029.5542358283506,0,40.689066,-73.991606,2.03,17:11:56
2024-03-25T13:11:56,-3.0000013347500003,1.6193426945499998,9.672985360499998,0.0355829001250344,0.0056505034533316425,-0.03268129024359383,0.18130000000000002,0.2023,-0.44492000000000004,3.5,1,1033,734,1234,3404,11.042890625,12415,27.331872488371946,1029.5606802256477,0,40.689066,-73.991606,2.03,17:11:56
2024-03-25T13:11:56,-2.9617161731499997,1.6061821702499999,9.628718142399999,0.036804630601430424,0.010995574287564279,-0.03268129024359383,0.18550000000000003,0.2079,-0.43526000000000004,3.5,1,1033,734,1234,3404,11.042890625,12415,27.331872488371946,1029.5606802256477,0,40.689066,-73.991606,2.03,17:11:56
2024-03-25T13:11:56,-2.9659036126999996,1.58703958945,9.65324457405,0.03313943917224234,0.013897184169004852,-0.03527746750593539,0.18550000000000003,0.2079,-0.43526000000000004,3.5,1,1033,734,1234,3404,11.042890625,12415,27.331872488371946,1029.5606802256477,0,40.689066,-73.991606,1.59,17:11:56
2024-03-25T13:11:56,-2.9928228669499997,1.6067803759,9.676574594399998,0.03787364476827696,0.006261368691529657,-0.0357356164345839,0.1869,0.20482000000000003,-0.45500000000000007,3.5,1,1033,734,1234,3404,11.042890625,12415,27.331872488371946,1029.5606802256477,0,40.689066,-73.991606,1.59,17:11:56
2024-03-25T13:11:56,-2.9964121008499993,1.62173551715,9.681958445249998,0.038179077387375956,0.011759155835311796,-0.03390302071998985,0.17850000000000002,0.20370000000000002,-0.43946,3.5,1,1033,734,1234,3404,11.042890625,12415,27.331872488371946,1029.5606802256477,0,40.689066,-73.9916,1.59,17:11:57
2024-03-25T13:11:57,-2.998206717799999,1.6019947307,9.628119936749998,0.03604104905368291,0.00946841119206924,-0.03512475119638588,0.18298000000000003,0.19838000000000003,-0.45514000000000004,4.5,1,1035,735,1235,3408,10.967109375,12792,27.20363673365179,1029.562372199398,0,40.689066,-73.9916,1.59,17:11:57
2024-03-25T13:11:57,-2.9473592375499993,1.6145570493499999,9.68674409045,0.04077525464971753,0.003054326190990077,-0.036193765363232405,0.18550000000000003,0.19978000000000004,-0.43610000000000004,3.5,1,1035,735,1235,3408,10.967109375,12792,27.20363673365179,1029.562372199398,0,40.689066,-73.9916,1.59,17:11:57
2024-03-25T13:11:57,-3.02751879465,1.6091731985,9.61495941245,0.03695734691097993,0.009621127501618741,-0.03772092845872745,0.1869,0.20034000000000002,-0.44492000000000004,3.5,1,1035,735,1235,3408,10.967109375,12792,27.20363673365179,1029.562372199398,0,40.689066,-73.9916,1.92,17:11:57
2024-03-25T13:11:57,-2.9838497821999996,1.5930216459499997,9.595218626,0.03604104905368291,0.008246680715673207,-0.036193765363232405,0.19054000000000001,0.19474,-0.44422,3.5,1,1035,735,1235,3408,10.967109375,12792,27.20363673365179,1029.562372199398,0,40.689066,-73.9916,1.92,17:11:57
2024-03-25T13:11:57,-3.02991161725,1.6115660211,9.63529840455,0.03329215548179184,0.0056505034533316425,-0.03313943917224234,0.19082000000000002,0.19978000000000004,-0.44814000000000004,3.5,1,1035,735,1235,3408,10.967109375,12792,27.20363673365179,1029.562372199398,0,40.689066,-73.991585,1.92,17:11:58
2024-03-25T13:11:58,-3.0580272828,1.5762718877499997,9.642476872349999,0.036804630601430424,0.01114829059711378,-0.03497203488683638,0.18354,0.20342000000000002,-0.43526000000000004,3.5,1,1036,736,1235,3410,10.901875,13350,27.076284006852113,1029.5610859400465,0,40.689066,-73.991585,1.92,17:11:58
2024-03-25T13:11:58,-3.00837621385,1.6073785815499997,9.699904614749999,0.039400807863771994,0.013744467859455347,-0.03604104905368291,0.1869,0.2023,-0.4424,3.5,1,1036,736,1235,3410,10.901875,13350,27.076284006852113,1029.5610859400465,0,40.689066,-73.991585,1.92,17:11:58
2024-03-25T13:11:58,-2.9443682093,1.5972090855,9.68076203395,0.03054326190990077,0.008399397025222712,-0.03313943917224234,0.19082000000000002,0.19866000000000003,-0.44170000000000004,3.5,1,1036,736,1235,3410,10.901875,13350,27.076284006852113,1029.5610859400465,0,40.689066,-73.991585,1.92,17:11:58
2024-03-25T13:11:58,-3.00359056865,1.6187444888999998,9.67956562265,0.03405573702953936,0.01069014166846527,-0.03405573702953936,0.1841,0.20146,-0.43876000000000004,3.5,1,1036,736,1235,3410,10.901875,13350,27.076284006852113,1029.5610859400465,0,40.689066,-73.991585,1.92,17:11:58
2024-03-25T13:11:58,-2.9814569596,1.61694987195,9.6981099978,0.036193765363232405,0.01114829059711378,-0.03436116964863837,0.17906000000000002,0.20566000000000004,-0.44212000000000007,4.5,1,1036,736,1235,3410,10.901875,13350,27.076284006852113,1029.5610859400465,0,40.689066,-73.991585,1.92,17:11:58
2024-03-25T13:11:58,-3.0496524037,1.6091731985,9.510871629349998,0.038942658935123484,0.010842857978014774,-0.03313943917224234,0.18718,0.20062000000000002,-0.44310000000000005,3.5,1,1036,736,1235,3410,10.86359375,13796,26.99360214432669,1029.5551467301225,0,40.689066,-73.991585,1.92,17:11:58
2024-03-25T13:11:58,-2.9563323222999998,1.6133606380499999,9.643075077999999,0.03237585762449482,0.008704829644321718,-0.03375030441044035,0.18634000000000003,0.20650000000000002,-0.44296,3.5,1,1036,736,1235,3410,10.86359375,13796,26.99360214432669,1029.5551467301225,0,40.689066,-73.991585,1.92,17:11:58
2024-03-25T13:11:58,-2.9916264556499996,1.63489604145,9.735198748099998,0.03924809155422249,0.012217304763960308,-0.038179077387375956,0.18438000000000002,0.20594000000000004,-0.4508000000000001,3.5,1,1036,736,1235,3410,10.86359375,13796,26.99360214432669,1029.5551467301225,0,40.689066,-73.991585,2.97,17:11:58
2024-03-25T13:11:58,-2.9994031290999996,1.5876377951,9.65683380795,0.03420845333908886,0.006566801310628666,-0.03527746750593539,0.1841,0.20174,-0.45108000000000004,3.5,1,1036,736,1235,3410,10.86359375,13796,26.99360214432669,1029.5551467301225,0,40.689066,-73.991585,2.97,17:11:58
2024-03-25T13:11:58,-2.97966234265,1.6055839645999996,9.678369211349999,0.038637226316024474,0.007330382858376185,-0.03298672286269283,0.18746000000000002,0.20174,-0.43554000000000004,3.5,1,1036,736,1235,3410,10.86359375,13796,26.99360214432669,1029.5551467301225,0,40.689066,-73.991576,2.97,17:11:59
2024-03-25T13:11:59,-3.0293134116,1.5768700934,9.6574320136,0.036804630601430424,0.011301006906663285,-0.03359758810089085,0.18270000000000003,0.20286,-0.43834,4.5,1,1039,738,1238,3418,11.078046875,15186,27.066965786651995,1029.5211767448889,0,40.689066,-73.991576,2.97,17:11:59
2024-03-25T13:11:59,-2.95932335055,1.6049857589499996,9.771091087099999,0.03512475119638588,0.008552113334772215,-0.036499197982331415,0.18662,0.20146,-0.42966000000000004,3.5,1,1039,738,1238,3418,11.078046875,15186,27.066965786651995,1029.5211767448889,0,40.689066,-73.991576,2.97,17:11:59
2024-03-25T13:11:59,-2.9539394997,1.65044938835,9.61974505765,0.03726277953007894,0.008704829644321718,-0.03466660226773738,0.17934,0.20258,-0.43400000000000005,3.5,1,1039,738,1238,3418,11.078046875,15186,27.066965786651995,1029.5211767448889,0,40.689066,-73.991576,1.8,17:11:59
2024-03-25T13:11:59,-2.9425735923499996,1.5655041860499999,9.77288570405,0.03756821214917795,0.008857545953871223,-0.03665191429188092,0.18158000000000002,0.20342000000000002,-0.44478,4.5,1,1039,738,1238,3418,11.078046875,15186,27.066965786651995,1029.5211767448889,0,40.689066,-73.991576,1.8,17:11:59
2024-03-25T13:11:59,-3.0005995404,1.6342978357999998,9.664610481399999,0.02932153143350474,0.008093964406123704,-0.03252857393404432,0.18550000000000003,0.20370000000000002,-0.43722000000000005,4.5,1,1039,738,1238,3418,11.078046875,15186,27.066965786651995,1029.5211767448889,0,40.689064,-73.991566,1.8,17:12:0
2024-03-25T13:12:00,-2.9778677257000004,1.6187444888999998,9.759126974099999,0.04046982203061852,0.006108652381980154,-0.038484510006474966,0.18074,0.21154000000000003,-0.43736,4.5,1,1047,746,1250,3447,11.0981640625,14939,26.966898543773663,1029.5275345220714,0,40.689064,-73.991566,1.8,17:12:0
2024-03-25T13:12:00,-2.9641089957499998,1.61216422675,9.726823868999999,0.03420845333908886,0.009315694882519735,-0.0357356164345839,0.17906000000000002,0.20846,-0.41986,4.5,1,1047,746,1250,3447,11.0981640625,14939,26.966898543773663,1029.5275345220714,0,40.689064,-73.991566,1.8,17:12:0
2024-03-25T13:12:00,-2.9258238341499996,1.6211373115,9.671788949199998,0.03405573702953936,0.010231992739816757,-0.03665191429188092,0.17906000000000002,0.20846,-0.41986,4.5,1,1047,746,1250,3447,11.0981640625,14939,26.966898543773663,1029.5275345220714,0,40.689064,-73.991566,0.7,17:12:0
2024-03-25T13:12:00,-3.06221472235,1.6390834809999997,9.721440018149998,0.03787364476827696,0.0056505034533316425,-0.03787364476827696,0.18802000000000002,0.20902,-0.42826000000000003,4.5,1,1047,746,1250,3447,11.0981640625,14939,26.966898543773663,1029.5275345220714,0,40.689064,-73.991566,0.7,17:12:0
2024-03-25T13:12:00,-2.9952156895499997,1.5942180572499998,9.69751179215,0.038637226316024474,0.010231992739816757,-0.038484510006474966,0.18130000000000002,0.20118,-0.43036,4.5,1,1047,746,1250,3447,11.0981640625,14939,26.966898543773663,1029.5275345220714,0,40.689063,-73.991551,0.7,17:12:1
2024-03-25T13:12:01,-2.9862426047999997,1.5840485612,9.740582598949999,0.0357356164345839,0.006261368691529657,-0.03436116964863837,0.18074,0.20062000000000002,-0.42840000000000006,4.5,1,1048,746,1250,3449,11.09171875,14792,26.97179591436049,1029.530507389772,0,40.689063,-73.991551,0.7,17:12:1
2024-03-25T13:12:01,-3.0675985731999997,1.61096781545,9.7818587888,0.03604104905368291,0.007635815477475193,-0.03252857393404432,0.18186000000000002,0.2093,-0.43960000000000005,4.5,1,1048,746,1250,3449,11.09171875,14792,26.97179591436049,1029.530507389772,0,40.689063,-73.991551,0.7,17:12:1
2024-03-25T13:12:01,-2.9946174838999995,1.6043875532999998,9.77049288145,0.03329215548179184,0.008857545953871223,-0.03405573702953936,0.17738000000000004,0.2121,-0.42532000000000003,4.5,1,1048,746,1250,3449,11.09171875,14792,26.97179591436049,1029.530507389772,0,40.689063,-73.991551,1.39,17:12:1
2024-03-25T13:12:01,-2.9611179675,1.6067803759,9.80399239785,0.036193765363232405,0.00916297857297023,-0.03512475119638588,0.17766,0.20678000000000002,-0.43274000000000007,4.5,1,1048,746,1250,3449,11.09171875,14792,26.97179591436049,1029.530507389772,0,40.689063,-73.991551,1.39,17:12:1
2024-03-25T13:12:01,-2.9671000239999996,1.61216422675,9.7471628611,0.03436116964863837,0.01114829059711378,-0.03237585762449482,0.17570000000000002,0.20846,-0.43204000000000004,4.5,1,1048,746,1250,3449,11.09171875,14792,26.97179591436049,1029.530507389772,0,40.689058,-73.991529,1.39,17:12:2
2024-03-25T13:12:02,-2.98444798785,1.6055839645999996,9.753144917599998,0.03222314131494531,0.009010262263420728,-0.03283400655314333,0.18382,0.20706000000000002,-0.43666000000000005,4.5,1,1047,746,1250,3447,11.1118359375,14876,27.112016667844063,1029.5368643666407,0,40.689058,-73.991529,1.39,17:12:2
2024-03-25T13:12:02,-2.95334129405,1.6091731985,9.701101026049999,0.03375030441044035,0.008246680715673207,-0.036193765363232405,0.18494000000000002,0.20902,-0.45150000000000007,4.5,1,1047,746,1250,3447,11.1118359375,14876,27.112016667844063,1029.5368643666407,0,40.689058,-73.991529,1.39,17:12:2
2024-03-25T13:12:02,-2.91744895505,1.6211373115,9.6885387074,0.03695734691097993,0.010079276430267254,-0.03695734691097993,0.18298000000000003,0.20874,-0.43596,4.5,1,1047,746,1250,3447,11.1118359375,14876,27.112016667844063,1029.5368643666407,0,40.689058,-73.991529,2.07,17:12:2
2024-03-25T13:12:02,-2.9359933301999996,1.6139588436999999,9.7423772159,0.03726277953007894,0.009773843811168246,-0.030085112981252257,0.18018,0.20846,-0.44128,4.5,1,1047,746,1250,3447,11.1118359375,14876,27.112016667844063,1029.5368643666407,0,40.689058,-73.991529,2.07,17:12:2
2024-03-25T13:12:02,-2.9958138951999995,1.6342978357999998,9.6993064091,0.0355829001250344,0.006719517620178169,-0.03359758810089085,0.18494000000000002,0.20986000000000002,-0.43736,4.5,0,1047,745,1249,3445,11.1118359375,14876,27.112016667844063,1029.5368643666407,0,40.689055,-73.991518,2.07,17:12:3
2024-03-25T13:12:03,-3.02871520595,1.5912270289999997,9.742975421549998,0.0355829001250344,0.006261368691529657,-0.0319177086958463,0.17682000000000003,0.2093,-0.43960000000000005,4.5,1,1049,747,1251,3451,11.1596875,15024,27.361346413841964,1029.5433641427114,0,40.689055,-73.991518,2.07,17:12:3
2024-03-25T13:12:03,-2.9736802861499996,1.6115660211,9.722636429449999,0.03420845333908886,0.008704829644321718,-0.028710666195306725,0.17738000000000004,0.20286,-0.43834,4.5,1,1049,747,1251,3451,11.1596875,15024,27.361346413841964,1029.5433641427114,0,40.689055,-73.991518,2.07,17:12:3
2024-03-25T13:12:03,-2.9970103064999996,1.5858431781499998,9.7782695549,0.036499197982331415,0.012370021073509813,-0.03375030441044035,0.17738000000000004,0.20286,-0.43834,4.5,1,1049,747,1251,3451,11.1596875,15024,27.361346413841964,1029.5433641427114,0,40.689055,-73.991518,2.07,17:12:3
2024-03-25T13:12:03,-3.0352954680999997,1.6055839645999996,9.719047195549999,0.0009162978572970231,0.009621127501618741,-0.03283400655314333,0.17514000000000002,0.20286,-0.44576000000000005,4.5,1,1049,747,1251,3451,11.1596875,15024,27.361346413841964,1029.5433641427114,0,40.689055,-73.991518,2.07,17:12:3
2024-03-25T13:12:03,-3.0167510929499994,1.6049857589499996,9.771091087099999,0.038331793696925465,0.0068722339297276735,-0.03420845333908886,0.17794000000000001,0.20398000000000002,-0.43666000000000005,4.5,1,1049,747,1251,3451,11.1596875,15024,27.361346413841964,1029.5433641427114,0,40.689055,-73.991518,2.07,17:12:3
2024-03-25T13:12:03,-3.046063169799999,1.6223337227999999,9.8010013696,0.03405573702953936,0.007635815477475193,-0.031154127148098783,0.17710000000000004,0.21182,-0.43834,4.5,1,1049,747,1251,3451,11.231953125,15186,27.704141051876725,1029.5547994199403,0,40.689056,-73.99152,2.07,17:12:4
2024-03-25T13:12:04,-2.9856443991499995,1.60857499285,9.738787982,0.0016798794050445422,0.008246680715673207,-0.03237585762449482,0.18270000000000003,0.21098000000000003,-0.42672000000000004,4.5,1,1050,747,1252,3453,11.5315625,16984,27.85949605382032,1029.5328046797579,0,40.689056,-73.99152,2.07,17:12:4
2024-03-25T13:12:04,-3.00359056865,1.6091731985,9.725627457699998,0.03283400655314333,0.010537425358915765,-0.03390302071998985,0.18606000000000003,0.20958000000000002,-0.42896000000000006,4.5,1,1050,747,1252,3453,11.5315625,16984,27.85949605382032,1029.5328046797579,0,40.689056,-73.99152,2.07,17:12:4
2024-03-25T13:12:04,-3.0329026454999997,1.5942180572499998,9.721440018149998,0.03588833274413341,0.012064588454410803,-0.03527746750593539,0.18522000000000002,0.20342000000000002,-0.43918000000000007,4.5,1,1050,747,1252,3453,11.5315625,16984,27.85949605382032,1029.5328046797579,0,40.689056,-73.99152,1.87,17:12:4
2024-03-25T13:12:04,-2.9850461934999997,1.6091731985,9.67477997745,0.03543018381548489,0.01114829059711378,-0.03543018381548489,0.18494000000000002,0.20314000000000002,-0.43736,4.5,1,1050,747,1252,3453,11.5315625,16984,27.85949605382032,1029.5328046797579,0,40.689056,-73.99152,1.87,17:12:4
2024-03-25T13:12:04,-2.976073108749999,1.61694987195,9.732207719849999,0.03375030441044035,0.008552113334772215,-0.03313943917224234,0.18494000000000002,0.20314000000000002,-0.43316000000000004,4.5,1,1050,747,1252,3453,11.5315625,16984,27.85949605382032,1029.5328046797579,0,40.689056,-73.991516,1.87,17:12:5
2024-03-25T13:12:05,-2.9772695200499997,1.6103696097999998,9.714261550349999,0.039095375244672985,0.007788531787024696,-0.03390302071998985,0.17934,0.21126000000000003,-0.4389,4.5,1,1051,748,1252,3453,11.6231640625,16715,28.15134899036212,1029.5368994481244,0,40.689056,-73.991516,1.87,17:12:5
2024-03-25T13:12:05,-2.9766713144,1.6175480775999997,9.7842516114,0.03604104905368291,0.006719517620178169,-0.03451388595818787,0.17570000000000002,0.20958000000000002,-0.44072,4.5,1,1051,748,1252,3453,11.6231640625,16715,28.15134899036212,1029.5368994481244,0,40.689056,-73.991516,1.87,17:12:5
2024-03-25T13:12:05,-2.9958138951999995,1.6193426945499998,9.66281586445,0.03787364476827696,0.007483099167925688,-0.03466660226773738,0.17374,0.2023,-0.43260000000000004,4.5,1,1051,748,1252,3453,11.6231640625,16715,28.15134899036212,1029.5368994481244,0,40.689056,-73.991516,2.27,17:12:5
2024-03-25T13:12:05,-3.0029923629999997,1.6037893476499998,9.7375915707,0.03283400655314333,0.0056505034533316425,-0.037110063220529434,0.17346,0.21014000000000002,-0.43988000000000005,4.5,1,1051,748,1252,3453,11.6231640625,16715,28.15134899036212,1029.5368994481244,0,40.689056,-73.991516,2.27,17:12:5
2024-03-25T13:12:05,-2.9748766974499996,1.5858431781499998,9.7423772159,0.03405573702953936,0.010995574287564279,-0.03451388595818787,0.18606000000000003,0.21126000000000003,-0.43652,4.5,1,1051,748,1252,3453,11.6231640625,16715,28.15134899036212,1029.5368994481244,0,40.689056,-73.991516,2.27,17:12:6
2024-03-25T13:12:06,-3.0107690364499997,1.5792629159999998,9.8321080634,0.03741549583962844,0.0024434609527920616,-0.03588833274413341,0.17626000000000003,0.20958000000000002,-0.42854000000000003,4.5,1,1039,743,1249,3434,11.67140625,16701,28.538127278286264,1029.5369803142912,0,40.689056,-73.991516,2.27,17:12:6
2024-03-25T13:12:06,-2.96051976185,1.6115660211,9.846464998999998,0.03283400655314333,0.009315694882519735,-0.03313943917224234,0.18130000000000002,0.2121,-0.43582000000000004,4.5,1,1039,743,1249,3434,11.67140625,16701,28.538127278286264,1029.5369803142912,0,40.689056,-73.991516,2.27,17:12:6
2024-03-25T13:12:06,-2.9922246613,1.6187444888999998,9.77408211535,0.03802636107782646,0.005345070834232635,-0.03665191429188092,0.18270000000000003,0.21070000000000003,-0.43960000000000005,4.5,1,1039,743,1249,3434,11.67140625,16701,28.538127278286264,1029.5369803142912,0,40.689056,-73.991516,2.27,17:12:6
2024-03-25T13:12:06,-3.05144702065,1.6163516663,9.8560362894,0.03436116964863837,0.010537425358915765,-0.03451388595818787,0.18102000000000001,0.21042000000000002,-0.43092,5.5,1,1039,743,1249,3434,11.67140625,16701,28.538127278286264,1029.5369803142912,0,40.689056,-73.991516,2.27,17:12:6
2024-03-25T13:12:06,-2.9665018183499994,1.6223337227999999,9.777073143599997,0.03756821214917795,0.00916297857297023,-0.031001410838549282,0.17878000000000002,0.21182,-0.43596,4.5,1,1039,743,1249,3434,11.67140625,16701,28.538127278286264,1029.5369803142912,0,40.689055,-73.991513,2.27,17:12:7
2024-03-25T13:12:07,-2.9001009911999995,1.6097714041500002,9.748957478049999,0.03222314131494531,0.009315694882519735,-0.031154127148098783,0.17766,0.21490000000000004,-0.4397400000000001,4.5,1,1043,745,1251,3442,11.7391796875,16943,28.965505391005475,1029.5458507421674,0,40.689055,-73.991513,2.27,17:12:7
2024-03-25T13:12:07,-3.01435827035,1.6061821702499999,9.8261260069,0.036193765363232405,0.009773843811168246,-0.03237585762449482,0.17458,0.21378000000000003,-0.43764000000000003,4.5,1,1043,745,1251,3442,11.7391796875,16943,28.965505391005475,1029.5458507421674,0,40.689055,-73.991513,2.27,17:12:7
2024-03-25T13:12:07,-2.9838497821999996,1.6067803759,9.731609514199999,0.03512475119638588,0.009010262263420728,-0.03252857393404432,0.17794000000000001,0.21238,-0.43022000000000005,4.5,1,1043,745,1251,3442,11.7391796875,16943,28.965505391005475,1029.5458507421674,0,40.689055,-73.991513,1.8,17:12:7
2024-03-25T13:12:07,-2.9736802861499996,1.6187444888999998,9.7818587888,0.037110063220529434,0.006261368691529657,-0.03298672286269283,0.17570000000000002,0.20734000000000002,-0.43596,5.5,1,1043,745,1251,3442,11.7391796875,16943,28.965505391005475,1029.5458507421674,0,40.689055,-73.991513,1.8,17:12:7
2024-03-25T13:12:07,-2.9772695200499997,1.5924234403,9.882357337999998,0.03604104905368291,0.008246680715673207,-0.03375030441044035,0.17570000000000002,0.20734000000000002,-0.43596,5.5,1,1043,745,1251,3442,11.7391796875,16943,28.965505391005475,1029.5458507421674,0,40.689053,-73.991511,1.8,17:12:8
2024-03-25T13:12:08,-2.9958138951999995,1.6091731985,9.844670382049998,0.038637226316024474,0.006414085001079162,-0.0355829001250344,0.1799,0.21042000000000002,-0.43806000000000006,5.5,1,1047,748,1253,3448,11.8258984375,17248,29.395765621903617,1029.557264076685,0,40.689053,-73.991511,1.8,17:12:8
2024-03-25T13:12:08,-2.9563323222999998,1.5828521499,9.835697297299998,0.038484510006474966,0.0056505034533316425,-0.0355829001250344,0.17962,0.20622000000000001,-0.43400000000000005,5.5,1,1047,748,1253,3448,11.8258984375,17248,29.395765621903617,1029.557264076685,0,40.689053,-73.991511,1.8,17:12:8
2024-03-25T13:12:08,-2.9623143788,1.6193426945499998,9.834500885999999,0.038484510006474966,0.008399397025222712,-0.0355829001250344,0.17962,0.20622000000000001,-0.43400000000000005,5.5,1,1047,748,1253,3448,11.8258984375,17248,29.395765621903617,1029.557264076685,0,40.689053,-73.991511,1.8,17:12:8
2024-03-25T13:12:08,-2.9964121008499993,1.6127624323999998,9.8321080634,0.031001410838549282,0.006719517620178169,-0.03436116964863837,0.18074,0.21182,-0.44366,5.5,1,1047,748,1253,3448,11.8258984375,17248,29.395765621903617,1029.557264076685,0,40.689053,-73.991511,1.8,17:12:8
2024-03-25T13:12:08,-2.9665018183499994,1.6187444888999998,9.794421107449999,0.03344487179134134,0.006414085001079162,-0.03481931857728687,0.17878000000000002,0.20482000000000003,-0.43050000000000005,5.5,1,1047,748,1253,3448,11.8258984375,17248,29.395765621903617,1029.557264076685,0,40.689053,-73.991511,1.8,17:12:8
2024-03-25T13:12:08,-3.0107690364499997,1.5930216459499997,9.812367276949999,0.03252857393404432,0.0054977871437821395,-0.0355829001250344,0.18018,0.21574000000000002,-0.43414,5.5,1,1047,748,1253,3448,11.93234375,17549,29.82902138189828,1029.5585651001556,0,40.689053,-73.991511,1.8,17:12:8
2024-03-25T13:12:08,-3.0233313550999994,1.6115660211,9.8045906035,0.03451388595818787,0.0056505034533316425,-0.03527746750593539,0.17710000000000004,0.2079,-0.43960000000000005,5.5,1,1047,748,1253,3448,11.93234375,17549,29.82902138189828,1029.5585651001556,0,40.689053,-73.991511,1.8,17:12:8
2024-03-25T13:12:08,-2.98325157655,1.5942180572499998,9.848857821599998,0.03756821214917795,0.010842857978014774,-0.03283400655314333,0.17486000000000002,0.21126000000000003,-0.43624000000000007,5.5,1,1047,748,1253,3448,11.93234375,17549,29.82902138189828,1029.5585651001556,0,40.689053,-73.991511,1.13,17:12:8
2024-03-25T13:12:08,-3.02991161725,1.6067803759,9.72622566335,0.03451388595818787,0.008857545953871223,-0.037110063220529434,0.18130000000000002,0.21490000000000004,-0.44366,5.5,1,1047,748,1253,3448,11.93234375,17549,29.82902138189828,1029.5585651001556,0,40.689053,-73.991511,1.13,17:12:8
2024-03-25T13:12:08,-2.9970103064999996,1.6319050132,9.816554716499999,0.03344487179134134,0.006566801310628666,-0.03268129024359383,0.18494000000000002,0.20146,-0.42630000000000007,5.5,1,1047,748,1253,3448,11.93234375,17549,29.82902138189828,1029.5585651001556,0,40.689053,-73.99152,1.13,17:12:9
2024-03-25T13:12:09,-3.0000013347500003,1.5858431781499998,9.82433138995,0.03695734691097993,0.00916297857297023,-0.03695734691097993,0.18074,0.21518,-0.44170000000000004,5.5,1,1047,747,1253,3450,12.26046875,19806,30.00677888579466,1029.5334512655566,0,40.689053,-73.99152,1.13,17:12:9
2024-03-25T13:12:09,-2.9647072013999995,1.6043875532999998,9.890732217099998,0.0357356164345839,0.006414085001079162,-0.030695978219450276,0.18046,0.21322000000000002,-0.4461800000000001,5.5,1,1047,747,1253,3450,12.26046875,19806,30.00677888579466,1029.5334512655566,0,40.689053,-73.99152,1.13,17:12:9
2024-03-25T13:12:09,-3.0077780082,1.61096781545,9.8991070962,0.0316122760767473,0.008246680715673207,-0.029626964052603746,0.17710000000000004,0.21490000000000004,-0.42686,5.5,1,1047,747,1253,3450,12.26046875,19806,30.00677888579466,1029.5334512655566,0,40.689053,-73.99152,2.74,17:12:9
2024-03-25T13:12:09,-3.0107690364499997,1.60857499285,9.89491965665,0.03604104905368291,0.005192354524683131,-0.03390302071998985,0.17374,0.20650000000000002,-0.43148000000000003,5.5,1,1047,747,1253,3450,12.26046875,19806,30.00677888579466,1029.5334512655566,0,40.689053,-73.99152,2.74,17:12:9
2024-03-25T13:12:09,-2.979064137,1.6091731985,9.842875765099999,0.03634648167278191,0.009621127501618741,-0.03512475119638588,0.17374,0.20650000000000002,-0.43148000000000003,5.5,1,1051,750,1254,3453,12.26046875,19806,30.00677888579466,1029.5334512655566,0,40.689053,-73.991525,2.74,17:12:10
2024-03-25T13:12:10,-2.9617161731499997,1.5960126742,9.83150985775,0.0316122760767473,0.007483099167925688,-0.03252857393404432,0.17010000000000003,0.21854,-0.43470000000000003,5.5,1,1050,749,1251,3444,12.3899609375,19423,30.28504964843678,1029.5580049625357,0,40.689053,-73.991525,2.74,17:12:10
2024-03-25T13:12:10,-2.9814569596,1.6127624323999998,9.92841917305,0.03741549583962844,0.007177666548826681,-0.03512475119638588,0.17262,0.21126000000000003,-0.42812000000000006,5.5,1,1050,749,1251,3444,12.3899609375,19423,30.28504964843678,1029.5580049625357,0,40.689053,-73.991525,2.74,17:12:10
2024-03-25T13:12:10,-3.0041887742999998,1.63250321885,9.8560362894,0.03390302071998985,0.008552113334772215,-0.03634648167278191,0.17262,0.21126000000000003,-0.43526000000000004,5.5,1,1050,749,1251,3444,12.3899609375,19423,30.28504964843678,1029.5580049625357,0,40.689053,-73.991525,3.08,17:12:10
2024-03-25T13:12:10,-2.9766713144,1.5942180572499998,9.907481975299998,0.038942658935123484,0.008552113334772215,-0.036499197982331415,0.17794000000000001,0.20958000000000002,-0.43526000000000004,5.5,1,1050,749,1251,3444,12.3899609375,19423,30.28504964843678,1029.5580049625357,0,40.689053,-73.991525,3.08,17:12:10
2024-03-25T13:12:10,-3.00359056865,1.5858431781499998,9.84945602725,0.03481931857728687,0.010537425358915765,-0.03237585762449482,0.17346,0.21658000000000002,-0.43162000000000006,5.5,1,1050,749,1251,3444,12.3899609375,19423,30.28504964843678,1029.5580049625357,0,40.689053,-73.991525,3.08,17:12:11
2024-03-25T13:12:11,-2.9802605483,1.6097714041500002,9.76690364755,0.038179077387375956,0.004123340357836604,-0.036499197982331415,0.17038000000000003,0.22302000000000002,-0.43442000000000003,5.5,1,1053,751,1255,3457,12.4739453125,19459,30.648494545676826,1029.576759025983,0,40.689053,-73.991525,3.08,17:12:11
2024-03-25T13:12:11,-2.979064137,1.6103696097999998,9.7998049583,0.03741549583962844,0.007788531787024696,-0.03481931857728687,0.17710000000000004,0.21490000000000004,-0.43582000000000004,5.5,1,1053,751,1255,3457,12.4739453125,19459,30.648494545676826,1029.576759025983,0,40.689053,-73.991525,3.08,17:12:11
2024-03-25T13:12:11,-2.9862426047999997,1.6450655375,9.777073143599997,0.03497203488683638,0.00916297857297023,-0.037110063220529434,0.17150000000000004,0.21546,-0.43414,5.5,1,1053,751,1255,3457,12.4739453125,19459,30.648494545676826,1029.576759025983,0,40.689053,-73.991525,2.18,17:12:11
2024-03-25T13:12:11,-2.95094847145,1.64686015445,9.776474937949999,0.03451388595818787,0.006261368691529657,-0.036804630601430424,0.16702,0.21182,-0.43498000000000003,5.5,1,1053,751,1255,3457,12.4739453125,19459,30.648494545676826,1029.576759025983,0,40.689053,-73.991525,2.18,17:12:11
2024-03-25T13:12:11,-3.0251259720499997,1.6187444888999998,9.7830552001,0.03298672286269283,0.0056505034533316425,-0.03695734691097993,0.16702,0.21182,-0.43498000000000003,5.5,1,1053,751,1255,3457,12.4739453125,19459,30.648494545676826,1029.576759025983,0,40.689055,-73.991531,2.18,17:12:12
2024-03-25T13:12:12,-3.0017959517,1.6067803759,9.82792062385,0.036193765363232405,0.0068722339297276735,-0.036193765363232405,0.1729,0.22106000000000003,-0.43820000000000003,5.5,1,1054,751,1257,3465,12.56671875,19334,31.002666527431806,1029.5859657299332,0,40.689055,-73.991531,2.18,17:12:12
2024-03-25T13:12:12,-3.01794750425,1.59661087985,9.80399239785,0.03222314131494531,0.0070249502392771765,-0.036193765363232405,0.17822000000000002,0.21742,-0.42462000000000005,5.5,1,1054,751,1257,3465,12.56671875,19334,31.002666527431806,1029.5859657299332,0,40.689055,-73.991531,2.18,17:12:12
2024-03-25T13:12:12,-2.9258238341499996,1.6103696097999998,9.7375915707,0.03344487179134134,0.0054977871437821395,-0.038484510006474966,0.17822000000000002,0.21742,-0.42462000000000005,5.5,1,1054,751,1257,3465,12.56671875,19334,31.002666527431806,1029.5859657299332,0,40.689055,-73.991531,2.62,17:12:12
2024-03-25T13:12:12,-3.046063169799999,1.6331014245,9.85902731765,0.036499197982331415,0.00595593607243065,-0.03436116964863837,0.17066000000000003,0.21490000000000004,-0.4424,5.5,1,1054,751,1257,3465,12.56671875,19334,31.002666527431806,1029.5859657299332,0,40.689055,-73.991531,2.62,17:12:12
2024-03-25T13:12:12,-2.9778677257000004,1.6061821702499999,9.75135030065,0.03329215548179184,0.005192354524683131,-0.036804630601430424,0.17150000000000004,0.22050000000000003,-0.43162000000000006,5.5,1,1054,751,1257,3465,12.56671875,19334,31.002666527431806,1029.5859657299332,0,40.689056,-73.991535,2.62,17:12:13
2024-03-25T13:12:13,-2.9665018183499994,1.62293192845,9.8632147572,0.036804630601430424,0.006261368691529657,-0.03375030441044035,0.16870000000000002,0.21658000000000002,-0.43750000000000006,5.5,1,1054,750,1255,3461,12.6665234375,19825,31.330768889914093,1029.5896126396865,0,40.689056,-73.991535,2.62,17:12:13
2024-03-25T13:12:13,-2.95932335055,1.6283157792999998,9.820742156049999,0.03497203488683638,0.006566801310628666,-0.03237585762449482,0.17374,0.21602000000000002,-0.42728000000000005,5.5,1,1054,750,1255,3461,12.6665234375,19825,31.330768889914093,1029.5896126396865,0,40.689056,-73.991535,2.62,17:12:13
2024-03-25T13:12:13,-2.98803722175,1.6025929363499998,9.8045906035,0.03298672286269283,0.007177666548826681,-0.03543018381548489,0.17374,0.21602000000000002,-0.42728000000000005,5.5,1,1054,750,1255,3461,12.6665234375,19825,31.330768889914093,1029.5896126396865,0,40.689056,-73.991535,2.62,17:12:13
2024-03-25T13:12:13,-3.0149564759999996,1.5972090855,9.9338030239,0.03772092845872745,0.008093964406123704,-0.03329215548179184,0.1743,0.20538000000000003,-0.4389,5.5,1,1054,750,1255,3461,12.6665234375,19825,31.330768889914093,1029.5896126396865,0,40.689056,-73.991535,2.62,17:12:13
2024-03-25T13:12:13,-2.9952156895499997,1.6223337227999999,9.823733184299998,0.036804630601430424,0.006414085001079162,-0.03252857393404432,0.17150000000000004,0.21070000000000003,-0.44646,5.5,1,1054,750,1255,3461,12.6665234375,19825,31.330768889914093,1029.5896126396865,0,40.689056,-73.991535,2.62,17:12:13
2024-03-25T13:12:13,-2.9838497821999996,1.6061821702499999,9.796813930049998,0.03588833274413341,0.009315694882519735,-0.03451388595818787,0.16954000000000002,0.21602000000000002,-0.43204000000000004,5.5,1,1054,750,1255,3461,12.780390625,20051,31.64424967419225,1029.6048809812555,0,40.689056,-73.991535,2.62,17:12:13
2024-03-25T13:12:13,-2.9712874635499995,1.61096781545,9.79083187355,0.03237585762449482,0.009315694882519735,-0.03329215548179184,0.1743,0.21546,-0.43260000000000004,5.5,1,1054,750,1255,3461,12.780390625,20051,31.64424967419225,1029.6048809812555,0,40.689056,-73.991535,2.62,17:12:13
2024-03-25T13:12:13,-3.02392956075,1.6097714041500002,9.786644434,0.03466660226773738,0.0068722339297276735,-0.03283400655314333,0.16814,0.21350000000000002,-0.43834,5.5,1,1054,750,1255,3461,12.780390625,20051,31.64424967419225,1029.6048809812555,0,40.689056,-73.991535,2.68,17:12:13
2024-03-25T13:12:13,-2.9958138951999995,1.6061821702499999,9.789037256599999,0.0357356164345839,0.004581489286485115,-0.0355829001250344,0.17906000000000002,0.21602000000000002,-0.43484,5.5,1,1054,750,1255,3461,12.780390625,20051,31.64424967419225,1029.6048809812555,0,40.689056,-73.991535,2.68,17:12:13
2024-03-25T13:12:13,-3.0203403268499995,1.6211373115,9.7998049583,0.03588833274413341,0.009773843811168246,-0.03420845333908886,0.17066000000000003,0.21098000000000003,-0.43708,5.5,1,1054,750,1256,3463,12.780390625,20051,31.64424967419225,1029.6048809812555,0,40.689058,-73.991538,2.68,17:12:14
2024-03-25T13:12:14,-3.0352954680999997,1.6187444888999998,9.6933243526,0.03726277953007894,0.007941248096574201,-0.03634648167278191,0.17570000000000002,0.21546,-0.43666000000000005,5.5,1,1050,747,1249,3446,13.1096875,22416,31.775854449519358,1029.5805003479538,0,40.689058,-73.991538,2.68,17:12:14
2024-03-25T13:12:14,-2.92941306805,1.6133606380499999,9.775278526649998,0.038789942625573975,0.008093964406123704,-0.038179077387375956,0.16702,0.21490000000000004,-0.43848000000000004,5.5,1,1050,747,1249,3446,13.1096875,22416,31.775854449519358,1029.5805003479538,0,40.689058,-73.991538,2.68,17:12:14
2024-03-25T13:12:14,-2.9946174838999995,1.6354942471,9.750153889349999,0.03420845333908886,0.006108652381980154,-0.03512475119638588,0.16954000000000002,0.21490000000000004,-0.43848000000000004,5.5,1,1050,747,1249,3446,13.1096875,22416,31.775854449519358,1029.5805003479538,0,40.689058,-73.991538,1.71,17:12:14
2024-03-25T13:12:14,-2.95453770535,1.6067803759,9.67238715485,0.038331793696925465,0.008093964406123704,-0.03420845333908886,0.1743,0.21434000000000003,-0.43414,5.5,1,1050,747,1249,3446,13.1096875,22416,31.775854449519358,1029.5805003479538,0,40.689058,-73.991538,1.71,17:12:14
2024-03-25T13:12:14,-2.9718856691999997,1.6301103962499996,9.75493953455,0.036193765363232405,0.0070249502392771765,-0.03543018381548489,0.16562000000000002,0.21630000000000002,-0.44086000000000003,5.5,1,1050,747,1249,3446,13.1096875,22416,31.775854449519358,1029.5805003479538,0,40.68906,-73.991546,1.71,17:12:15
2024-03-25T13:12:15,-2.9629125844499997,1.6133606380499999,9.69392255825,0.03512475119638588,0.0070249502392771765,-0.0355829001250344,0.16954000000000002,0.21994000000000002,-0.43610000000000004,5.5,1,1049,745,1247,3439,13.2221875,22134,31.951515152300882,1029.593228779531,0,40.68906,-73.991546,1.71,17:12:15
2024-03-25T13:12:15,-2.9952156895499997,1.6049857589499996,9.7615197967,0.03543018381548489,0.004123340357836604,-0.03527746750593539,0.16002000000000002,0.22358,-0.4368000000000001,5.5,1,1049,745,1247,3439,13.2221875,22134,31.951515152300882,1029.593228779531,0,40.68906,-73.991546,1.71,17:12:15
2024-03-25T13:12:15,-2.9970103064999996,1.6420745092499998,9.68435126785,0.03756821214917795,0.004123340357836604,-0.03604104905368291,0.16954000000000002,0.22022000000000003,-0.43708,5.5,1,1049,745,1247,3439,13.2221875,22134,31.951515152300882,1029.593228779531,0,40.68906,-73.991546,2.23,17:12:15
2024-03-25T13:12:15,-2.9730820805,1.6103696097999998,9.6957171752,0.03741549583962844,0.0068722339297276735,-0.03298672286269283,0.16758,0.2177,-0.43204000000000004,5.5,1,1049,745,1247,3439,13.2221875,22134,31.951515152300882,1029.593228779531,0,40.68906,-73.991546,2.23,17:12:15
2024-03-25T13:12:15,-3.00359056865,1.60139652505,9.710074110799999,0.03451388595818787,0.01069014166846527,-0.03787364476827696,0.17066000000000003,0.21742,-0.43736,5.5,1,1049,745,1247,3439,13.2221875,22134,31.951515152300882,1029.593228779531,0,40.689063,-73.991556,2.23,17:12:16
2024-03-25T13:12:16,-2.9587251449000003,1.6211373115,9.651449957099999,0.0355829001250344,0.002138028333693054,-0.0316122760767473,0.17318,0.22134000000000004,-0.43624000000000007,5.5,1,1046,743,1244,3433,13.2659375,22393,32.13304750561359,1029.606327244391,0,40.689063,-73.991556,2.23,17:12:16
2024-03-25T13:12:16,-2.9778677257000004,1.57507547645,9.69033332435,0.03420845333908886,0.009010262263420728,-0.03726277953007894,0.16898000000000002,0.21826,-0.42602000000000007,5.5,1,1046,743,1244,3433,13.2659375,22393,32.13304750561359,1029.606327244391,0,40.689063,-73.991556,2.23,17:12:16
2024-03-25T13:12:16,-3.0000013347500003,1.6307086018999999,9.69033332435,0.03359758810089085,0.008399397025222712,-0.029626964052603746,0.17654000000000003,0.22190000000000004,-0.42588000000000004,5.5,1,1046,743,1244,3433,13.2659375,22393,32.13304750561359,1029.606327244391,0,40.689063,-73.991556,4.45,17:12:16
2024-03-25T13:12:16,-2.9742784917999994,1.6342978357999998,9.822536773,0.03130684345764829,0.01145372321621279,-0.0355829001250344,0.16898000000000002,0.21938000000000002,-0.42742,5.5,1,1046,743,1244,3433,13.2659375,22393,32.13304750561359,1029.606327244391,0,40.689063,-73.991556,4.45,17:12:16
2024-03-25T13:12:16,-2.98923363305,1.6145570493499999,9.669396126599999,0.036804630601430424,0.011301006906663285,-0.03359758810089085,0.17262,0.21490000000000004,-0.43148000000000003,5.5,1,1046,743,1244,3431,13.2659375,22393,32.13304750561359,1029.606327244391,0,40.689066,-73.991591,4.45,17:12:17
2024-03-25T13:12:17,-3.0293134116,1.5810575329499996,9.726823868999999,0.03298672286269283,0.007177666548826681,-0.0316122760767473,0.17626000000000003,0.22218000000000004,-0.43820000000000003,5.5,1,1051,747,1250,3449,13.287421875,23053,32.246163862543824,1029.609586613863,0,40.689066,-73.991591,4.45,17:12:17
2024-03-25T13:12:17,-2.9940192782499997,1.61694987195,9.685547679149998,0.03451388595818787,0.007635815477475193,-0.03420845333908886,0.16394000000000003,0.2233,-0.43736,5.5,1,1051,747,1250,3449,13.287421875,23053,32.246163862543824,1029.609586613863,0,40.689066,-73.991591,4.45,17:12:17
2024-03-25T13:12:17,-3.0634111336499994,1.59661087985,9.7076812882,0.03543018381548489,0.0070249502392771765,-0.031459559767197796,0.17010000000000003,0.21238,-0.42742,5.5,1,1051,747,1250,3449,13.287421875,23053,32.246163862543824,1029.609586613863,0,40.689066,-73.991591,5.78,17:12:17
2024-03-25T13:12:17,-3.026920589,1.6133606380499999,9.647262517549999,0.03741549583962844,0.008552113334772215,-0.03283400655314333,0.16758,0.21518,-0.44044000000000005,5.5,1,1051,747,1250,3449,13.287421875,23053,32.246163862543824,1029.609586613863,0,40.689066,-73.991591,5.78,17:12:17
2024-03-25T13:12:17,-2.9886354273999993,1.6055839645999996,9.677771005699999,0.0357356164345839,0.004276056667386108,-0.03420845333908886,0.16758,0.21518,-0.44044000000000005,5.5,1,1051,747,1250,3449,13.287421875,23053,32.246163862543824,1029.609586613863,0,40.689066,-73.991631,5.78,17:12:18
2024-03-25T13:12:18,-2.9467610318999995,1.6199409001999998,9.7363951594,0.03375030441044035,0.0056505034533316425,-0.038637226316024474,0.17682000000000003,0.21182,-0.44296,5.5,1,1056,752,1257,3466,13.3219921875,23308,32.21553837075899,1029.6158292130683,0,40.689066,-73.991631,5.78,17:12:18
2024-03-25T13:12:18,-3.0442685528499993,1.6378870696999999,9.6837530622,0.039400807863771994,0.0044287729769356115,-0.03405573702953936,0.17150000000000004,0.2121,-0.43722000000000005,5.5,1,1056,752,1257,3466,13.3219921875,23308,32.21553837075899,1029.6158292130683,0,40.689066,-73.991631,5.78,17:12:18
2024-03-25T13:12:18,-3.0041887742999998,1.6097714041500002,9.647262517549999,0.036499197982331415,0.006414085001079162,-0.03298672286269283,0.17794000000000001,0.21238,-0.43988000000000005,5.5,1,1056,752,1257,3466,13.3219921875,23308,32.21553837075899,1029.6158292130683,0,40.689066,-73.991631,5.78,17:12:18
2024-03-25T13:12:18,-2.9569305279499996,1.6103696097999998,9.683154856549999,0.036804630601430424,0.0056505034533316425,-0.03634648167278191,0.1729,0.21266000000000002,-0.42560000000000003,5.5,1,1056,752,1257,3466,13.3219921875,23308,32.21553837075899,1029.6158292130683,0,40.689066,-73.991631,5.78,17:12:18
2024-03-25T13:12:18,-3.0107690364499997,1.6061821702499999,9.7555377402,0.038331793696925465,0.0056505034533316425,-0.03665191429188092,0.18214000000000002,0.21826,-0.42868000000000006,5.5,1,1056,752,1257,3466,13.3219921875,23308,32.21553837075899,1029.6158292130683,0,40.689066,-73.991631,5.78,17:12:18
2024-03-25T13:12:18,-2.95573411665,1.62053910585,9.654440985349998,0.03527746750593539,0.008246680715673207,-0.03543018381548489,0.16842000000000001,0.22526000000000002,-0.43036,5.5,1,1056,752,1257,3466,13.38625,23386,32.14276944297197,1029.62525562847,0,40.689066,-73.991631,5.78,17:12:18
2024-03-25T13:12:18,-2.9724838748499995,1.6277175736499998,9.67477997745,0.0319177086958463,0.005803219762881146,-0.03313943917224234,0.17626000000000003,0.20846,-0.42910000000000004,5.5,1,1053,749,1253,3455,13.38625,23386,32.14276944297197,1029.62525562847,0,40.689066,-73.991631,5.78,17:12:18
2024-03-25T13:12:18,-3.0017959517,1.6031911419999998,9.66640509835,0.03375030441044035,0.007483099167925688,-0.03497203488683638,0.17766,0.21798,-0.41986,5.5,1,1053,749,1253,3455,13.38625,23386,32.14276944297197,1029.62525562847,0,40.689066,-73.991631,7.31,17:12:18
2024-03-25T13:12:18,-2.9958138951999995,1.6301103962499996,9.6969135865,0.03634648167278191,0.005803219762881146,-0.03375030441044035,0.16982000000000003,0.21126000000000003,-0.42518000000000006,5.5,1,1053,749,1253,3455,13.38625,23386,32.14276944297197,1029.62525562847,0,40.689066,-73.991631,7.31,17:12:18
2024-03-25T13:12:18,-2.9748766974499996,1.60857499285,9.61735223505,0.036193765363232405,0.008399397025222712,-0.03405573702953936,0.16982000000000003,0.21126000000000003,-0.42518000000000006,5.5,1,1053,749,1253,3455,13.38625,23386,32.14276944297197,1029.62525562847,0,40.689075,-73.991648,7.31,17:12:19
2024-03-25T13:12:19,-2.9180471606999996,1.5912270289999997,9.735198748099998,0.03772092845872745,0.0070249502392771765,-0.03451388595818787,0.17066000000000003,0.21798,-0.43274000000000007,5.5,1,1055,750,1255,3460,13.6770703125,25908,32.23320199998112,1029.5994018347333,0,40.689075,-73.991648,7.31,17:12:19
2024-03-25T13:12:19,-3.01435827035,1.6091731985,9.61256658985,0.03344487179134134,0.00595593607243065,-0.031001410838549282,0.17262,0.22526000000000002,-0.43652,5.5,1,1055,750,1255,3460,13.6770703125,25908,32.23320199998112,1029.5994018347333,0,40.689075,-73.991648,7.31,17:12:19
2024-03-25T13:12:19,-2.9724838748499995,1.6271193679999998,9.708877699499999,0.00045814892864851157,0.005039638215133627,-0.0316122760767473,0.17262,0.22526000000000002,-0.43652,5.5,1,1055,750,1255,3460,13.6770703125,25908,32.23320199998112,1029.5994018347333,0,40.689075,-73.991648,7.32,17:12:19
2024-03-25T13:12:19,-2.9599215562,1.6025929363499998,9.64367328365,0.03512475119638588,0.008246680715673207,-0.03512475119638588,0.17738000000000004,0.21602000000000002,-0.43512000000000006,5.5,1,1055,750,1255,3460,13.6770703125,25908,32.23320199998112,1029.5994018347333,0,40.689075,-73.991648,7.32,17:12:19
2024-03-25T13:12:19,-2.9587251449000003,1.6307086018999999,9.68435126785,0.03802636107782646,0.0038179077387375964,-0.03512475119638588,0.17738000000000004,0.21798,-0.43176000000000003,5.5,1,1055,750,1255,3460,13.6770703125,25908,32.23320199998112,1029.5994018347333,0,40.68908,-73.991661,7.32,17:12:20
2024-03-25T13:12:20,-3.0089744195,1.60857499285,9.676574594399998,0.0007635815477475193,0.007177666548826681,-0.0355829001250344,0.17402,0.22162000000000004,-0.43148000000000003,5.5,1,1051,749,1254,3455,13.763203125,25107,32.15103702670321,1029.6021055796557,0,40.68908,-73.991661,7.32,17:12:20
2024-03-25T13:12:20,-2.9647072013999995,1.62412833975,9.7651090306,0.03756821214917795,0.0056505034533316425,-0.03726277953007894,0.17374,0.22274000000000002,-0.43302,5.5,1,1051,749,1254,3455,13.763203125,25107,32.15103702670321,1029.6021055796557,0,40.68908,-73.991661,7.32,17:12:20
2024-03-25T13:12:20,-2.9515466770999996,1.6163516663,9.73101130855,0.04046982203061852,0.008246680715673207,-0.036804630601430424,0.1729,0.21434000000000003,-0.42434000000000005,5.5,1,1051,749,1254,3455,13.763203125,25107,32.15103702670321,1029.6021055796557,0,40.68908,-73.991661,6.59,17:12:20
2024-03-25T13:12:20,-3.03709008505,1.6145570493499999,9.703493848649998,0.0357356164345839,0.007330382858376185,-0.03466660226773738,0.17934,0.22442,-0.42462000000000005,5.5,1,1051,749,1254,3455,13.763203125,25107,32.15103702670321,1029.6021055796557,0,40.68908,-73.991661,6.59,17:12:20
2024-03-25T13:12:20,-2.9479574431999995,1.6247265453999997,9.65683380795,0.03512475119638588,0.010079276430267254,-0.038637226316024474,0.17934,0.22442,-0.42462000000000005,5.5,1,1051,749,1254,3455,13.763203125,25107,32.15103702670321,1029.6021055796557,0,40.689081,-73.991664,6.59,17:12:21
2024-03-25T13:12:21,-3.0119654477499997,1.5768700934,9.695118969549998,0.030237829290801762,0.008704829644321718,-0.03451388595818787,0.17374,0.21574000000000002,-0.42980000000000007,5.5,1,1044,742,1245,3432,13.8028515625,24870,32.1319716302544,1029.6028946104439,0,40.689081,-73.991664,6.59,17:12:21
2024-03-25T13:12:21,-2.98444798785,1.6133606380499999,9.687342296099999,0.03634648167278191,0.01114829059711378,-0.03405573702953936,0.17150000000000004,0.22106000000000003,-0.43218000000000006,5.5,1,1044,742,1245,3432,13.8028515625,24870,32.1319716302544,1029.6028946104439,0,40.689081,-73.991664,6.59,17:12:21
2024-03-25T13:12:21,-3.0089744195,1.5960126742,9.744171832849998,0.036804630601430424,0.006261368691529657,-0.03543018381548489,0.16674,0.22246000000000002,-0.43946,5.5,1,1044,742,1245,3432,13.8028515625,24870,32.1319716302544,1029.6028946104439,0,40.689081,-73.991664,5.11,17:12:21
2024-03-25T13:12:21,-2.9970103064999996,1.59900370245,9.671788949199998,0.03344487179134134,0.006261368691529657,-0.03543018381548489,0.16674,0.22246000000000002,-0.43946,5.5,1,1044,742,1245,3432,13.8028515625,24870,32.1319716302544,1029.6028946104439,0,40.689081,-73.991664,5.11,17:12:21
2024-03-25T13:12:21,-2.9970103064999996,1.5912270289999997,9.695118969549998,0.03695734691097993,0.0068722339297276735,-0.0357356164345839,0.18354,0.21686000000000002,-0.43722000000000005,5.5,1,1044,742,1245,3432,13.8028515625,24870,32.1319716302544,1029.6028946104439,0,40.689083,-73.991714,5.11,17:12:22
2024-03-25T13:12:22,-2.9898318387,1.6139588436999999,9.6825566509,0.03359758810089085,0.006261368691529657,-0.0316122760767473,0.17122000000000004,0.21602000000000002,-0.4426800000000001,5.5,1,1046,743,1245,3433,13.8227734375,25440,32.16144833034465,1029.6069536017988,0,40.689083,-73.991714,5.11,17:12:22
2024-03-25T13:12:22,-2.9826533709,1.6247265453999997,9.6981099978,0.038789942625573975,0.008246680715673207,-0.03787364476827696,0.17654000000000003,0.20650000000000002,-0.44254000000000004,5.5,1,1046,743,1245,3433,13.8227734375,25440,32.16144833034465,1029.6069536017988,0,40.689083,-73.991714,5.11,17:12:22
2024-03-25T13:12:22,-2.9676982296499994,1.62652116235,9.6705925379,0.03313943917224234,0.00473420559603462,-0.03543018381548489,0.16926000000000002,0.21490000000000004,-0.42952,5.5,1,1046,743,1245,3433,13.8227734375,25440,32.16144833034465,1029.6069536017988,0,40.689083,-73.991714,6.29,17:12:22
2024-03-25T13:12:22,-2.9976085121499993,1.6432709205499998,9.731609514199999,0.040317105721069016,0.003970624048287101,-0.03497203488683638,0.18634000000000003,0.21490000000000004,-0.43274000000000007,5.5,1,1046,743,1245,3433,13.8227734375,25440,32.16144833034465,1029.6069536017988,0,40.689083,-73.991714,6.29,17:12:22
2024-03-25T13:12:22,-2.98444798785,1.6295121905999996,9.654440985349998,0.03405573702953936,0.006108652381980154,-0.03329215548179184,0.18634000000000003,0.21490000000000004,-0.43274000000000007,5.5,1,1046,743,1245,3433,13.8227734375,25440,32.16144833034465,1029.6069536017988,0,40.689083,-73.99172,6.29,17:12:23
2024-03-25T13:12:23,-2.9994031290999996,1.6007983193999997,9.667003304,0.0355829001250344,0.0056505034533316425,-0.036193765363232405,0.17458,0.22106000000000003,-0.42840000000000006,5.5,1,1048,745,1247,3438,13.8157421875,26295,32.099595543753914,1029.6160249971635,0,40.689083,-73.99172,6.29,17:12:23
2024-03-25T13:12:23,-3.0065815969000003,1.5792629159999998,9.708877699499999,0.03466660226773738,0.008246680715673207,-0.03313943917224234,0.17374,0.21910000000000002,-0.43932000000000004,5.5,1,1048,745,1247,3438,13.8157421875,26295,32.099595543753914,1029.6160249971635,0,40.689083,-73.99172,6.29,17:12:23
2024-03-25T13:12:23,-2.928216656749999,1.6061821702499999,9.64845892885,0.0357356164345839,0.0056505034533316425,-0.036499197982331415,0.17374,0.21910000000000002,-0.43932000000000004,5.5,1,1048,745,1247,3438,13.8157421875,26295,32.099595543753914,1029.6160249971635,0,40.689083,-73.99172,6.29,17:12:23
2024-03-25T13:12:23,-2.9575287336,1.63609245275,9.627521731099998,0.0435241482216086,0.007635815477475193,-0.038637226316024474,0.17654000000000003,0.21966000000000002,-0.44800000000000006,5.5,1,1048,745,1247,3438,13.8157421875,26295,32.099595543753914,1029.6160249971635,0,40.689083,-73.99172,6.29,17:12:23
2024-03-25T13:12:23,-2.98444798785,1.6139588436999999,9.627521731099998,0.0357356164345839,0.00473420559603462,-0.03512475119638588,0.16562000000000002,0.21434000000000003,-0.4389,5.5,1,1049,745,1248,3440,13.8157421875,26295,32.099595543753914,1029.6160249971635,0,40.689083,-73.99172,6.29,17:12:23
2024-03-25T13:12:23,-2.928216656749999,1.5942180572499998,9.68674409045,0.037110063220529434,0.004581489286485115,-0.0357356164345839,0.17682000000000003,0.21070000000000003,-0.43358,5.5,1,1049,745,1248,3440,13.7971875,27001,31.942228976259717,1029.6230390754324,0,40.689083,-73.99172,6.29,17:12:23
2024-03-25T13:12:23,-2.976073108749999,1.6331014245,9.633503787599999,0.03344487179134134,0.006566801310628666,-0.0316122760767473,0.1743,0.21798,-0.43498000000000003,5.5,1,1049,745,1248,3440,13.7971875,27001,31.942228976259717,1029.6230390754324,0,40.689083,-73.99172,6.29,17:12:23
2024-03-25T13:12:23,-2.96530540705,1.6049857589499996,9.610771972899999,0.038179077387375956,0.0054977871437821395,-0.03313943917224234,0.17262,0.20286,-0.43904000000000004,5.5,1,1049,745,1248,3440,13.7971875,27001,31.942228976259717,1029.6230390754324,0,40.689083,-73.99172,5.94,17:12:23
2024-03-25T13:12:23,-2.9952156895499997,1.6127624323999998,9.595218626,0.03420845333908886,0.005192354524683131,-0.0357356164345839,0.17794000000000001,0.20958000000000002,-0.43162000000000006,5.5,1,1049,745,1248,3440,13.7971875,27001,31.942228976259717,1029.6230390754324,0,40.689083,-73.99172,5.94,17:12:23
2024-03-25T13:12:23,-2.9575287336,1.6301103962499996,9.664012275749998,0.037110063220529434,0.007330382858376185,-0.03390302071998985,0.17094000000000004,0.20986000000000002,-0.43946,5.5,1,1049,745,1248,3440,13.7971875,27001,31.942228976259717,1029.6230390754324,0,40.689083,-73.991735,5.94,17:12:24
2024-03-25T13:12:24,-2.9324040963,1.6366906583999998,9.6442714893,0.0357356164345839,0.005803219762881146,-0.0357356164345839,0.17794000000000001,0.21910000000000002,-0.42672000000000004,5.5,1,1049,745,1246,3438,14.0180859375,30121,31.965667661117248,1029.6005520067731,0,40.689083,-73.991735,5.94,17:12:24
2024-03-25T13:12:24,-2.9132615155,1.5984054967999999,9.71545796165,0.04077525464971753,0.0038179077387375964,-0.031459559767197796,0.18158000000000002,0.21322000000000002,-0.42938000000000004,5.5,1,1049,745,1246,3438,14.0180859375,30121,31.965667661117248,1029.6005520067731,0,40.689083,-73.991735,5.94,17:12:24
2024-03-25T13:12:24,-2.9539394997,1.6151552549999997,9.597013242949998,0.036193765363232405,0.0054977871437821395,-0.03695734691097993,0.18214000000000002,0.21854,-0.44184,5.5,1,1049,745,1246,3438,14.0180859375,30121,31.965667661117248,1029.6005520067731,0,40.689083,-73.991735,6.01,17:12:24
2024-03-25T13:12:24,-2.9736802861499996,1.60139652505,9.65324457405,0.03222314131494531,0.01145372321621279,-0.03420845333908886,0.18186000000000002,0.22106000000000003,-0.4312,5.5,1,1049,745,1246,3438,14.0180859375,30121,31.965667661117248,1029.6005520067731,0,40.689083,-73.991735,6.01,17:12:24
2024-03-25T13:12:24,-2.9150561324499997,1.6187444888999998,9.6454679006,0.03695734691097993,0.002901609881440573,-0.0357356164345839,0.17878000000000002,0.21294000000000002,-0.43848000000000004,5.5,1,1049,745,1246,3438,14.0180859375,30121,31.965667661117248,1029.6005520067731,0,40.689083,-73.991741,6.01,17:12:25
2024-03-25T13:12:25,-2.98923363305,1.63130680755,9.6358966102,0.038484510006474966,0.008093964406123704,-0.03527746750593539,0.17682000000000003,0.21630000000000002,-0.43512000000000006,5.5,1,1050,745,1247,3439,14.0196484375,29993,31.70998702938395,1029.6102086754013,0,40.689083,-73.991741,6.01,17:12:25
2024-03-25T13:12:25,-3.01316185905,1.62532475105,9.6394858441,0.03344487179134134,0.006414085001079162,-0.036193765363232405,0.1729,0.2233,-0.44002,5.5,1,1050,745,1247,3439,14.0196484375,29993,31.70998702938395,1029.6102086754013,0,40.689083,-73.991741,6.01,17:12:25
2024-03-25T13:12:25,-2.9718856691999997,1.6474583601,9.63170917065,0.03543018381548489,0.007177666548826681,-0.036499197982331415,0.1729,0.2233,-0.44002,5.5,1,1050,745,1247,3439,14.0196484375,29993,31.70998702938395,1029.6102086754013,0,40.689083,-73.991741,6.26,17:12:25
2024-03-25T13:12:25,-2.950350265799999,1.6354942471,9.5916293921,0.038179077387375956,0.009621127501618741,-0.02932153143350474,0.17150000000000004,0.21882000000000001,-0.44394000000000006,5.5,1,1050,745,1247,3439,14.0196484375,29993,31.70998702938395,1029.6102086754013,0,40.689083,-73.991741,6.26,17:12:25
2024-03-25T13:12:25,-3.0059833912499996,1.6139588436999999,9.6382894328,0.0357356164345839,0.0009162978572970231,-0.036804630601430424,0.17346,0.21910000000000002,-0.42826000000000003,5.5,1,1050,745,1247,3439,14.0196484375,29993,31.70998702938395,1029.6102086754013,0,40.689078,-73.991736,6.26,17:12:26
2024-03-25T13:12:26,-3.00478697995,1.61694987195,9.687342296099999,0.039553524173321496,0.004276056667386108,-0.03481931857728687,0.17542000000000002,0.21938000000000002,-0.43610000000000004,5.5,1,1052,746,1249,3446,13.96515625,29993,31.35606208284189,1029.628039192271,0,40.689078,-73.991736,6.26,17:12:26
2024-03-25T13:12:26,-2.9802605483,1.63250321885,9.57428142825,0.0355829001250344,0.006108652381980154,-0.03634648167278191,0.18214000000000002,0.21742,-0.43498000000000003,5.5,1,1052,746,1249,3446,13.96515625,29993,31.35606208284189,1029.628039192271,0,40.689078,-73.991736,6.26,17:12:26
2024-03-25T13:12:26,-2.9922246613,1.6187444888999998,9.53121062145,0.037110063220529434,0.005192354524683131,-0.038484510006474966,0.17710000000000004,0.21742,-0.43498000000000003,5.5,1,1052,746,1249,3446,13.96515625,29993,31.35606208284189,1029.628039192271,0,40.689078,-73.991736,4.11,17:12:26
2024-03-25T13:12:26,-2.95932335055,1.61216422675,9.652048162749999,0.03665191429188092,0.0038179077387375964,-0.036804630601430424,0.1799,0.21742,-0.42364,5.5,1,1052,746,1249,3446,13.96515625,29993,31.35606208284189,1029.628039192271,0,40.689078,-73.991736,4.11,17:12:26
2024-03-25T13:12:26,-3.0000013347500003,1.65044938835,9.616155823749999,0.03787364476827696,0.0038179077387375964,-0.038789942625573975,0.18074,0.21854,-0.43064,5.5,1,1052,746,1249,3446,13.96515625,29993,31.35606208284189,1029.628039192271,0,40.689073,-73.991733,4.11,17:12:27
2024-03-25T13:12:27,-2.9808587539499998,1.6211373115,9.647262517549999,0.038484510006474966,0.007941248096574201,-0.03420845333908886,0.17766,0.21378000000000003,-0.43848000000000004,5.5,1,1058,753,1258,3468,13.9149609375,30207,30.981338649527775,1029.6251328183791,0,40.689073,-73.991733,4.11,17:12:27
2024-03-25T13:12:27,-3.0329026454999997,1.6067803759,9.53719267795,0.03466660226773738,0.003970624048287101,-0.0357356164345839,0.17178000000000002,0.20874,-0.43372000000000005,5.5,1,1058,753,1258,3468,13.9149609375,30207,30.981338649527775,1029.6251328183791,0,40.689073,-73.991733,4.11,17:12:27
2024-03-25T13:12:27,-3.0233313550999994,1.6049857589499996,9.63529840455,0.037110063220529434,0.010537425358915765,-0.03237585762449482,0.18018,0.22302000000000002,-0.44086000000000003,5.5,1,1058,753,1258,3468,13.9149609375,30207,30.981338649527775,1029.6251328183791,0,40.689073,-73.991733,3.89,17:12:27
2024-03-25T13:12:27,-3.0203403268499995,1.61216422675,9.749555683699999,0.036193765363232405,0.004581489286485115,-0.03359758810089085,0.17934,0.21518,-0.43596,5.5,1,1058,753,1258,3468,13.9149609375,30207,30.981338649527775,1029.6251328183791,0,40.689073,-73.991733,3.89,17:12:27
2024-03-25T13:12:27,-2.9940192782499997,1.62293192845,9.6526463684,0.036193765363232405,0.007483099167925688,-0.03405573702953936,0.17542000000000002,0.21462000000000003,-0.43316000000000004,5.5,1,1058,753,1258,3468,13.9149609375,30207,30.981338649527775,1029.6251328183791,0,40.689064,-73.991721,3.89,17:12:28
2024-03-25T13:12:28,-2.9712874635499995,1.5900306176999999,9.6526463684,0.036193765363232405,0.007941248096574201,-0.03726277953007894,0.17794000000000001,0.22386,-0.42812000000000006,5.5,1,1053,747,1249,3449,13.8946484375,30469,30.621050686984244,1029.6274212469266,0,40.689064,-73.991721,3.89,17:12:28
2024-03-25T13:12:28,-2.96051976185,1.5996019081,9.6012006825,0.03527746750593539,0.007941248096574201,-0.03543018381548489,0.17178000000000002,0.21798,-0.42952,5.5,1,1053,747,1249,3449,13.8946484375,30469,30.621050686984244,1029.6274212469266,0,40.689064,-73.991721,3.89,17:12:28
2024-03-25T13:12:28,-2.9766713144,1.61694987195,9.556933464399998,0.030237829290801762,0.0054977871437821395,-0.03390302071998985,0.17374,0.21406000000000003,-0.42784000000000005,5.5,1,1053,747,1249,3449,13.8946484375,30469,30.621050686984244,1029.6274212469266,0,40.689064,-73.991721,3.89,17:12:28
2024-03-25T13:12:28,-2.95094847145,1.6235301341,9.6406822554,0.03512475119638588,0.008399397025222712,-0.037110063220529434,0.16814,0.21434000000000003,-0.42546000000000006,5.5,1,1053,747,1249,3449,13.8946484375,30469,30.621050686984244,1029.6274212469266,0,40.689064,-73.991721,3.89,17:12:28
2024-03-25T13:12:28,-2.9587251449000003,1.6199409001999998,9.6825566509,0.038179077387375956,0.007788531787024696,-0.03604104905368291,0.17122000000000004,0.21658000000000002,-0.4354,5.5,1,1053,747,1249,3449,13.8946484375,30469,30.621050686984244,1029.6274212469266,0,40.689064,-73.991721,3.89,17:12:28
2024-03-25T13:12:28,-2.9228328058999997,1.6289139849499998,9.6622176588,0.03313943917224234,0.008246680715673207,-0.03313943917224234,0.17374,0.22050000000000003,-0.42546000000000006,5.5,1,1053,747,1249,3449,13.865546875,30960,30.288539292034816,1029.6270433302784,0,40.689064,-73.991721,3.89,17:12:28
2024-03-25T13:12:28,-2.9724838748499995,1.58464676685,9.606584533349999,0.03298672286269283,0.0054977871437821395,-0.03604104905368291,0.17766,0.22386,-0.42406000000000005,5.5,1,1053,747,1249,3449,13.865546875,30960,30.288539292034816,1029.6270433302784,0,40.689064,-73.991721,3.89,17:12:28
2024-03-25T13:12:28,-2.9569305279499996,1.6103696097999998,9.614361206799998,0.036804630601430424,0.007635815477475193,-0.036499197982331415,0.17850000000000002,0.22022000000000003,-0.4148200000000001,5.5,1,1053,747,1249,3449,13.865546875,30960,30.288539292034816,1029.6270433302784,0,40.689064,-73.991721,3.69,17:12:28
2024-03-25T13:12:28,-2.9814569596,1.6145570493499999,9.63290558195,0.03512475119638588,0.006108652381980154,-0.03298672286269283,0.17486000000000002,0.21574000000000002,-0.41958000000000006,5.5,1,1053,747,1249,3449,13.865546875,30960,30.288539292034816,1029.6270433302784,0,40.689064,-73.991721,3.69,17:12:28
2024-03-25T13:12:28,-2.96530540705,1.6175480775999997,9.651449957099999,0.03298672286269283,0.0022907446432425577,-0.03375030441044035,0.17486000000000002,0.21574000000000002,-0.41958000000000006,5.5,1,1053,747,1249,3449,13.865546875,30960,30.288539292034816,1029.6270433302784,0,40.689056,-73.991711,3.69,17:12:29
2024-03-25T13:12:29,-2.98205516525,1.59661087985,9.6358966102,0.03283400655314333,0.00473420559603462,-0.03252857393404432,0.18494000000000002,0.2121,-0.42308000000000007,5.5,1,1055,749,1251,3453,14.0747265625,34194,30.30474759707198,1029.6056155752274,0,40.689056,-73.991711,3.69,17:12:29
2024-03-25T13:12:29,-2.9862426047999997,1.6025929363499998,9.63529840455,0.03543018381548489,0.009773843811168246,-0.03344487179134134,0.17822000000000002,0.21098000000000003,-0.43862000000000007,5.5,1,1055,749,1251,3453,14.0747265625,34194,30.30474759707198,1029.6056155752274,0,40.689056,-73.991711,3.69,17:12:29
2024-03-25T13:12:29,-3.0089744195,1.5978072911499999,9.5018985446,0.03665191429188092,0.008399397025222712,-0.03329215548179184,0.18242000000000003,0.21266000000000002,-0.43498000000000003,5.5,1,1055,749,1251,3453,14.0747265625,34194,30.30474759707198,1029.6056155752274,0,40.689056,-73.991711,4.44,17:12:29
2024-03-25T13:12:29,-2.9479574431999995,1.6432709205499998,9.6167540294,0.03298672286269283,0.005803219762881146,-0.03588833274413341,0.17150000000000004,0.22022000000000003,-0.43386,5.5,1,1055,749,1251,3453,14.0747265625,34194,30.30474759707198,1029.6056155752274,0,40.689056,-73.991711,4.44,17:12:29
2024-03-25T13:12:29,-3.00119774605,1.61216422675,9.601798888149998,0.0357356164345839,0.006414085001079162,-0.03298672286269283,0.18074,0.21630000000000002,-0.43666000000000005,5.5,1,1055,749,1251,3453,14.0747265625,34194,30.30474759707198,1029.6056155752274,0,40.689048,-73.991711,4.44,17:12:30
2024-03-25T13:12:30,-3.0053851856,1.6498511827,9.628718142399999,0.03344487179134134,0.007635815477475193,-0.03329215548179184,0.17654000000000003,0.22106000000000003,-0.43036,5.5,1,1055,748,1250,3450,14.046796875,33784,29.978503976380182,1029.6072509648675,0,40.689048,-73.991711,4.44,17:12:30
2024-03-25T13:12:30,-2.98923363305,1.5948162628999998,9.513862657599999,0.0355829001250344,0.01145372321621279,-0.0355829001250344,0.17150000000000004,0.22162000000000004,-0.44044000000000005,5.5,1,1055,748,1250,3450,14.046796875,33784,29.978503976380182,1029.6072509648675,0,40.689048,-73.991711,4.44,17:12:30
2024-03-25T13:12:30,-2.9521448827499994,1.61575346065,9.59940606555,0.03634648167278191,0.009621127501618741,-0.0319177086958463,0.17150000000000004,0.22162000000000004,-0.44044000000000005,5.5,1,1054,748,1249,3448,14.046796875,33784,29.978503976380182,1029.6072509648675,0,40.689048,-73.991711,4.9,17:12:30
2024-03-25T13:12:30,-2.9485556488499993,1.6175480775999997,9.6012006825,0.03588833274413341,0.009926560120717751,-0.03298672286269283,0.17906000000000002,0.21714000000000003,-0.43232000000000004,5.5,1,1054,748,1249,3448,14.046796875,33784,29.978503976380182,1029.6072509648675,0,40.689048,-73.991711,4.9,17:12:30
2024-03-25T13:12:30,-3.00717980255,1.6235301341,9.643075077999999,0.037110063220529434,0.005803219762881146,-0.03588833274413341,0.17626000000000003,0.22050000000000003,-0.44086000000000003,5.5,1,1054,748,1249,3448,14.046796875,33784,29.978503976380182,1029.6072509648675,0,40.68904,-73.991669,4.9,17:12:31
2024-03-25T13:12:31,-2.9676982296499994,1.6133606380499999,9.671788949199998,0.03512475119638588,0.008704829644321718,-0.03298672286269283,0.16898000000000002,0.2121,-0.42280000000000006,5.5,1,1055,748,1250,3450,13.9446484375,34029,29.581778609657334,1029.6019850021594,0,40.68904,-73.991669,4.9,17:12:31
2024-03-25T13:12:31,-2.9479574431999995,1.5936198515999997,9.588638363849999,0.038484510006474966,0.00946841119206924,-0.03695734691097993,0.17682000000000003,0.21182,-0.4403000000000001,5.5,1,1055,748,1250,3450,13.9446484375,34029,29.581778609657334,1029.6019850021594,0,40.68904,-73.991669,4.9,17:12:31
2024-03-25T13:12:31,-2.9778677257000004,1.6295121905999996,9.616155823749999,0.03405573702953936,0.008399397025222712,-0.03634648167278191,0.17682000000000003,0.21182,-0.4403000000000001,5.5,1,1055,748,1250,3450,13.9446484375,34029,29.581778609657334,1029.6019850021594,0,40.68904,-73.991669,0.18,17:12:31
2024-03-25T13:12:31,-2.9838497821999996,1.6187444888999998,9.664012275749998,0.03298672286269283,0.007941248096574201,-0.03695734691097993,0.17794000000000001,0.21434000000000003,-0.43134000000000006,5.5,1,1055,748,1250,3450,13.9446484375,34029,29.581778609657334,1029.6019850021594,0,40.68904,-73.991669,0.18,17:12:31
2024-03-25T13:12:31,-2.9629125844499997,1.6139588436999999,9.625128908499999,0.03665191429188092,0.008246680715673207,-0.03695734691097993,0.17486000000000002,0.21070000000000003,-0.43610000000000004,5.5,1,1055,748,1250,3450,13.9446484375,34029,29.581778609657334,1029.6019850021594,0,40.689038,-73.991653,0.18,17:12:32
2024-03-25T13:12:32,-3.0406793189499997,1.6235301341,9.661021247499999,0.03741549583962844,0.007330382858376185,-0.03451388595818787,0.17794000000000001,0.21322000000000002,-0.43148000000000003,5.5,1,1058,751,1255,3464,13.844453125,34333,29.213766178861952,1029.599989371859,0,40.689038,-73.991653,0.18,17:12:32
2024-03-25T13:12:32,-2.9258238341499996,1.6223337227999999,9.539585500549999,0.03466660226773738,0.007483099167925688,-0.03512475119638588,0.16982000000000003,0.21882000000000001,-0.42742,5.5,1,1058,751,1255,3464,13.844453125,34333,29.213766178861952,1029.599989371859,0,40.689038,-73.991653,0.18,17:12:32
2024-03-25T13:12:32,-2.9641089957499998,1.62293192845,9.580263484749999,0.03741549583962844,0.0056505034533316425,-0.03252857393404432,0.16982000000000003,0.21882000000000001,-0.42742,5.5,1,1058,751,1255,3464,13.844453125,34333,29.213766178861952,1029.599989371859,0,40.689038,-73.991653,0.19,17:12:32
2024-03-25T13:12:32,-2.9485556488499993,1.6181462832499998,9.526424976249999,0.03527746750593539,0.009773843811168246,-0.03207042500539581,0.17822000000000002,0.21854,-0.43666000000000005,5.5,1,1058,751,1255,3464,13.844453125,34333,29.213766178861952,1029.599989371859,0,40.689038,-73.991653,0.19,17:12:32
2024-03-25T13:12:32,-2.9748766974499996,1.62053910585,9.6347001989,0.03527746750593539,0.0068722339297276735,-0.031154127148098783,0.18494000000000002,0.21182,-0.43428000000000005,5.5,1,1058,751,1255,3464,13.844453125,34333,29.213766178861952,1029.599989371859,0,40.689036,-73.991643,0.19,17:12:33
2024-03-25T13:12:33,-2.9928228669499997,1.5954144685499996,9.521041125399998,0.04001167310197001,0.0070249502392771765,-0.03695734691097993,0.17458,0.20874,-0.44842000000000004,5.5,1,1066,758,1266,3490,13.738203125,34700,28.8355643544338,1029.6016734664963,0,40.689036,-73.991643,0.19,17:12:33
2024-03-25T13:12:33,-2.98444798785,1.5840485612,9.61376300115,0.03298672286269283,0.0056505034533316425,-0.03604104905368291,0.18214000000000002,0.20762000000000003,-0.44534,5.5,1,1066,758,1266,3490,13.738203125,34700,28.8355643544338,1029.6016734664963,0,40.689036,-73.991643,0.19,17:12:33
2024-03-25T13:12:33,-2.9180471606999996,1.61216422675,9.5904329808,0.031764992386296806,0.007788531787024696,-0.03481931857728687,0.17710000000000004,0.20986000000000002,-0.4403000000000001,5.5,1,1066,758,1266,3490,13.738203125,34700,28.8355643544338,1029.6016734664963,0,40.689036,-73.991643,0.19,17:12:33
2024-03-25T13:12:33,-2.9928228669499997,1.6145570493499999,9.503693161549998,0.03375030441044035,0.004276056667386108,-0.03726277953007894,0.17402,0.21546,-0.43708,5.5,1,1066,758,1266,3490,13.738203125,34700,28.8355643544338,1029.6016734664963,0,40.689036,-73.991643,0.19,17:12:33
2024-03-25T13:12:33,-3.00957262515,1.5804593272999998,9.57787066215,0.03695734691097993,0.008704829644321718,-0.038179077387375956,0.17850000000000002,0.21042000000000002,-0.44282000000000005,5.5,1,1066,758,1266,3490,13.738203125,34700,28.8355643544338,1029.6016734664963,0,40.689036,-73.991643,0.19,17:12:33
2024-03-25T13:12:33,-2.9946174838999995,1.6235301341,9.6023970938,0.03604104905368291,0.00946841119206924,-0.03390302071998985,0.18354,0.21098000000000003,-0.4426800000000001,5.5,1,1066,758,1266,3490,13.6313671875,35162,28.474791777409443,1029.5970610392603,0,40.689036,-73.991643,0.19,17:12:33
2024-03-25T13:12:33,-2.9718856691999997,1.6049857589499996,9.61017376725,0.03222314131494531,0.010537425358915765,-0.03527746750593539,0.17962,0.21910000000000002,-0.44576000000000005,5.5,1,1066,758,1266,3490,13.6313671875,35162,28.474791777409443,1029.5970610392603,0,40.689036,-73.991643,0.19,17:12:33
2024-03-25T13:12:33,-2.998206717799999,1.6115660211,9.55035320225,0.03268129024359383,0.010079276430267254,-0.03665191429188092,0.17262,0.20006000000000004,-0.45248,5.5,1,1066,758,1266,3490,13.6313671875,35162,28.474791777409443,1029.5970610392603,0,40.689036,-73.991643,0.27,17:12:33
2024-03-25T13:12:33,-3.0448667584999995,1.6223337227999999,9.614361206799998,0.036804630601430424,0.010537425358915765,-0.031764992386296806,0.17906000000000002,0.21826,-0.44884,5.5,1,1066,758,1266,3490,13.6313671875,35162,28.474791777409443,1029.5970610392603,0,40.689036,-73.991643,0.27,17:12:33
2024-03-25T13:12:33,-2.9802605483,1.6031911419999998,9.57428142825,0.0357356164345839,0.008399397025222712,-0.03634648167278191,0.17906000000000002,0.21826,-0.44884,5.5,1,1066,758,1266,3490,13.6313671875,35162,28.474791777409443,1029.5970610392603,0,40.68903,-73.991623,0.27,17:12:34
2024-03-25T13:12:34,-2.9826533709,1.6067803759,9.59581683165,0.03695734691097993,0.007635815477475193,-0.036499197982331415,0.17682000000000003,0.21154000000000003,-0.4443600000000001,5.5,1,1065,758,1266,3490,13.785859375,38356,28.4969785988622,1029.565295565591,0,40.68903,-73.991623,0.27,17:12:34
2024-03-25T13:12:34,-2.93060947935,1.61216422675,9.583254513,0.038637226316024474,0.00916297857297023,-0.03390302071998985,0.17486000000000002,0.21462000000000003,-0.43036,5.5,1,1065,758,1266,3490,13.785859375,38356,28.4969785988622,1029.565295565591,0,40.68903,-73.991623,0.27,17:12:34
2024-03-25T13:12:34,-2.90787766465,1.6193426945499998,9.5856473356,0.03726277953007894,0.007483099167925688,-0.03588833274413341,0.17514000000000002,0.21462000000000003,-0.4466,5.5,1,1065,758,1266,3490,13.785859375,38356,28.4969785988622,1029.565295565591,0,40.68903,-73.991623,0.09,17:12:34
2024-03-25T13:12:34,-2.9395825641,1.62293192845,9.690931529999999,0.03772092845872745,0.007635815477475193,-0.031001410838549282,0.18522000000000002,0.21602000000000002,-0.44058,5.5,1,1065,758,1266,3490,13.785859375,38356,28.4969785988622,1029.565295565591,0,40.68903,-73.991623,0.09,17:12:34
2024-03-25T13:12:34,-2.9551359109999997,1.62412833975,9.606584533349999,0.038637226316024474,0.01114829059711378,-0.03726277953007894,0.18522000000000002,0.21602000000000002,-0.44058,5.5,1,1065,758,1266,3490,13.785859375,38356,28.4969785988622,1029.565295565591,0,40.689025,-73.991613,0.09,17:12:35
2024-03-25T13:12:35,-2.9922246613,1.5978072911499999,9.61376300115,0.037110063220529434,0.006108652381980154,-0.0355829001250344,0.18130000000000002,0.21630000000000002,-0.4397400000000001,5.5,1,1063,755,1262,3480,13.7282421875,37908,28.16777728604644,1029.5777607877237,0,40.689025,-73.991613,0.09,17:12:35
2024-03-25T13:12:35,-2.99043004435,1.6235301341,9.585049129949999,0.03695734691097993,0.00916297857297023,-0.03512475119638588,0.17822000000000002,0.2121,-0.42910000000000004,5.5,1,1063,755,1262,3480,13.7282421875,37908,28.16777728604644,1029.5777607877237,0,40.689025,-73.991613,0.09,17:12:35
2024-03-25T13:12:35,-3.00119774605,1.61216422675,9.60419171075,0.037110063220529434,0.005039638215133627,-0.036193765363232405,0.18438000000000002,0.22274000000000002,-0.42784000000000005,5.5,1,1063,755,1262,3480,13.7282421875,37908,28.16777728604644,1029.5777607877237,0,40.689025,-73.991613,0.06,17:12:35
2024-03-25T13:12:35,-2.9868408104499995,1.5906288233499997,9.55513884745,0.031001410838549282,0.005345070834232635,-0.03695734691097993,0.17850000000000002,0.21518,-0.42798,5.5,1,1063,755,1262,3480,13.7282421875,37908,28.16777728604644,1029.5777607877237,0,40.689025,-73.991613,0.06,17:12:35
2024-03-25T13:12:35,-2.9575287336,1.6007983193999997,9.5964150373,0.03329215548179184,0.009010262263420728,-0.03207042500539581,0.17850000000000002,0.21518,-0.42798,5.5,1,1063,755,1262,3480,13.7282421875,37908,28.16777728604644,1029.5777607877237,0,40.689018,-73.99159,0.06,17:12:36
2024-03-25T13:12:36,-2.9706892578999997,1.6223337227999999,9.625128908499999,0.0355829001250344,0.007330382858376185,-0.036804630601430424,0.18550000000000003,0.21350000000000002,-0.4508000000000001,5.5,1,1060,752,1256,3464,13.6034375,37638,27.80765690740018,1029.574139304507,0,40.689018,-73.99159,0.06,17:12:36
2024-03-25T13:12:36,-2.9587251449000003,1.6073785815499997,9.557531670049999,0.038484510006474966,0.009315694882519735,-0.03527746750593539,0.17822000000000002,0.20734000000000002,-0.44086000000000003,5.5,1,1060,752,1256,3464,13.6034375,37638,27.80765690740018,1029.574139304507,0,40.689018,-73.99159,0.06,17:12:36
2024-03-25T13:12:36,-2.9772695200499997,1.62293192845,9.62692352545,0.03344487179134134,0.012217304763960308,-0.03313943917224234,0.17738000000000004,0.21546,-0.44744000000000006,5.5,1,1060,752,1256,3464,13.6034375,37638,27.80765690740018,1029.574139304507,0,40.689018,-73.99159,0.04,17:12:36
2024-03-25T13:12:36,-2.95334129405,1.6151552549999997,9.6490571345,0.03924809155422249,0.007177666548826681,-0.03634648167278191,0.18102000000000001,0.20986000000000002,-0.43750000000000006,5.5,1,1060,752,1256,3464,13.6034375,37638,27.80765690740018,1029.574139304507,0,40.689018,-73.99159,0.04,17:12:36
2024-03-25T13:12:36,-2.9587251449000003,1.6061821702499999,9.638887638449999,0.03527746750593539,0.009315694882519735,-0.03344487179134134,0.18102000000000001,0.20986000000000002,-0.43750000000000006,5.5,1,1060,752,1256,3464,13.6034375,37638,27.80765690740018,1029.574139304507,0,40.689016,-73.99158,0.04,17:12:37
2024-03-25T13:12:37,-2.9288148624000003,1.6139588436999999,9.551549613549998,0.03787364476827696,0.0068722339297276735,-0.03390302071998985,0.18046,0.20958000000000002,-0.43932000000000004,5.5,1,1060,752,1255,3464,13.4731640625,37739,27.49132045004557,1029.5961564567688,0,40.689016,-73.99158,0.04,17:12:37
2024-03-25T13:12:37,-2.95334129405,1.6049857589499996,9.6131647955,0.03543018381548489,0.008704829644321718,-0.03497203488683638,0.18998,0.21630000000000002,-0.42952,5.5,1,1060,752,1255,3464,13.4731640625,37739,27.49132045004557,1029.5961564567688,0,40.689016,-73.99158,0.04,17:12:37
2024-03-25T13:12:37,-2.9754749030999994,1.6516457996499998,9.6047899164,0.038331793696925465,0.003054326190990077,-0.03436116964863837,0.18634000000000003,0.21182,-0.44492000000000004,5.5,1,1060,752,1255,3464,13.4731640625,37739,27.49132045004557,1029.5961564567688,0,40.689016,-73.99158,0.03,17:12:37
2024-03-25T13:12:37,-2.9862426047999997,1.6073785815499997,9.5856473356,0.031154127148098783,0.012370021073509813,-0.03344487179134134,0.18074,0.21378000000000003,-0.44156000000000006,5.5,1,1060,752,1255,3502,13.4731640625,37739,27.49132045004557,1029.5961564567688,0,40.689016,-73.99158,0.03,17:12:37
2024-03-25T13:12:37,-2.9485556488499993,1.6259229567,9.631110965,0.03665191429188092,0.0056505034533316425,-0.03283400655314333,0.18074,0.21378000000000003,-0.44156000000000006,5.5,0,1070,762,1271,3502,13.4731640625,37739,27.49132045004557,1029.5961564567688,0,40.689008,-73.99155,0.03,17:12:38
2024-03-25T13:12:38,-2.9778677257000004,1.6043875532999998,9.607182738999999,0.07651087108430142,0.007635815477475193,-0.03543018381548489,0.18354,0.20902,-0.44072,5.5,2,1074,765,1276,3514,13.3434765625,38707,27.20276585350334,1029.6015902736742,0,40.689008,-73.99155,0.03,17:12:38
2024-03-25T13:12:38,-3.0281170003,1.62173551715,9.676574594399998,0.03329215548179184,0.009010262263420728,-0.03527746750593539,0.17794000000000001,0.20958000000000002,-0.4312,5.5,2,1074,765,1276,3514,13.3434765625,38707,27.20276585350334,1029.6015902736742,0,40.689008,-73.99155,0.03,17:12:38
2024-03-25T13:12:38,-2.9736802861499996,1.6007983193999997,9.561120903949998,0.03665191429188092,0.0070249502392771765,-0.03420845333908886,0.17794000000000001,0.20958000000000002,-0.4312,5.5,2,1074,765,1276,3514,13.3434765625,38707,27.20276585350334,1029.6015902736742,0,40.689008,-73.99155,0.03,17:12:38
2024-03-25T13:12:38,-2.9264220397999994,1.6115660211,9.605388122049998,0.04016438941151951,0.00916297857297023,-0.0357356164345839,0.17626000000000003,0.20370000000000002,-0.43750000000000006,5.5,2,1074,765,1276,3514,13.3434765625,38707,27.20276585350334,1029.6015902736742,0,40.689008,-73.99155,0.03,17:12:38
2024-03-25T13:12:38,-2.9623143788,1.5888342063999998,9.535996266649999,0.03741549583962844,0.012522737383059314,-0.03344487179134134,0.18382,0.20034000000000002,-0.44604000000000005,5.5,2,1074,765,1276,3514,13.3434765625,38707,27.20276585350334,1029.6015902736742,0,40.689008,-73.99155,0.03,17:12:38
2024-03-25T13:12:38,-2.99043004435,1.6025929363499998,9.633503787599999,0.03497203488683638,0.007788531787024696,-0.03527746750593539,0.17738000000000004,0.20370000000000002,-0.44506000000000007,5.5,2,1074,765,1276,3514,13.2176953125,38391,26.920611418375316,1029.6048370550018,0,40.689008,-73.99155,0.03,17:12:38
2024-03-25T13:12:38,-2.9856443991499995,1.62532475105,9.6012006825,0.03527746750593539,0.007941248096574201,-0.03283400655314333,0.18718,0.21854,-0.44058,5.5,2,1074,765,1276,3514,13.2176953125,38391,26.920611418375316,1029.6048370550018,0,40.689008,-73.99155,0.03,17:12:38
2024-03-25T13:12:38,-2.99102825,1.62053910585,9.582058101699998,0.039400807863771994,0.0070249502392771765,-0.031154127148098783,0.18074,0.21042000000000002,-0.43442000000000003,5.5,2,1074,765,1276,3514,13.2176953125,38391,26.920611418375316,1029.6048370550018,0,40.689008,-73.99155,0.11,17:12:38
2024-03-25T13:12:38,-2.976073108749999,1.57746829905,9.58624554125,0.03741549583962844,0.008857545953871223,-0.03543018381548489,0.18354,0.21406000000000003,-0.44562000000000007,5.5,2,1074,765,1276,3514,13.2176953125,38391,26.920611418375316,1029.6048370550018,0,40.689008,-73.99155,0.11,17:12:38
2024-03-25T13:12:38,-2.96530540705,1.6354942471,9.628119936749998,0.041080687268816536,0.01069014166846527,-0.036499197982331415,0.18662,0.21378000000000003,-0.42868000000000006,5.5,2,1074,765,1276,3514,13.2176953125,38391,26.920611418375316,1029.6048370550018,0,40.689001,-73.991513,0.11,17:12:39
2024-03-25T13:12:39,-2.99880492345,1.6211373115,9.620343263299999,0.036193765363232405,0.01114829059711378,-0.03420845333908886,0.18830000000000002,0.21098000000000003,-0.44562000000000007,5.5,1,1073,764,1275,3512,13.3567578125,42272,26.957085328651463,1029.5716666610526,0,40.689001,-73.991513,0.11,17:12:39
2024-03-25T13:12:39,-2.9150561324499997,1.6492529770499997,9.595218626,0.03298672286269283,0.004276056667386108,-0.03497203488683638,0.17878000000000002,0.20762000000000003,-0.42630000000000007,5.5,1,1073,764,1275,3512,13.3567578125,42272,26.957085328651463,1029.5716666610526,0,40.689001,-73.991513,0.11,17:12:39
2024-03-25T13:12:39,-2.9922246613,1.6037893476499998,9.601798888149998,0.031459559767197796,0.008246680715673207,-0.030848694528999777,0.18858000000000003,0.20762000000000003,-0.4473000000000001,5.5,1,1073,764,1275,3512,13.3567578125,42272,26.957085328651463,1029.5716666610526,0,40.689001,-73.991513,0.17,17:12:39
2024-03-25T13:12:39,-2.9527430884,1.6277175736499998,9.57906707345,0.03527746750593539,0.008704829644321718,-0.03390302071998985,0.18326,0.21070000000000003,-0.43666000000000005,5.5,1,1073,764,1275,3512,13.3567578125,42272,26.957085328651463,1029.5716666610526,0,40.689001,-73.991513,0.17,17:12:39
2024-03-25T13:12:39,-2.9485556488499993,1.5972090855,9.567102960449999,0.03390302071998985,0.008552113334772215,-0.03604104905368291,0.17850000000000002,0.20706000000000002,-0.43610000000000004,5.5,1,1073,764,1275,3512,13.3567578125,42272,26.957085328651463,1029.5716666610526,0,40.688995,-73.99149,0.17,17:12:40
2024-03-25T13:12:40,-2.93419871325,1.6366906583999998,9.63649481585,0.03695734691097993,0.007330382858376185,-0.03512475119638588,0.18074,0.21546,-0.44310000000000005,5.5,1,1074,764,1273,3507,13.2813671875,41483,26.69502969529824,1029.5783120109468,0,40.688995,-73.99149,0.17,17:12:40
2024-03-25T13:12:40,-2.9994031290999996,1.5972090855,9.62692352545,0.03436116964863837,0.007330382858376185,-0.03405573702953936,0.18606000000000003,0.21322000000000002,-0.42322000000000004,5.5,1,1074,764,1273,3507,13.2813671875,41483,26.69502969529824,1029.5783120109468,0,40.688995,-73.99149,0.17,17:12:40
2024-03-25T13:12:40,-2.97009105225,1.5984054967999999,9.576076045199999,0.03497203488683638,0.00916297857297023,-0.0357356164345839,0.17794000000000001,0.21686000000000002,-0.4158,5.5,1,1074,764,1273,3507,13.2813671875,41483,26.69502969529824,1029.5783120109468,0,40.688995,-73.99149,0.08,17:12:40
2024-03-25T13:12:40,-2.9718856691999997,1.61694987195,9.5724868113,0.0355829001250344,0.009315694882519735,-0.03726277953007894,0.18102000000000001,0.21126000000000003,-0.44156000000000006,5.5,1,1074,764,1273,3507,13.2813671875,41483,26.69502969529824,1029.5783120109468,0,40.688995,-73.99149,0.08,17:12:40
2024-03-25T13:12:40,-2.99043004435,1.6139588436999999,9.61376300115,0.03772092845872745,0.010995574287564279,-0.03207042500539581,0.18102000000000001,0.21126000000000003,-0.44156000000000006,5.5,1,1074,764,1273,3507,13.2813671875,41483,26.69502969529824,1029.5783120109468,0,40.68899,-73.991473,0.08,17:12:41
2024-03-25T13:12:41,-2.9437700036499996,1.59900370245,9.53719267795,0.038942658935123484,0.010537425358915765,-0.03329215548179184,0.17766,0.21434000000000003,-0.43750000000000006,5.5,0,1075,765,1275,3512,13.138203125,41524,26.423598157633947,1029.5974669038076,0,40.68899,-73.991473,0.08,17:12:41
2024-03-25T13:12:41,-2.9479574431999995,1.6223337227999999,9.61735223505,0.03344487179134134,0.012217304763960308,-0.03298672286269283,0.18354,0.21294000000000002,-0.43050000000000005,5.5,0,1075,765,1275,3512,13.138203125,41524,26.423598157633947,1029.5974669038076,0,40.68899,-73.991473,0.08,17:12:41
2024-03-25T13:12:41,-2.9694928465999992,1.5996019081,9.627521731099998,0.03222314131494531,0.008552113334772215,-0.03588833274413341,0.18186000000000002,0.21434000000000003,-0.43526000000000004,5.5,0,1075,765,1275,3512,13.138203125,41524,26.423598157633947,1029.5974669038076,0,40.68899,-73.991473,0.05,17:12:41
2024-03-25T13:12:41,-2.98205516525,1.6342978357999998,9.644869694949998,0.03604104905368291,0.006566801310628666,-0.0319177086958463,0.18326,0.21042000000000002,-0.43708,5.5,0,1075,765,1275,3512,13.138203125,41524,26.423598157633947,1029.5974669038076,0,40.68899,-73.991473,0.05,17:12:41
2024-03-25T13:12:41,-2.9928228669499997,1.6097714041500002,9.6023970938,0.03604104905368291,0.008093964406123704,-0.03313943917224234,0.18326,0.21042000000000002,-0.43708,5.5,0,1075,765,1275,3512,13.138203125,41524,26.423598157633947,1029.5974669038076,0,40.688981,-73.991455,0.05,17:12:42
2024-03-25T13:12:42,-2.9838497821999996,1.60139652505,9.584450924299999,0.03665191429188092,0.010079276430267254,-0.03359758810089085,0.17654000000000003,0.21350000000000002,-0.43638000000000005,5.5,1,1077,766,1278,3520,12.9880078125,41160,26.194967050571048,1029.6028259000573,0,40.688981,-73.991455,0.05,17:12:42
2024-03-25T13:12:42,-2.9377879471499995,1.6133606380499999,9.57188860565,0.03741549583962844,0.007941248096574201,-0.03344487179134134,0.18186000000000002,0.21098000000000003,-0.42854000000000003,5.5,1,1077,766,1278,3520,12.9880078125,41160,26.194967050571048,1029.6028259000573,0,40.688981,-73.991455,0.05,17:12:42
2024-03-25T13:12:42,-2.9742784917999994,1.60857499285,9.611968384199999,0.03726277953007894,0.009621127501618741,-0.03390302071998985,0.18438000000000002,0.21490000000000004,-0.44422,5.5,1,1077,766,1278,3520,12.9880078125,41160,26.194967050571048,1029.6028259000573,0,40.688981,-73.991455,0.15,17:12:42
2024-03-25T13:12:42,-2.98803722175,1.57268265385,9.6574320136,0.04001167310197001,0.007941248096574201,-0.0355829001250344,0.17962,0.21462000000000003,-0.43848000000000004,5.5,1,1077,766,1278,3520,12.9880078125,41160,26.194967050571048,1029.6028259000573,0,40.688981,-73.991455,0.15,17:12:42
2024-03-25T13:12:42,-2.9611179675,1.61216422675,9.58624554125,0.03726277953007894,0.008857545953871223,-0.03634648167278191,0.18466000000000002,0.21630000000000002,-0.44254000000000004,5.5,1,1077,766,1278,3520,12.9880078125,41160,26.194967050571048,1029.6028259000573,0,40.688981,-73.991445,0.15,17:12:43
2024-03-25T13:12:43,-2.9742784917999994,1.6103696097999998,9.562317315249999,0.03588833274413341,0.01069014166846527,-0.03772092845872745,0.18634000000000003,0.2121,-0.44002,5.5,1,1075,765,1276,3516,12.8458203125,41770,25.99927769650252,1029.6007139360163,0,40.688981,-73.991445,0.15,17:12:43
2024-03-25T13:12:43,-2.9204399833,1.6402798923,9.584450924299999,0.038331793696925465,0.007788531787024696,-0.03497203488683638,0.18018,0.21686000000000002,-0.44576000000000005,5.5,1,1075,765,1276,3516,12.8458203125,41770,25.99927769650252,1029.6007139360163,0,40.688981,-73.991445,0.15,17:12:43
2024-03-25T13:12:43,-3.0257241777000004,1.6002001137499997,9.607780944649999,0.03466660226773738,0.007330382858376185,-0.03481931857728687,0.17822000000000002,0.21462000000000003,-0.44996,5.5,1,1075,765,1276,3516,12.8458203125,41770,25.99927769650252,1029.6007139360163,0,40.688981,-73.991445,0.15,17:12:43
2024-03-25T13:12:43,-2.9946174838999995,1.6187444888999998,9.673583566149999,0.03512475119638588,0.009926560120717751,-0.03451388595818787,0.1743,0.22050000000000003,-0.45052000000000003,5.5,1,1075,765,1276,3516,12.8458203125,41770,25.99927769650252,1029.6007139360163,0,40.688981,-73.991445,0.15,17:12:43
2024-03-25T13:12:43,-3.0059833912499996,1.6139588436999999,9.580861690399999,0.03497203488683638,0.007788531787024696,-0.03390302071998985,0.17878000000000002,0.21714000000000003,-0.43722000000000005,5.5,1,1075,765,1276,3516,12.8458203125,41770,25.99927769650252,1029.6007139360163,0,40.688981,-73.991445,0.15,17:12:43
2024-03-25T13:12:43,-2.9587251449000003,1.6187444888999998,9.500103927649999,0.03543018381548489,0.010231992739816757,-0.03283400655314333,0.17458,0.20874,-0.43358,5.5,1,1075,765,1276,3516,12.7106640625,42357,25.82037203767338,1029.6034724523947,0,40.688953,-73.991343,0.15,17:12:44
2024-03-25T13:12:44,-2.7661029256000003,1.5786647103499998,9.5425765288,0.036804630601430424,0.010384709049366262,-0.036193765363232405,0.17906000000000002,0.2093,-0.43932000000000004,5.5,1,1074,764,1275,3514,12.8430859375,46102,25.85045852291612,1029.569847317192,0,40.688953,-73.991343,0.15,17:12:44
2024-03-25T13:12:44,-3.0119654477499997,1.58703958945,9.65324457405,0.03756821214917795,0.006108652381980154,-0.03359758810089085,0.18214000000000002,0.21546,-0.4461800000000001,5.5,1,1074,764,1275,3514,12.8430859375,46102,25.85045852291612,1029.569847317192,0,40.688953,-73.991343,0.15,17:12:44
2024-03-25T13:12:44,-2.9359933301999996,1.5834503555499997,9.5449693514,0.038637226316024474,0.007483099167925688,-0.03451388595818787,0.18438000000000002,0.21966000000000002,-0.44450000000000006,5.5,1,1074,764,1275,3514,12.8430859375,46102,25.85045852291612,1029.569847317192,0,40.688953,-73.991343,0.31,17:12:44
2024-03-25T13:12:44,-2.95453770535,1.6031911419999998,9.5330052384,0.03329215548179184,0.008093964406123704,-0.03359758810089085,0.1869,0.21546,-0.44646,5.5,1,1075,765,1275,3514,12.8430859375,46102,25.85045852291612,1029.569847317192,0,40.688953,-73.991343,0.31,17:12:44
2024-03-25T13:12:44,-2.9473592375499993,1.6187444888999998,9.607780944649999,0.03283400655314333,0.007788531787024696,-0.03207042500539581,0.17542000000000002,0.21686000000000002,-0.43610000000000004,5.5,1,1075,765,1275,3514,12.8430859375,46102,25.85045852291612,1029.569847317192,0,40.688936,-73.991303,0.31,17:12:45
2024-03-25T13:12:45,-2.9539394997,1.6079767872,9.61854864635,0.0355829001250344,0.009315694882519735,-0.03451388595818787,0.18494000000000002,0.2093,-0.44310000000000005,4.5,1,1074,764,1274,3512,12.75578125,44688,25.664391094007264,1029.582282373843,0,40.688936,-73.991303,0.31,17:12:45
2024-03-25T13:12:45,-2.9449664149499997,1.5972090855,9.5736832226,0.03359758810089085,0.007177666548826681,-0.03390302071998985,0.18466000000000002,0.21182,-0.43904000000000004,5.5,1,1074,764,1274,3512,12.75578125,44688,25.664391094007264,1029.582282373843,0,40.688936,-73.991303,0.31,17:12:45
