Timestamp,Accel_X,Accel_Y,Accel_Z,Gyro_X,Gyro_Y,Gyro_Z,Mag_X,Mag_Y,Mag_Z,LSM9DS1_Temp,Proximity,Color_R,Color_G,Color_B,Color_C,BME680_Temp,Gas,Humidity,Pressure,Switch_Pressed
2024-03-17T15:39:38,-0.37328032559999996,0.22073788485,9.83509909165,0.019700403931885997,0.018173240836390957,0.08582656596682116,0.16702,0.5520200000000001,-0.37128000000000005,17.5,0,0,0,0,0,33.574921875,5447,100,695.662002676745,0
2024-03-17T15:39:38,-0.39900316855,0.16151552549999998,9.829715240799999,0.019547687622336492,0.018784106074588976,0.08811731061006371,0.16478000000000004,0.55342,-0.3703,17.5,0,0,0,0,0,33.574921875,5447,100,695.662002676745,0
2024-03-17T15:39:38,-0.37866417645,0.17527425545,9.794421107449999,0.021838432265579053,0.019089538693687978,0.0870482964432172,0.15582000000000001,0.54698,-0.36624,17.5,0,0,0,0,0,33.574921875,5447,100,695.662002676745,0
2024-03-17T15:39:38,-0.36789647475,0.18125631194999997,9.887142983199999,0.018173240836390957,0.02168571595602955,0.08552113334772216,0.15582000000000001,0.54698,-0.36624,17.5,0,0,0,0,0,33.574921875,5447,100,695.662002676745,0
2024-03-17T15:39:39,-0.36430724085,0.14775679555,9.862616551549998,0.01710422666954443,0.02290744643242558,0.08597928227637067,0.15974000000000002,0.54866,-0.36792,17.5,0,0,0,0,0,33.574921875,5447,100,695.662002676745,0
2024-03-17T15:39:39,-0.4013959911499999,0.20817556619999997,9.83150985775,0.01618792881224741,0.0238237442897226,0.08445211918087563,0.16478000000000004,0.5565,-0.37058,17.5,0,0,0,0,0,33.574921875,5447,100,695.662002676745,0
2024-03-17T15:39:39,-0.3780659708,0.18604195715,9.9026963301,0.020769418098732523,0.021838432265579053,0.08628471489546968,0.16478000000000004,0.5565,-0.37058,17.5,0,0,0,0,0,33.574921875,5447,100,695.662002676745,0
2024-03-17T15:39:39,-0.37387853125,0.17527425545,9.86500937415,0.013591751549905842,0.025350907385217638,0.08964447370555875,0.16282000000000002,0.5500600000000001,-0.38234,17.5,0,0,0,0,0,24.05421875,2344,20.253089384727367,998.9081371557982,0
2024-03-17T15:39:39,-0.36789647475,0.18843477974999998,9.9170532657,0.01863138976503947,0.020311269170084013,0.08735372906231621,0.16618,0.54866,-0.37450000000000006,17.5,0,0,0,0,0,24.05421875,2344,20.253089384727367,998.9081371557982,0
2024-03-17T15:39:39,-0.38584264425,0.17407784415000002,9.9146604431,0.022754730122876075,0.020005836550985007,0.08628471489546968,0.15302000000000002,0.55174,-0.36708,17.5,0,0,0,0,0,24.05421875,2344,20.253089384727367,998.9081371557982,0
2024-03-17T15:39:39,-0.3553341561,0.16809578764999997,9.91286582615,0.02306016274197508,0.020463985479633514,0.09040805525330628,0.16310000000000002,0.54838,-0.37772,17.5,0,0,0,0,0,24.05421875,2344,20.253089384727367,998.9081371557982,0
2024-03-17T15:39:39,-0.3613162126,0.16749758199999998,9.855438083749998,0.020311269170084013,0.02168571595602955,0.08964447370555875,0.16310000000000002,0.54838,-0.37772,17.5,0,0,0,0,0,24.05421875,2344,20.253089384727367,998.9081371557982,0
2024-03-17T15:39:39,-0.3960121403,0.19262221929999998,10.0546405652,0.019242255003237483,0.02336559536107409,0.08827002691961322,0.16310000000000002,0.54754,-0.37464000000000003,17.5,0,0,0,0,0,24.05421875,2344,20.253089384727367,998.9081371557982,0
2024-03-17T15:39:39,-0.33200413574999993,0.17168502154999998,9.919446088299999,0.018784106074588976,0.021532999646480044,0.08872817584826173,0.15750000000000003,0.55062,-0.3796800000000001,17.5,0,0,0,0,0,24.05421875,2344,20.253089384727367,998.9081371557982,0
2024-03-17T15:39:39,-0.3613162126,0.16450655374999998,9.905687358349997,0.018784106074588976,0.020769418098732523,0.08827002691961322,0.15750000000000003,0.55062,-0.3796800000000001,17.5,0,0,0,0,0,24.30109375,3755,20.314584877631514,998.9104328806976,0
2024-03-17T15:39:39,-0.38883367249999995,0.17048861024999998,9.936794052149999,0.021532999646480044,0.020463985479633514,0.08689558013366769,0.1617,0.55286,-0.3647,17.5,0,0,0,0,0,24.30109375,3755,20.314584877631514,998.9104328806976,0
2024-03-17T15:39:39,-0.37028929735,0.15433705769999997,9.8739824589,0.017256942979093935,0.019089538693687978,0.08933904108645975,0.1617,0.55286,-0.3647,17.5,0,0,0,0,0,24.30109375,3755,20.314584877631514,998.9104328806976,0
2024-03-17T15:39:39,-0.35413774480000004,0.16271193679999998,9.9373922578,0.018020524526841455,0.021532999646480044,0.08460483549042512,0.16198,0.54866,-0.38920000000000005,17.5,0,0,0,0,0,24.30109375,3755,20.314584877631514,998.9104328806976,0
2024-03-17T15:39:39,-0.38225341035,0.17587246110000002,9.93799046345,0.01756237559819294,0.021227567027381034,0.08429940287132612,0.15974000000000002,0.55342,-0.37016000000000004,17.5,0,0,0,0,0,24.30109375,3755,20.314584877631514,998.9104328806976,0
2024-03-17T15:39:39,-0.36490544649999995,0.18424734019999997,9.9529456047,0.020922134408282028,0.020922134408282028,0.08597928227637067,0.15974000000000002,0.55342,-0.37016000000000004,17.5,0,0,0,0,0,24.30109375,3755,20.314584877631514,998.9104328806976,0
2024-03-17T15:39:39,-0.37507494255,0.2009970984,9.963115100749999,0.021227567027381034,0.017256942979093935,0.08552113334772216,0.14602,0.5537000000000001,-0.38304000000000005,17.5,0,0,0,0,0,24.30109375,3755,20.314584877631514,998.9104328806976,0
2024-03-17T15:39:39,-0.37746776514999997,0.179461695,9.943374314299998,0.01756237559819294,0.019700403931885997,0.08582656596682116,0.15806,0.54922,-0.36372000000000004,17.5,0,0,0,0,0,24.664375,4982,20.346923173233193,998.9188213949608,0
2024-03-17T15:39:39,-0.36430724085,0.16809578764999997,9.9397850804,0.01832595714594046,0.019853120241435502,0.08567384965727166,0.16310000000000002,0.5523,-0.37044000000000005,17.5,0,0,0,0,0,24.664375,4982,20.346923173233193,998.9188213949608,0
2024-03-17T15:39:39,-0.38644084989999994,0.18364913454999998,9.949954576449999,0.022449297503777065,0.019089538693687978,0.08689558013366769,0.15974000000000002,0.5565,-0.37044000000000005,17.5,0,838,576,369,1730,24.664375,4982,20.346923173233193,998.9188213949608,0
2024-03-17T15:39:39,-0.33798619224999993,0.16331014244999997,9.94875816515,0.018784106074588976,0.020463985479633514,0.08491026810952414,0.15974000000000002,0.5565,-0.37044000000000005,17.5,0,838,576,369,1730,24.664375,4982,20.346923173233193,998.9188213949608,0
2024-03-17T15:39:39,-0.3960121403,0.19800607015,10.0175518149,0.01832595714594046,0.01893682238413848,0.0872010127527667,0.1603,0.54866,-0.35462000000000005,17.5,0,838,576,369,1730,24.664375,4982,20.346923173233193,998.9188213949608,0
2024-03-17T15:39:39,-0.3780659708,0.19322042494999997,9.972088185499999,0.020311269170084013,0.016951510359994926,0.08689558013366769,0.16366000000000003,0.5553800000000001,-0.37828,17.5,0,838,576,369,1730,24.664375,4982,20.346923173233193,998.9188213949608,0
2024-03-17T15:39:39,-0.36849468039999994,0.17048861024999998,9.976873830699999,0.020158552860534508,0.02168571595602955,0.08949175739600926,0.16366000000000003,0.5553800000000001,-0.37828,17.5,0,838,576,369,1730,24.664375,4982,20.346923173233193,998.9188213949608,0
2024-03-17T15:39:39,-0.36430724085,0.17048861024999998,9.95593663295,0.016951510359994926,0.02229658119422756,0.0870482964432172,0.16646,0.55034,-0.37114,17.5,0,838,576,369,1730,25.0512890625,6317,20.380802181781114,998.9259429190055,0
2024-03-17T15:39:39,-0.3391826035499999,0.18963119104999998,9.959525866849997,0.02061670178918302,0.02260201381332657,0.0870482964432172,0.16394000000000003,0.5500600000000001,-0.37856000000000006,17.5,0,838,576,369,1730,25.0512890625,6317,20.380802181781114,998.9259429190055,0
2024-03-17T15:39:39,-0.3565305674,0.19381863059999999,10.0031948793,0.019242255003237483,0.018020524526841455,0.08857545953871222,0.16254000000000002,0.55818,-0.36568,17.5,0,838,576,369,1730,25.0512890625,6317,20.380802181781114,998.9259429190055,0
2024-03-17T15:39:39,-0.38584264425,0.17886348935000002,9.94756175385,0.01832595714594046,0.02351831167062359,0.08964447370555875,0.16086,0.5489400000000001,-0.38136000000000003,17.5,0,838,576,369,1730,25.0512890625,6317,20.380802181781114,998.9259429190055,0
2024-03-17T15:39:39,-0.37148570864999997,0.19322042494999997,9.955338427300001,0.019242255003237483,0.02336559536107409,0.09025533894375677,0.16086,0.5489400000000001,-0.38136000000000003,17.5,0,838,576,369,1730,25.0512890625,6317,20.380802181781114,998.9259429190055,0
2024-03-17T15:39:39,-0.36251262389999994,0.19082760235,9.966106128999998,0.019394971312786988,0.023671027980173096,0.08872817584826173,0.16002000000000002,0.54922,-0.36638000000000004,17.5,0,838,576,369,1730,25.0512890625,6317,20.380802181781114,998.9259429190055,0
2024-03-17T15:39:39,-0.36670006345,0.19322042494999997,9.98465050415,0.017409659288643436,0.021532999646480044,0.08781187799096472,0.16366000000000003,0.54838,-0.36498,17.5,0,838,576,369,1730,25.0512890625,6317,20.380802181781114,998.9259429190055,0
2024-03-17T15:39:39,-0.38823546685,0.17647066675,9.97627562505,0.021532999646480044,0.02260201381332657,0.08735372906231621,0.16366000000000003,0.54838,-0.36498,17.5,0,838,576,369,1730,25.42296875,7960,20.403463752794536,998.9396783672464,0
2024-03-17T15:39:39,-0.3529413335,0.20518453794999997,9.988239738049998,0.01832595714594046,0.01786780821729195,0.08872817584826173,0.16254000000000002,0.5559400000000001,-0.36274,17.5,0,838,576,369,1730,25.42296875,7960,20.403463752794536,998.9396783672464,0
2024-03-17T15:39:39,-0.38584264425,0.16091731985,9.97148997985,0.02260201381332657,0.01832595714594046,0.08735372906231621,0.16254000000000002,0.5559400000000001,-0.36274,17.5,0,838,576,369,1730,25.42296875,7960,20.403463752794536,998.9396783672464,0
2024-03-17T15:39:39,-0.38225341035,0.1698904046,9.954142015999999,0.019089538693687978,0.020922134408282028,0.08765916168141522,0.15526,0.5523,-0.36974,18.5,0,838,576,369,1730,25.42296875,7960,20.403463752794536,998.9396783672464,0
2024-03-17T15:39:39,-0.3439682487499999,0.18604195715,9.9696953629,0.020769418098732523,0.021227567027381034,0.08857545953871222,0.16534000000000001,0.54978,-0.37618000000000007,17.5,0,838,576,369,1730,25.42296875,7960,20.403463752794536,998.9396783672464,0
2024-03-17T15:39:39,-0.35952159564999997,0.18424734019999997,10.013364375349997,0.020005836550985007,0.020005836550985007,0.08506298441907365,0.16534000000000001,0.54978,-0.37618000000000007,17.5,0,838,576,369,1730,25.42296875,7960,20.403463752794536,998.9396783672464,0
2024-03-17T15:39:39,-0.38045879339999994,0.19202401365,9.9601240725,0.020311269170084013,0.021227567027381034,0.09040805525330628,0.15666000000000002,0.55174,-0.36022000000000004,17.5,0,838,576,369,1730,25.42296875,7960,20.403463752794536,998.9396783672464,0
2024-03-17T15:39:39,-0.38045879339999994,0.16869399329999998,9.966106128999998,0.02290744643242558,0.020769418098732523,0.09086620418195479,0.15722000000000003,0.5511800000000001,-0.37548000000000004,17.5,0,838,576,369,1730,25.7610546875,9654,20.40853724121525,998.940950472277,0
2024-03-17T15:39:40,-0.37627135385,0.16450655374999998,9.862616551549998,0.020463985479633514,0.024434609527920616,0.08689558013366769,0.1589,0.55174,-0.3724,17.5,0,838,576,369,1730,25.7610546875,9654,20.40853724121525,998.940950472277,0
2024-03-17T15:39:40,-0.36011980130000004,0.19262221929999998,9.9972128228,0.025350907385217638,0.023671027980173096,0.09010262263420728,0.16002000000000002,0.5570600000000001,-0.35910000000000003,17.5,0,838,576,369,1730,25.7610546875,9654,20.40853724121525,998.940950472277,0
2024-03-17T15:39:40,-0.37148570864999997,0.1878365741,9.99661461715,0.021838432265579053,0.022754730122876075,0.08796459430051423,0.16002000000000002,0.5570600000000001,-0.35910000000000003,17.5,0,838,576,369,1730,25.7610546875,9654,20.40853724121525,998.940950472277,0
2024-03-17T15:39:40,-0.37926238209999996,0.17288143285000002,9.990632560649999,0.016798794050445424,0.021991148575128558,0.08827002691961322,0.16086,0.5601400000000001,-0.37884,17.5,0,838,576,369,1730,25.7610546875,9654,20.40853724121525,998.940950472277,0
2024-03-17T15:39:40,-0.3332005470499999,0.18604195715,9.978070242,0.02168571595602955,0.018020524526841455,0.08811731061006371,0.1603,0.5495,-0.36358,17.5,0,838,576,369,1730,25.7610546875,9654,20.40853724121525,998.940950472277,0
2024-03-17T15:39:40,-0.3756731482,0.15912270289999997,10.057033387799999,0.027947084647559205,0.017409659288643436,0.0872010127527667,0.1603,0.5495,-0.36358,17.5,0,838,576,369,1730,25.7610546875,9654,20.40853724121525,998.940950472277,0
2024-03-17T15:39:40,-0.36430724085,0.1698904046,10.036096190049998,0.018784106074588976,0.019089538693687978,0.08445211918087563,0.15302000000000002,0.5467000000000001,-0.37156000000000006,17.5,0,838,576,369,1730,26.059296875,11376,20.406000991371926,998.9535969863354,0
2024-03-17T15:39:40,-0.40079778549999995,0.19621145319999997,9.976873830699999,0.018173240836390957,0.021838432265579053,0.08903360846736075,0.15806,0.5514600000000001,-0.37184000000000006,17.5,0,839,577,369,1731,26.059296875,11376,20.406000991371926,998.9535969863354,0
2024-03-17T15:39:40,-0.36311082955,0.20578274359999998,9.913464031799998,0.019242255003237483,0.021227567027381034,0.0867428638241182,0.16702,0.56042,-0.36736,17.5,0,839,577,369,1731,26.059296875,11376,20.406000991371926,998.9535969863354,0
2024-03-17T15:39:40,-0.37148570864999997,0.16570296504999998,10.0008020567,0.018478673455489966,0.023671027980173096,0.08903360846736075,0.16058,0.5453000000000001,-0.36008000000000007,17.5,0,839,577,369,1731,26.059296875,11376,20.406000991371926,998.9535969863354,0
2024-03-17T15:39:40,-0.37926238209999996,0.17587246110000002,9.999605645399999,0.017256942979093935,0.022449297503777065,0.08903360846736075,0.16842000000000001,0.5481,-0.36176,17.5,0,839,577,369,1731,26.059296875,11376,20.406000991371926,998.9535969863354,0
2024-03-17T15:39:40,-0.37627135385,0.18604195715,9.994820000199999,0.018784106074588976,0.016340645121796914,0.08552113334772216,0.16842000000000001,0.5481,-0.36176,17.5,0,839,577,369,1731,26.059296875,11376,20.406000991371926,998.9535969863354,0
2024-03-17T15:39:40,-0.38823546685,0.18364913454999998,9.9684989516,0.01832595714594046,0.020463985479633514,0.08613199858592017,0.15582000000000001,0.5481,-0.3668,18.5,0,839,577,369,1731,26.059296875,11376,20.406000991371926,998.9535969863354,0
2024-03-17T15:39:40,-0.40079778549999995,0.16271193679999998,10.019944637499998,0.020769418098732523,0.018173240836390957,0.08399397025222713,0.1589,0.54838,-0.37408,17.5,0,839,577,369,1731,26.320234375,12957,20.39077573104262,998.958735901022,0
2024-03-17T15:39:40,-0.35234312785,0.18245272324999998,10.063015444300001,0.021991148575128558,0.021227567027381034,0.08796459430051423,0.15442000000000003,0.5489400000000001,-0.36848000000000003,17.5,0,839,577,369,1731,26.320234375,12957,20.39077573104262,998.958735901022,0
2024-03-17T15:39:40,-0.3960121403,0.10408778309999998,10.0103733471,0.021227567027381034,0.020005836550985007,0.09147706942015281,0.15442000000000003,0.5489400000000001,-0.36848000000000003,18.5,0,839,577,369,1731,26.320234375,12957,20.39077573104262,998.958735901022,0
2024-03-17T15:39:40,-0.4019941968,0.20458633229999998,9.981061270249999,0.019394971312786988,0.01863138976503947,0.08643743120501918,0.15442000000000003,0.5531400000000001,-0.35798,18.5,0,839,577,369,1731,26.320234375,12957,20.39077573104262,998.958735901022,0
2024-03-17T15:39:40,-0.2608176634,0.2895315346,9.926624556099998,0.018478673455489966,0.016798794050445424,0.09086620418195479,0.15526,0.55174,-0.36540000000000006,18.5,0,839,577,369,1731,26.320234375,12957,20.39077573104262,998.958735901022,0
2024-03-17T15:39:40,-0.4013959911499999,0.12323036389999999,9.999605645399999,0.02061670178918302,0.02107485071783153,0.08857545953871222,0.16226000000000002,0.5559400000000001,-0.36204000000000003,17.5,0,839,577,369,1731,26.320234375,12957,20.39077573104262,998.958735901022,0
2024-03-17T15:39:40,-0.39361931769999997,0.1088734283,9.90090171315,0.021227567027381034,0.017409659288643436,0.0872010127527667,0.16226000000000002,0.5559400000000001,-0.36204000000000003,17.5,0,839,577,369,1731,26.320234375,12957,20.39077573104262,998.958735901022,0
2024-03-17T15:39:40,-0.3565305674,0.20279171534999998,10.04447106915,0.019089538693687978,0.021532999646480044,0.08888089215781124,0.15610000000000002,0.5565,-0.38066,18.5,0,839,577,369,1731,26.548359375,14628,20.368326474329738,998.9673521860915,0
2024-03-17T15:39:40,-0.38823546685,0.14117653339999997,9.999605645399999,0.01786780821729195,0.021227567027381034,0.08506298441907365,0.15582000000000001,0.5441800000000001,-0.37268000000000007,18.5,0,839,577,369,1731,26.548359375,14628,20.368326474329738,998.9673521860915,0
2024-03-17T15:39:40,-0.35593236175,0.18364913454999998,10.033703367449998,0.021227567027381034,0.021227567027381034,0.09025533894375677,0.16366000000000003,0.54166,-0.36414,18.5,0,839,577,369,1731,26.548359375,14628,20.368326474329738,998.9673521860915,0
2024-03-17T15:39:40,-0.3505485109,0.22671994134999998,10.02532848835,0.02061670178918302,0.018784106074588976,0.09178250203925183,0.15022000000000002,0.55454,-0.36652,18.5,0,839,577,369,1731,26.548359375,14628,20.368326474329738,998.9673521860915,0
2024-03-17T15:39:40,-0.37507494255,0.16450655374999998,10.01456078665,0.018173240836390957,0.018173240836390957,0.08689558013366769,0.15022000000000002,0.55454,-0.36652,18.5,0,839,577,369,1731,26.548359375,14628,20.368326474329738,998.9673521860915,0
2024-03-17T15:39:40,-0.40558343069999997,0.13698909385,10.071988529050001,0.019547687622336492,0.02458732583747012,0.0872010127527667,0.16086,0.55034,-0.37744000000000005,18.5,0,839,577,369,1731,26.548359375,14628,20.368326474329738,998.9673521860915,0
2024-03-17T15:39:40,-0.33439695834999994,0.1639083481,10.0319087505,0.02138028333693054,0.020922134408282028,0.08628471489546968,0.16366000000000003,0.54866,-0.36274,18.5,0,839,577,369,1731,26.548359375,14628,20.368326474329738,998.9673521860915,0
2024-03-17T15:39:40,-0.39122649509999996,0.20518453794999997,9.9828558872,0.020158552860534508,0.019700403931885997,0.08597928227637067,0.16366000000000003,0.54866,-0.36274,17.5,0,839,577,369,1731,26.7438671875,16189,20.354294359426206,998.9816495663862,0
2024-03-17T15:39:40,-0.38344982164999997,0.16869399329999998,10.001998467999998,0.020769418098732523,0.021227567027381034,0.08857545953871222,0.15722000000000003,0.5542600000000001,-0.37394000000000005,18.5,0,839,577,369,1731,26.7438671875,16189,20.354294359426206,998.9816495663862,0
2024-03-17T15:39:40,-0.36909288605,0.18484554585,10.04207824655,0.01756237559819294,0.01786780821729195,0.08521570072862314,0.15722000000000003,0.5542600000000001,-0.37394000000000005,18.5,0,839,577,369,1731,26.7438671875,16189,20.354294359426206,998.9816495663862,0
2024-03-17T15:39:40,-0.36550365214999997,0.2069791549,9.990632560649999,0.024740042147019626,0.02290744643242558,0.08628471489546968,0.16366000000000003,0.5618200000000001,-0.36358,18.5,0,839,577,369,1731,26.7438671875,16189,20.354294359426206,998.9816495663862,0
2024-03-17T15:39:40,-0.3816552047,0.19082760235,10.048060303049999,0.018478673455489966,0.02138028333693054,0.0867428638241182,0.15078,0.5511800000000001,-0.37212000000000006,18.5,0,839,577,369,1731,26.7438671875,16189,20.354294359426206,998.9816495663862,0
2024-03-17T15:39:40,-0.3696910917,0.15732808594999997,10.033703367449998,0.020158552860534508,0.021532999646480044,0.08903360846736075,0.15078,0.5511800000000001,-0.37212000000000006,18.5,0,839,577,369,1731,26.7438671875,16189,20.354294359426206,998.9816495663862,0
2024-03-17T15:39:40,-0.38823546685,0.18843477974999998,10.0187482262,0.01832595714594046,0.01893682238413848,0.08888089215781124,0.15554,0.5565,-0.37226000000000004,17.5,0,839,577,369,1731,26.7438671875,16189,20.354294359426206,998.9816495663862,0
2024-03-17T15:39:40,-0.3337987527,0.21894326790000002,10.063015444300001,0.016951510359994926,0.02061670178918302,0.08582656596682116,0.1547,0.5481,-0.37226000000000004,18.5,0,839,577,369,1731,26.9130078125,17771,20.32821154131579,998.9904491379131,0
2024-03-17T15:39:40,-0.38644084989999994,0.1782652837,10.02054284315,0.022143864884678056,0.02138028333693054,0.08811731061006371,0.15498,0.5593,-0.36456000000000005,18.5,0,836,567,363,1727,26.9130078125,17771,20.32821154131579,998.9904491379131,0
2024-03-17T15:39:40,-0.37328032559999996,0.19142580799999998,10.051649536949999,0.019700403931885997,0.018020524526841455,0.08613199858592017,0.15722000000000003,0.56154,-0.36750000000000005,17.5,0,836,567,363,1727,26.9130078125,17771,20.32821154131579,998.9904491379131,0
2024-03-17T15:39:40,-0.37746776514999997,0.19202401365,10.079765202499999,0.018784106074588976,0.017715091907742446,0.08750644537186571,0.15722000000000003,0.56154,-0.36750000000000005,18.5,0,836,567,363,1727,26.9130078125,17771,20.32821154131579,998.9904491379131,0
2024-03-17T15:39:40,-0.38763726119999997,0.15254244074999998,10.0534441539,0.020005836550985007,0.019242255003237483,0.08872817584826173,0.15022000000000002,0.5542600000000001,-0.36876000000000003,18.5,0,836,567,363,1727,26.9130078125,17771,20.32821154131579,998.9904491379131,0
2024-03-17T15:39:41,-0.3439682487499999,0.17886348935000002,10.04925671435,0.017409659288643436,0.023212879051524585,0.08933904108645975,0.16198,0.5509000000000001,-0.36386,18.5,0,836,567,363,1727,26.9130078125,17771,20.32821154131579,998.9904491379131,0
2024-03-17T15:39:41,-0.37686955949999995,0.17587246110000002,10.034899778749999,0.020158552860534508,0.025350907385217638,0.09040805525330628,0.16198,0.5509000000000001,-0.36386,18.5,0,836,567,363,1727,26.9130078125,17771,20.32821154131579,998.9904491379131,0
2024-03-17T15:39:41,-0.34755748264999997,0.16869399329999998,10.00977514145,0.020922134408282028,0.022143864884678056,0.08567384965727166,0.15862,0.5481,-0.3668,17.5,0,836,567,363,1727,27.0587109375,19281,20.295466928617465,998.9914213276729,0
2024-03-17T15:39:41,-0.38045879339999994,0.14656038424999998,10.015158992299998,0.01863138976503947,0.01832595714594046,0.08781187799096472,0.15274000000000001,0.54838,-0.36834000000000006,18.5,0,836,567,363,1727,27.0587109375,19281,20.295466928617465,998.9914213276729,0
2024-03-17T15:39:41,-0.40019957984999993,0.1698904046,10.0295159279,0.01466076571675237,0.019700403931885997,0.08842274322916273,0.1589,0.5481,-0.37506000000000006,18.5,0,836,567,363,1727,27.0587109375,19281,20.295466928617465,998.9914213276729,0
2024-03-17T15:39:41,-0.38045879339999994,0.1746760498,10.0319087505,0.0238237442897226,0.018478673455489966,0.08536841703817265,0.15442000000000003,0.56574,-0.35938000000000003,18.5,0,836,567,363,1727,27.0587109375,19281,20.295466928617465,998.9914213276729,0
2024-03-17T15:39:41,-0.44865423749999994,0.20398812665,9.793224696149998,0.2550362369476714,-1.805259495184685,-0.8494081137143404,0.15442000000000003,0.56574,-0.35938000000000003,17.5,0,836,567,363,1727,27.0587109375,19281,20.295466928617465,998.9914213276729,0
2024-03-17T15:39:41,-0.39302111205,0.16869399329999998,10.0319087505,0.06444628262989062,-0.11530081370987541,-0.06566801310628666,0.15834,0.5461400000000001,-0.3668,17.5,0,836,567,363,1727,27.0587109375,19281,20.295466928617465,998.9914213276729,0
2024-03-17T15:39:41,-0.36909288605,0.1471585899,10.039685423949999,0.061697389057999555,-0.09834930334988048,-0.07131851655961831,0.1603,0.5425,-0.37884,17.5,0,836,567,363,1727,27.0587109375,19281,20.295466928617465,998.9914213276729,0
2024-03-17T15:39:41,-0.3529413335,0.18424734019999997,10.039087218299999,0.051618112627732304,-0.08414668656177661,-0.06673702727313319,0.1603,0.5425,-0.37884,17.5,0,836,567,363,1727,27.1860546875,20864,20.245945896519924,998.9892788592052,0
2024-03-17T15:39:41,-0.38344982164999997,0.16809578764999997,10.0474620974,0.049021935365390734,-0.019853120241435502,-0.05467243881872238,0.1603,0.5553800000000001,-0.3738,18.5,0,836,567,363,1727,27.1860546875,20864,20.245945896519924,998.9892788592052,0
2024-03-17T15:39:41,-0.36610185780000004,0.16031911419999997,10.0474620974,0.041691552507014555,-0.011759155835311796,-0.05818491393836096,0.1589,0.55986,-0.3738,18.5,0,836,567,363,1727,27.1860546875,20864,20.245945896519924,998.9892788592052,0
2024-03-17T15:39:41,-0.36789647475,0.1782652837,10.045069274799998,0.04230241774521256,-0.003970624048287101,-0.05696318346196494,0.16534000000000001,0.55762,-0.3773,18.5,0,836,567,363,1727,27.1860546875,20864,20.245945896519924,998.9892788592052,0
2024-03-17T15:39:41,-0.37686955949999995,0.15553346899999998,10.0546405652,0.04046982203061852,0.0018325957145940463,-0.05421428989007387,0.15414000000000003,0.5593,-0.37534,18.5,0,836,567,363,1727,27.1860546875,20864,20.245945896519924,998.9892788592052,0
2024-03-17T15:39:41,-0.36729826909999996,0.19142580799999998,10.068997500799998,0.00015271630954950385,0.004581489286485115,-0.05681046715241543,0.15414000000000003,0.5593,-0.37534,18.5,0,836,567,363,1727,27.1860546875,20864,20.245945896519924,998.9892788592052,0
2024-03-17T15:39:41,-0.36311082955,0.179461695,10.027123105299998,0.041844268816564056,0.006261368691529657,-0.05421428989007387,0.16282000000000002,0.5481,-0.3703,18.5,0,836,567,363,1727,27.1860546875,20864,20.245945896519924,998.9892788592052,0
2024-03-17T15:39:41,-0.34636107135,0.18125631194999997,10.125228831899998,0.03924809155422249,0.008552113334772215,-0.05650503453331642,0.16422000000000003,0.5511800000000001,-0.37394000000000005,18.5,0,836,567,363,1727,27.295234375,22227,20.20573312540957,998.9807968948609,0
2024-03-17T15:39:41,-0.33499516399999996,0.15553346899999998,10.069595706449999,0.03466660226773738,0.010384709049366262,-0.0514653963181828,0.16002000000000002,0.55286,-0.36218,18.5,0,836,567,363,1727,27.295234375,22227,20.20573312540957,998.9807968948609,0
2024-03-17T15:39:41,-0.37627135385,0.17228322719999997,10.066006472549999,0.04077525464971753,0.008552113334772215,-0.048411070127192715,0.16310000000000002,0.5472600000000001,-0.37310000000000004,18.5,0,836,567,363,1727,27.295234375,22227,20.20573312540957,998.9807968948609,0
2024-03-17T15:39:41,-0.41276189849999995,0.1746760498,10.0462656861,0.0355829001250344,0.007788531787024696,-0.04780020488899471,0.16310000000000002,0.5472600000000001,-0.37310000000000004,18.5,0,836,567,363,1727,27.295234375,22227,20.20573312540957,998.9807968948609,0
2024-03-17T15:39:41,-0.35892339,0.1698904046,10.064211855599998,0.041691552507014555,0.010842857978014774,-0.05268712679457883,0.16478000000000004,0.55062,-0.37674,18.5,0,836,567,363,1727,27.295234375,22227,20.20573312540957,998.9807968948609,0
2024-03-17T15:39:41,-0.3756731482,0.15493526335,10.070792117749999,0.03665191429188092,0.010384709049366262,-0.048258353817643214,0.15554,0.54586,-0.37212000000000006,18.5,0,836,567,363,1727,27.295234375,22227,20.20573312540957,998.9807968948609,0
2024-03-17T15:39:41,-0.34217363179999993,0.17886348935000002,10.076774174250001,0.03772092845872745,0.009315694882519735,-0.05009094953223726,0.15554,0.54586,-0.37212000000000006,18.5,0,836,567,363,1727,27.295234375,22227,20.20573312540957,998.9807968948609,0
2024-03-17T15:39:41,-0.3278166962,0.14656038424999998,10.04985492,0.03726277953007894,0.01114829059711378,-0.052228977865930316,0.14854000000000003,0.5500600000000001,-0.37282000000000004,18.5,0,836,567,363,1727,27.3930859375,23832,20.149186604707296,998.980665231769,0
2024-03-17T15:39:41,-0.35234312785,0.18364913454999998,10.076774174250001,0.04230241774521256,0.007941248096574201,-0.04963280060358875,0.16058,0.5514600000000001,-0.37352,18.5,0,808,519,333,1679,27.3930859375,23832,20.149186604707296,998.980665231769,0
2024-03-17T15:39:41,-0.35353953914999997,0.1950150419,10.077970585549998,0.04382958084070761,0.008093964406123704,-0.04886921905584123,0.15946000000000002,0.54978,-0.37268000000000007,18.5,0,808,519,333,1679,27.3930859375,23832,20.149186604707296,998.980665231769,0
2024-03-17T15:39:41,-0.3720839143,0.16749758199999998,10.085747258999998,0.039400807863771994,0.0070249502392771765,-0.04718933965079669,0.15442000000000003,0.54446,-0.37072000000000005,18.5,0,808,519,333,1679,27.3930859375,23832,20.149186604707296,998.980665231769,0
2024-03-17T15:39:41,-0.36550365214999997,0.15972090854999998,10.0366943957,0.04276056667386108,0.006108652381980154,-0.04566217655530165,0.15442000000000003,0.54446,-0.37072000000000005,18.5,0,808,519,333,1679,27.3930859375,23832,20.149186604707296,998.980665231769,0
2024-03-17T15:39:41,-0.35832518435,0.1806581063,10.039087218299999,0.03924809155422249,0.009315694882519735,-0.04260785036431157,0.1589,0.55342,-0.36988000000000004,18.5,0,808,519,333,1679,27.3930859375,23832,20.149186604707296,998.980665231769,0
2024-03-17T15:39:41,-0.37926238209999996,0.18424734019999997,10.0474620974,0.04230241774521256,0.003970624048287101,-0.04505131131710364,0.16366000000000003,0.5455800000000001,-0.37408,18.5,0,808,519,333,1679,27.3930859375,23832,20.149186604707296,998.980665231769,0
2024-03-17T15:39:41,-0.38703905555,0.1579262916,10.073783145999998,0.04260785036431157,0.0056505034533316425,-0.0435241482216086,0.16366000000000003,0.5455800000000001,-0.37408,18.5,0,808,519,333,1679,27.478046875,25062,20.10748818676027,998.9738633990243,0
2024-03-17T15:39:41,-0.38584264425,0.18604195715,10.092327521149999,0.04092797095926703,-0.0019853120241435504,-0.048258353817643214,0.16338000000000003,0.54838,-0.38584,18.5,0,808,519,333,1679,27.478046875,25062,20.10748818676027,998.9738633990243,0
2024-03-17T15:39:41,-0.37627135385,0.13339985995,10.03250695615,0.04459316238845512,-0.0007635815477475193,-0.04550946024575215,0.16338000000000003,0.54838,-0.38584,18.5,0,808,519,333,1679,27.478046875,25062,20.10748818676027,998.9738633990243,0
2024-03-17T15:39:41,-0.38464623295,0.1698904046,10.110871896299999,0.04581489286485116,0.001069014166846527,-0.04535674393620265,0.16058,0.5464200000000001,-0.36876000000000003,18.5,0,808,519,333,1679,27.478046875,25062,20.10748818676027,998.9738633990243,0
2024-03-17T15:39:41,-0.3756731482,0.18544375149999998,10.1001041946,0.038331793696925465,0.0003054326190990077,-0.04459316238845512,0.15750000000000003,0.55062,-0.38178,18.5,0,808,519,333,1679,27.478046875,25062,20.10748818676027,998.9738633990243,0
2024-03-17T15:39:41,-0.38225341035,0.17108681589999997,10.1048898398,0.04230241774521256,-0.002138028333693054,-0.04703662334124718,0.15750000000000003,0.55062,-0.38178,18.5,0,808,519,333,1679,27.478046875,25062,20.10748818676027,998.9738633990243,0
2024-03-17T15:39:41,-0.35952159564999997,0.1890329854,10.064211855599998,0.03924809155422249,-0.0015271630954950385,-0.04505131131710364,0.15498,0.5537000000000001,-0.38878,18.5,0,808,519,333,1679,27.478046875,25062,20.10748818676027,998.9738633990243,0
2024-03-17T15:39:41,-0.35593236175,0.1782652837,10.07916699685,0.04535674393620265,-0.0054977871437821395,-0.04505131131710364,0.15666000000000002,0.5520200000000001,-0.36960000000000004,18.5,0,808,519,333,1679,27.5544140625,26627,20.054845284140576,998.981667094282,0
2024-03-17T15:39:42,-0.36251262389999994,0.1746760498,10.0666046782,0.04016438941151951,-0.0027488935718910697,-0.04474587869800463,0.16562000000000002,0.5509000000000001,-0.37884,18.5,0,808,519,333,1679,27.5544140625,26627,20.054845284140576,998.981667094282,0
2024-03-17T15:39:42,-0.3696910917,0.18305092890000002,10.1288180658,0.039400807863771994,-0.0025961772623415654,-0.04016438941151951,0.15218,0.5520200000000001,-0.38654,18.5,0,808,519,333,1679,27.5544140625,26627,20.054845284140576,998.981667094282,0
2024-03-17T15:39:42,-0.3780659708,0.1806581063,10.05763159345,0.04428772976935611,0.003207042500539581,-0.04306599929296009,0.15218,0.5520200000000001,-0.38654,18.5,0,808,519,333,1679,27.5544140625,26627,20.054845284140576,998.981667094282,0
2024-03-17T15:39:42,-0.37627135385,0.16929219894999997,10.06720288385,0.036193765363232405,-0.002138028333693054,-0.04413501345980661,0.15750000000000003,0.5467000000000001,-0.38864000000000004,18.5,0,808,519,333,1679,27.5544140625,26627,20.054845284140576,998.981667094282,0
2024-03-17T15:39:42,-0.35114671655,0.179461695,10.0558369765,0.04230241774521256,-0.004581489286485115,-0.0433714319120591,0.15414000000000003,0.55174,-0.37576000000000004,18.5,0,808,519,333,1679,27.5544140625,26627,20.054845284140576,998.981667094282,0
2024-03-17T15:39:42,-0.28654050634999995,0.24107687694999996,10.1443714127,0.04535674393620265,-0.006108652381980154,-0.049021935365390734,0.15414000000000003,0.55174,-0.37828,18.5,0,808,519,333,1679,27.5544140625,26627,20.054845284140576,998.981667094282,0
2024-03-17T15:39:42,-0.33439695834999994,0.2787638329,10.07557776295,0.021838432265579053,0.015118914645400881,-0.04382958084070761,0.17010000000000003,0.5553800000000001,-0.37828,18.5,0,808,519,333,1679,27.6223828125,28097,19.991280671349717,998.9919004693437,0
2024-03-17T15:39:42,-0.34217363179999993,0.19262221929999998,10.0534441539,0.03512475119638588,0.00045814892864851157,-0.04596760917440065,0.15610000000000002,0.5537000000000001,-0.36540000000000006,18.5,0,808,519,333,1679,27.6223828125,28097,19.991280671349717,998.9919004693437,0
2024-03-17T15:39:42,-0.38285161599999995,0.17886348935000002,10.073783145999998,0.04214970143566306,0.004886921905584123,-0.04688390703169768,0.15610000000000002,0.5537000000000001,-0.36540000000000006,18.5,0,808,519,333,1679,27.6223828125,28097,19.991280671349717,998.9919004693437,0
2024-03-17T15:39:42,-0.36849468039999994,0.1519442351,10.033703367449998,0.03772092845872745,-0.00473420559603462,-0.04474587869800463,0.16198,0.54586,-0.38164000000000003,18.5,0,808,519,333,1679,27.6223828125,28097,19.991280671349717,998.9919004693437,0
2024-03-17T15:39:42,-0.31046873235,0.20039889274999997,9.975079213749998,0.03924809155422249,0.0012217304763960308,-0.041691552507014555,0.15694000000000002,0.54278,-0.35924,18.5,0,808,519,333,1679,27.6223828125,28097,19.991280671349717,998.9919004693437,0
2024-03-17T15:39:42,-0.6137589969,-0.0017946169499999999,10.05763159345,0.04581489286485116,-0.0016798794050445422,-0.041691552507014555,0.15694000000000002,0.54278,-0.35924,18.5,0,808,519,333,1679,27.6223828125,28097,19.991280671349717,998.9919004693437,0
2024-03-17T15:39:42,-0.8087740387999999,-0.20039889274999997,9.895517862299998,-0.05482515512827188,0.062155537986648066,0.10873401239924674,0.16310000000000002,0.5467000000000001,-0.38486000000000004,18.5,0,808,519,333,1679,27.6223828125,28097,19.991280671349717,998.9919004693437,0
2024-03-17T15:39:42,-1.08693966605,-0.30089744194999996,10.1240324206,0.07406741013150937,0.06078109120070253,0.7009678608322226,0.16786,0.5453000000000001,-0.37604000000000004,18.5,0,808,519,333,1679,27.6844921875,29428,19.948199752762065,998.9997567931783,0
2024-03-17T15:39:42,0.40618163634999993,0.38823546685,9.97627562505,-0.006719517620178169,0.05207626155638081,0.9053022830094588,0.17878000000000002,0.5338200000000001,-0.39382000000000006,18.5,0,745,481,296,1503,27.6844921875,29428,19.948199752762065,998.9997567931783,0
2024-03-17T15:39:42,-0.43010986235,0.33499516399999996,10.1264252432,0.06520986417763815,0.018173240836390957,0.8068002633500289,0.17878000000000002,0.5338200000000001,-0.39382000000000006,18.5,0,745,481,296,1503,27.6844921875,29428,19.948199752762065,998.9997567931783,0
2024-03-17T15:39:42,-0.3493520996,0.25902304644999996,10.139585767500002,0.03756821214917795,0.009773843811168246,0.7223481441691532,0.17906000000000002,0.52934,-0.38542000000000004,18.5,0,745,481,296,1503,27.6844921875,29428,19.948199752762065,998.9997567931783,0
2024-03-17T15:39:42,-0.58085768615,-0.005982056499999999,10.158130142649997,0.0633772684630441,0.03512475119638588,0.6673702727313319,0.19474,0.52458,-0.37954000000000004,18.5,0,745,481,296,1503,27.6844921875,29428,19.948199752762065,998.9997567931783,0
2024-03-17T15:39:42,-0.6305087550999998,-0.023928225999999997,10.089934698549998,0.049021935365390734,-0.01664607774089592,0.6811147405907872,0.19474,0.52458,-0.37954000000000004,18.5,0,745,481,296,1503,27.6844921875,29428,19.948199752762065,998.9997567931783,0
2024-03-17T15:39:42,-0.7196413969499998,-0.08255237969999998,10.675578029899999,0.03802636107782646,0.006566801310628666,0.7095199741669949,0.18774000000000002,0.53158,-0.38724000000000003,18.5,0,745,481,296,1503,27.6844921875,29428,19.948199752762065,998.9997567931783,0
2024-03-17T15:39:42,-0.5886343596,-0.3960121403,10.4386885925,0.026725354171163174,0.03604104905368291,0.9227119422981023,0.19110000000000002,0.5276600000000001,-0.3977400000000001,18.5,0,745,481,296,1503,27.739765625,30735,19.87347889830466,999.0036558426073,0
2024-03-17T15:39:42,-0.07776673449999999,0.55214381495,10.18804042515,0.04550946024575215,0.02336559536107409,0.6881396908300643,0.21154000000000003,0.50638,-0.40264000000000005,18.5,0,745,481,296,1503,27.739765625,30735,19.87347889830466,999.0036558426073,0
2024-03-17T15:39:42,-0.005982056499999999,0.50309095165,10.22871840935,0.05390885727097486,0.014813482026301873,0.6834054852340298,0.2093,0.50778,-0.39844000000000007,18.5,0,745,481,296,1503,27.739765625,30735,19.87347889830466,999.0036558426073,0
2024-03-17T15:39:42,-0.8069794218499999,-0.11485548479999999,10.030114133549999,0.060933807510252035,0.0276416520284602,0.8885034889590134,0.2093,0.50778,-0.39844000000000007,18.5,0,745,481,296,1503,27.739765625,30735,19.87347889830466,999.0036558426073,0
2024-03-17T15:39:42,-1.0313065406,-0.39720855159999996,9.884750160599998,0.052228977865930316,0.053603424651875856,0.9851729129038493,0.2093,0.5091800000000001,-0.41202000000000005,18.5,0,745,481,296,1503,27.739765625,30735,19.87347889830466,999.0036558426073,0
2024-03-17T15:39:42,-1.2035897677999998,-0.7292126873499999,9.839286531199999,0.03802636107782646,0.038179077387375956,0.9130908147964835,0.21938000000000002,0.5033000000000001,-0.40628000000000003,18.5,0,745,481,296,1503,27.739765625,30735,19.87347889830466,999.0036558426073,0
2024-03-17T15:39:42,-0.45224347139999993,-0.3062812928,10.096514960699999,0.05558873667601941,-0.0068722339297276735,0.9046914177712608,0.22890000000000005,0.49238000000000004,-0.41104,18.5,0,745,481,296,1503,27.739765625,30735,19.87347889830466,999.0036558426073,0
2024-03-17T15:39:42,-0.4331008906,0.04247260115,10.274780244399997,0.06948592084502425,-0.005345070834232635,0.8284859793060584,0.22890000000000005,0.49238000000000004,-0.41104,18.5,0,745,481,296,1503,27.789765625,32236,19.819274864271954,999.004349036809,0
2024-03-17T15:39:42,-0.49052863299999994,-0.010767701699999998,10.239486111049999,0.1105666081138408,-0.06826419036862821,0.7232644420264502,0.23338000000000003,0.48482000000000003,-0.41720000000000007,18.5,0,745,481,296,1503,27.789765625,32236,19.819274864271954,999.004349036809,0
2024-03-17T15:39:42,-1.0061819033,-0.15972090854999998,10.111470101950001,0.07238753072646481,-0.04703662334124718,0.83719080895038,0.23114,0.48314000000000007,-0.42448,18.5,0,745,481,296,1503,27.789765625,32236,19.819274864271954,999.004349036809,0
2024-03-17T15:39:42,-0.7483552681499999,-0.21954147355,9.87577707585,0.050243665841786765,-0.013744467859455347,1.0810787553009378,0.23226000000000002,0.47474000000000005,-0.41692,18.5,0,745,481,296,1503,27.789765625,32236,19.819274864271954,999.004349036809,0
2024-03-17T15:39:42,-0.9343972252999999,-0.17706887240000002,9.767501853199999,0.10201449477906857,-0.0033597588100890844,1.3643675095152674,0.23226000000000002,0.47474000000000005,-0.41692,18.5,0,745,481,296,1503,27.789765625,32236,19.819274864271954,999.004349036809,0
2024-03-17T15:39:42,-0.35952159564999997,0.09272187574999999,9.96909715725,0.07437284275060838,-0.0024434609527920616,1.5160148048979247,0.23982000000000003,0.46718000000000004,-0.42868000000000006,18.5,0,745,481,296,1503,27.789765625,32236,19.819274864271954,999.004349036809,0
2024-03-17T15:39:42,-0.39720855159999996,0.26979074815,10.359725446699999,0.060628374891153025,-0.007177666548826681,1.6114624983663648,0.24066,0.46438000000000007,-0.42728000000000005,18.5,0,745,481,296,1503,27.789765625,32236,19.819274864271954,999.004349036809,0
2024-03-17T15:39:42,-0.34815568830000004,0.6687939166999999,10.394421374399998,0.048258353817643214,0.0,1.4028520195217424,0.25102,0.46270000000000006,-0.43442000000000003,18.5,0,745,481,296,1503,27.835859375,33278,19.77004810452619,999.0004823652399,0
2024-03-17T15:39:42,-0.24885355039999998,0.2907279459,10.097711372000001,0.018784106074588976,0.011301006906663285,0.7472409026257224,0.24850000000000003,0.4403000000000001,-0.43694000000000005,18.5,0,745,481,296,1503,27.835859375,33278,19.77004810452619,999.0004823652399,0
2024-03-17T15:39:42,-0.17108681589999997,0.16869399329999998,10.200602743800001,0.012217304763960308,0.022143864884678056,0.9543242183748496,0.24850000000000003,0.4403000000000001,-0.43694000000000005,18.5,0,745,481,296,1503,27.835859375,33278,19.77004810452619,999.0004823652399,0
2024-03-17T15:39:42,-0.34277183744999995,0.4989035121,10.0558369765,0.03054326190990077,0.01756237559819294,1.2919799787888024,0.25242000000000003,0.44226000000000004,-0.44632000000000005,18.5,0,745,481,296,1503,27.835859375,33278,19.77004810452619,999.0004823652399,0
2024-03-17T15:39:42,-0.6041877065,1.45663075775,10.0953185494,0.038789942625573975,0.04489859500755413,1.064127244940943,0.25494,0.42854000000000003,-0.44506000000000007,18.5,0,745,481,296,1503,27.835859375,33278,19.77004810452619,999.0004823652399,0
2024-03-17T15:39:42,0.78903325235,1.471585899,9.67597638875,0.048411070127192715,0.027794368338009703,0.4694499355551748,0.26782000000000006,0.42546000000000006,-0.44688000000000005,18.5,0,745,481,296,1503,27.835859375,33278,19.77004810452619,999.0004823652399,0
2024-03-17T15:39:43,-0.32662028489999995,0.50309095165,10.09113110985,0.12568552275924166,-0.023212879051524585,-0.15363260740680088,0.26782000000000006,0.42546000000000006,-0.44688000000000005,18.5,0,745,481,296,1503,27.835859375,33278,19.77004810452619,999.0004823652399,0
2024-03-17T15:39:43,-0.36370903520000003,-0.37088750299999995,9.820742156049999,0.05726861608106395,0.0013744467859455349,-0.34620787374872525,0.25102,0.43498000000000003,-0.44716,18.5,0,805,496,339,1570,27.8784375,34786,19.705022653917855,998.9980528625794,0
2024-03-17T15:39:43,-0.57248280705,0.11844471869999999,10.101300605899999,0.03726277953007894,0.0007635815477475193,-0.12064588454410805,0.25438000000000005,0.43274000000000007,-0.44394000000000006,18.5,0,805,496,339,1570,27.8784375,34786,19.705022653917855,998.9980528625794,0
2024-03-17T15:39:43,-0.01615155255,0.42053857194999994,10.33160978115,0.11255192013798433,0.013133602621257331,-0.12812898371203374,0.26166,0.43134000000000006,-0.4443600000000001,18.5,0,805,496,339,1570,27.8784375,34786,19.705022653917855,998.9980528625794,0
2024-03-17T15:39:43,0.10408778309999998,-0.13220344865,9.958927661199999,0.05513058774737089,-0.010231992739816757,-0.5988006497436046,0.25578,0.4333000000000001,-0.45514000000000004,18.5,0,805,496,339,1570,27.8784375,34786,19.705022653917855,998.9980528625794,0
2024-03-17T15:39:43,0.20398812665,0.22432711874999997,10.182656574299997,0.01145372321621279,-0.02168571595602955,-1.051757223867433,0.25578,0.4333000000000001,-0.45514000000000004,18.5,0,805,496,339,1570,27.8784375,34786,19.705022653917855,998.9980528625794,0
2024-03-17T15:39:43,-0.24107687694999996,0.19740786449999997,10.008578730149999,0.03924809155422249,0.0016798794050445422,-1.470352628342623,0.26054,0.43498000000000003,-0.46172,18.5,0,805,496,339,1570,27.8784375,34786,19.705022653917855,998.9980528625794,0
2024-03-17T15:39:43,-0.14177473905,0.029910282499999996,10.208379417249999,0.023212879051524585,-0.025656340004316647,-1.684919043259676,0.24430000000000002,0.44394000000000006,-0.45164000000000004,18.5,0,805,496,339,1570,27.8784375,34786,19.705022653917855,998.9980528625794,0
2024-03-17T15:39:43,-1.0582257948499998,0.1806581063,10.1659068161,-0.0012217304763960308,-0.010842857978014774,-1.422705139763178,0.24430000000000002,0.44394000000000006,-0.45164000000000004,18.5,0,805,496,339,1570,27.9169140625,36063,19.655363045924357,998.9907502746653,0
2024-03-17T15:39:43,-0.41635113239999993,0.16749758199999998,10.08634546465,0.03527746750593539,0.005039638215133627,-0.041844268816564056,0.24290000000000003,0.4543000000000001,-0.4520600000000001,18.5,0,805,496,339,1570,27.9169140625,36063,19.655363045924357,998.9907502746653,0
2024-03-17T15:39:43,-0.36909288605,0.10648060570000001,10.01934643185,0.038331793696925465,-0.0068722339297276735,-0.04214970143566306,0.24290000000000003,0.4543000000000001,-0.4520600000000001,18.5,0,805,496,339,1570,27.9169140625,36063,19.655363045924357,998.9907502746653,0
2024-03-17T15:39:43,-0.38045879339999994,0.10289137179999999,10.064211855599998,0.03497203488683638,0.004276056667386108,-0.04581489286485116,0.24234000000000003,0.46158000000000005,-0.4494,18.5,0,805,496,339,1570,27.9169140625,36063,19.655363045924357,998.9907502746653,0
2024-03-17T15:39:43,-0.33798619224999993,0.1531406464,10.244271756249999,0.04092797095926703,-0.0025961772623415654,-0.04474587869800463,0.24094000000000002,0.44926000000000005,-0.4585000000000001,18.5,0,805,496,339,1570,27.9169140625,36063,19.655363045924357,998.9907502746653,0
2024-03-17T15:39:43,-0.36490544649999995,0.09690931529999999,10.078568791199999,0.04459316238845512,-0.0054977871437821395,-0.043982297150257116,0.24094000000000002,0.44926000000000005,-0.4585000000000001,18.5,0,805,496,339,1570,27.9169140625,36063,19.655363045924357,998.9907502746653,0
2024-03-17T15:39:43,-0.3696910917,0.11605189609999998,10.08395264205,0.047952921198544204,-0.0068722339297276735,-0.04489859500755413,0.24262000000000003,0.45654,-0.44716,18.5,0,805,496,339,1570,27.9169140625,36063,19.655363045924357,998.9907502746653,0
2024-03-17T15:39:43,-0.35593236175,0.11425727914999999,10.0534441539,0.043982297150257116,-0.004886921905584123,-0.04459316238845512,0.24766000000000002,0.45178,-0.4502400000000001,18.5,0,805,496,339,1570,27.953046875,37305,19.610770059949047,998.990364353844,0
2024-03-17T15:39:43,-0.8566304908,0.35174492220000003,9.966106128999998,0.022143864884678056,-0.03787364476827696,0.33383785267521543,0.24458000000000002,0.4543000000000001,-0.45654,18.5,0,805,496,339,1570,27.953046875,37305,19.610770059949047,998.990364353844,0
2024-03-17T15:39:43,-0.8703892207499999,0.24945175605,10.241280727999998,0.04963280060358875,-0.006261368691529657,0.8390234046649742,0.24458000000000002,0.4543000000000001,-0.45654,18.5,0,805,496,339,1570,27.953046875,37305,19.610770059949047,998.990364353844,0
2024-03-17T15:39:43,0.6203392590499999,-0.014356935599999999,9.89970530185,0.02825251726665821,0.04413501345980661,0.3885102914939378,0.24514000000000002,0.4478600000000001,-0.44576000000000005,18.5,0,805,496,339,1570,27.953046875,37305,19.610770059949047,998.990364353844,0
2024-03-17T15:39:43,0.013758729949999998,-0.2009970984,9.97029356855,-0.019853120241435502,-0.03054326190990077,0.20051651443849855,0.24962000000000004,0.45066,-0.44366,18.5,0,805,496,339,1570,27.953046875,37305,19.610770059949047,998.990364353844,0
2024-03-17T15:39:43,-0.6257231099,0.3900300838,10.3405828659,0.005345070834232635,-0.10613783513690518,0.25182919444713187,0.24962000000000004,0.45066,-0.45332000000000006,18.5,0,805,496,339,1570,27.953046875,37305,19.610770059949047,998.990364353844,0
2024-03-17T15:39:43,0.4223331889,-0.38045879339999994,10.244271756249999,0.06429356632034113,-0.00595593607243065,0.3101668246950423,0.24710000000000001,0.44086000000000003,-0.45332000000000006,18.5,0,805,496,339,1570,27.953046875,37305,19.610770059949047,998.990364353844,0
2024-03-17T15:39:43,-1.6235301341,0.65024954155,10.1563355257,0.004123340357836604,-0.06551529679673715,0.32436944148314617,0.24318000000000004,0.44506000000000007,-0.45444000000000007,18.5,0,805,496,339,1570,27.98703125,38426,19.540090506413385,998.9954265107768,0
2024-03-17T15:39:43,-0.5443671415,-0.010767701699999998,9.781260583149999,0.09330966513474685,0.016340645121796914,0.3846923837552002,0.24934000000000003,0.43918000000000007,-0.45164000000000004,18.5,0,805,496,339,1570,27.98703125,38426,19.540090506413385,998.9954265107768,0
2024-03-17T15:39:43,-0.4839483708499999,0.07058826669999999,10.17248707825,0.07086036763096978,-0.013897184169004852,0.37965274554006656,0.25774,0.43302,-0.46508000000000005,18.5,0,805,496,339,1570,27.98703125,38426,19.540090506413385,998.9954265107768,0
2024-03-17T15:39:43,-0.2667997199,0.16929219894999997,10.0175518149,0.1114829059711378,-0.003054326190990077,0.37033705065754685,0.25326000000000004,0.43554000000000004,-0.44884,18.5,0,805,496,339,1570,27.98703125,38426,19.540090506413385,998.9954265107768,0
2024-03-17T15:39:43,-0.20638094924999997,-0.24227328824999997,9.826724212550001,0.08994990632465777,-0.004581489286485115,0.13347405454626637,0.25326000000000004,0.43554000000000004,-0.44884,18.5,0,805,496,339,1570,27.98703125,38426,19.540090506413385,998.9954265107768,0
2024-03-17T15:39:43,-0.52821558895,-0.36789647475,10.119844981049999,0.06979135346412325,0.009315694882519735,0.023212879051524585,0.25074,0.43162000000000006,-0.46046000000000004,18.5,0,805,496,339,1570,27.98703125,38426,19.540090506413385,998.9954265107768,0
2024-03-17T15:39:43,-0.5647061335999999,-0.5024927459999999,10.1431750014,0.08689558013366769,0.014049900478554353,0.038484510006474966,0.25718,0.43358,-0.45346000000000003,18.5,0,818,462,350,1628,27.98703125,38426,19.540090506413385,998.9954265107768,0
2024-03-17T15:39:43,-0.6155536138499998,-0.32542387359999997,9.847661410299999,0.060933807510252035,-0.015271630954950386,-0.007941248096574201,0.25718,0.43358,-0.45346000000000003,18.5,0,818,462,350,1628,28.018671875,39802,19.47968228346375,998.9984709853217,0
2024-03-17T15:39:43,-0.1387837108,0.1806581063,9.917651471349998,0.026725354171163174,-0.013744467859455347,-0.20387627324858762,0.24346000000000004,0.42714,-0.47334000000000004,18.5,0,818,462,350,1628,28.018671875,39802,19.47968228346375,998.9984709853217,0
2024-03-17T15:39:43,-0.6011966782499999,0.42412780585,10.346564922399999,0.05268712679457883,0.011759155835311796,-0.20295997539129063,0.24346000000000004,0.42714,-0.47334000000000004,18.5,0,818,462,350,1628,28.018671875,39802,19.47968228346375,998.9984709853217,0
2024-03-17T15:39:43,-0.4450650036,-0.11904292434999998,10.195218892949999,0.04612032548395016,0.0018325957145940463,-0.23167064158659734,0.24122000000000002,0.43162000000000006,-0.4719400000000001,18.5,0,818,462,350,1628,28.018671875,39802,19.47968228346375,998.9984709853217,0
2024-03-17T15:39:43,-0.6777670014499999,-0.057427742399999995,10.141380384449999,0.053297992032776846,0.038331793696925465,-0.27840183230874554,0.24374,0.43386,-0.47740000000000005,18.5,0,818,462,350,1628,28.018671875,39802,19.47968228346375,998.9984709853217,0
2024-03-17T15:39:43,-0.31345976059999997,-0.11724830739999999,9.948159959499998,0.052228977865930316,0.03497203488683638,-0.2849686336193742,0.24374,0.43386,-0.47740000000000005,18.5,0,818,462,350,1628,28.018671875,39802,19.47968228346375,998.9984709853217,0
2024-03-17T15:39:43,-0.31944181709999997,0.18484554585,10.26102151445,0.04505131131710364,0.019089538693687978,-0.3046690375512602,0.24374,0.42238000000000003,-0.48398,18.5,0,818,462,350,1628,28.018671875,39802,19.47968228346375,998.9984709853217,0
2024-03-17T15:39:43,-0.430708068,-0.19800607015,10.08395264205,0.049021935365390734,0.01710422666954443,-0.3445279943436807,0.23142000000000001,0.43274000000000007,-0.47852000000000006,18.5,0,818,462,350,1628,28.047578125,40920,19.419132640095132,998.9881383245389,0
2024-03-17T15:39:44,-0.6819544409999999,0.4235296002,10.635498251349999,0.05696318346196494,-0.0015271630954950385,-0.27137688206946836,0.22526000000000002,0.43218000000000006,-0.49168000000000006,18.5,0,818,462,350,1628,28.047578125,40920,19.419132640095132,998.9881383245389,0
2024-03-17T15:39:44,-0.4342973019,0.19381863059999999,10.139585767500002,0.06704245989223219,0.0012217304763960308,-0.27168231468856735,0.22162000000000004,0.4397400000000001,-0.50722,18.5,0,818,462,350,1628,28.047578125,40920,19.419132640095132,998.9881383245389,0
2024-03-17T15:39:44,-0.2596212521,-0.2883351233,10.087541875949999,0.07315111227421234,-0.004886921905584123,-0.20463985479633517,0.22162000000000004,0.4397400000000001,-0.50722,18.5,0,818,462,350,1628,28.047578125,40920,19.419132640095132,998.9881383245389,0
2024-03-17T15:39:44,-0.11784651304999999,0.2919243572,10.078568791199999,0.03787364476827696,-0.007635815477475193,-0.1308778772839248,0.22694000000000003,0.43386,-0.50512,18.5,0,818,462,350,1628,28.047578125,40920,19.419132640095132,998.9881383245389,0
2024-03-17T15:39:44,-0.4935196612499999,0.5682953674999999,9.9888379437,0.05742133239061345,-0.0027488935718910697,-0.04382958084070761,0.22218000000000004,0.42994000000000004,-0.5068,18.5,0,818,462,350,1628,28.047578125,40920,19.419132640095132,998.9881383245389,0
2024-03-17T15:39:44,-0.058624153699999994,0.2667997199,9.9984092341,0.06841690667817772,0.006261368691529657,0.062155537986648066,0.22218000000000004,0.42994000000000004,-0.5068,18.5,0,818,462,350,1628,28.047578125,40920,19.419132640095132,998.9881383245389,0
2024-03-17T15:39:44,-0.04247260115,0.3272184905499999,9.85424167245,0.03283400655314333,-0.030085112981252257,0.048716502746291725,0.22022000000000003,0.43218000000000006,-0.5112800000000001,18.5,0,818,462,350,1628,28.0747265625,42020,19.363687180194926,998.9838899804946,0
2024-03-17T15:39:44,-0.8751748659499998,-0.56051869405,10.20359377205,0.04780020488899471,-0.004886921905584123,0.1267545369260882,0.21630000000000002,0.4389,-0.51968,18.5,0,818,462,350,1628,28.0747265625,42020,19.363687180194926,998.9838899804946,0
2024-03-17T15:39:44,-0.56051869405,-0.873380249,9.43071207225,0.04291328298341058,-0.007788531787024696,0.15195272800175633,0.21714000000000003,0.43918000000000007,-0.5195400000000001,18.5,0,818,462,350,1628,28.0747265625,42020,19.363687180194926,998.9838899804946,0
2024-03-17T15:39:44,-0.8727820433499999,-1.0199406332499998,9.78604622835,0.04718933965079669,0.010231992739816757,0.053297992032776846,0.21546,0.43582000000000004,-0.53634,18.5,0,818,462,350,1628,28.0747265625,42020,19.363687180194926,998.9838899804946,0
2024-03-17T15:39:44,-0.049651068949999995,0.7166503687,10.505687625299998,0.008246680715673207,-0.02290744643242558,0.021838432265579053,0.21546,0.43582000000000004,-0.53634,18.5,0,818,462,350,1628,28.0747265625,42020,19.363687180194926,998.9838899804946,0
2024-03-17T15:39:44,-0.2117648001,0.7591229698499998,10.253244840999999,0.0474947722698957,-0.0054977871437821395,-0.00595593607243065,0.20818,0.44086000000000003,-0.53298,18.5,0,818,462,350,1628,28.0747265625,42020,19.363687180194926,998.9838899804946,0
2024-03-17T15:39:44,-0.24765713909999998,0.7316055099499998,11.009974988249997,0.04214970143566306,-0.017256942979093935,-0.019700403931885997,0.20874,0.42490000000000006,-0.53886,18.5,0,818,462,350,1628,28.0747265625,42020,19.363687180194926,998.9838899804946,0
2024-03-17T15:39:44,-0.18005990065000002,0.21954147355,10.08634546465,0.0276416520284602,0.010384709049366262,-0.007177666548826681,0.20874,0.44534,-0.5341,18.5,0,818,462,350,1628,28.1008984375,43536,19.313386880526906,998.9780545353356,0
2024-03-17T15:39:44,-0.7561319416,-0.21116659445,9.906285564,0.05558873667601941,0.0012217304763960308,0.08093964406123703,0.20986000000000002,0.43470000000000003,-0.5371800000000001,18.5,0,818,462,350,1628,28.1008984375,43536,19.313386880526906,998.9780545353356,0
2024-03-17T15:39:44,-0.6532405697999999,-0.20398812665,10.088738287249999,0.05604688560466791,-0.016798794050445424,0.15485433788319689,0.20986000000000002,0.43470000000000003,-0.5371800000000001,18.5,0,818,462,350,1628,28.1008984375,43536,19.313386880526906,998.9780545353356,0
2024-03-17T15:39:44,-0.66819571105,-0.72323063085,9.728020280299999,0.04718933965079669,-0.043676864531158106,0.2214386488467806,0.21042000000000002,0.4403000000000001,-0.5461400000000001,18.5,0,818,462,350,1628,28.1008984375,43536,19.313386880526906,998.9780545353356,0
2024-03-17T15:39:44,-0.029312076849999997,0.7686942602500001,11.697313280099998,0.019089538693687978,-0.01466076571675237,0.14065172109509305,0.20762000000000003,0.44114000000000003,-0.5415200000000001,18.5,0,818,462,350,1628,28.1008984375,43536,19.313386880526906,998.9780545353356,0
2024-03-17T15:39:44,0.56769716185,1.2861421475,11.011769605199998,0.040317105721069016,-0.002901609881440573,-0.13866640907094951,0.20762000000000003,0.44114000000000003,-0.5415200000000001,18.5,0,806,454,347,1693,28.1008984375,43536,19.313386880526906,998.9780545353356,0
2024-03-17T15:39:44,0.64905313025,0.9511469834999998,10.269396393549998,0.039553524173321496,0.003054326190990077,-0.45097126209968486,0.20398000000000002,0.45150000000000007,-0.55874,18.5,0,806,454,347,1693,28.1008984375,43536,19.313386880526906,998.9780545353356,0
2024-03-17T15:39:44,0.6520441584999999,1.0480562988,9.522237536699999,0.030390545600351267,0.023212879051524585,-0.6611089040398022,0.21154000000000003,0.43862000000000007,-0.55356,18.5,0,806,454,347,1693,28.128046875,44220,19.252794325203187,998.9737989712658,0
2024-03-17T15:39:44,-1.39920301535,-0.61914284775,9.388837676749999,0.029626964052603746,-0.026114488932965158,0.41752639030834354,0.20314000000000002,0.44534,-0.5548200000000001,18.5,0,806,454,347,1693,28.128046875,44220,19.252794325203187,998.9737989712658,0
2024-03-17T15:39:44,-4.13061001325,1.2753744458,10.241280727999998,0.02306016274197508,-0.006261368691529657,0.792292213942826,0.21098000000000003,0.44702000000000003,-0.55762,18.5,0,806,454,347,1693,28.128046875,44220,19.252794325203187,998.9737989712658,0
2024-03-17T15:39:44,-0.13220344865,-1.28674035315,9.5365944723,0.039553524173321496,-0.013133602621257331,1.0218248271957302,0.21098000000000003,0.44702000000000003,-0.55762,18.5,0,806,454,347,1693,28.128046875,44220,19.252794325203187,998.9737989712658,0
2024-03-17T15:39:44,-0.69092752575,-0.3158525832,10.37468058795,0.0514653963181828,-0.019547687622336492,1.4010194238071483,0.2121,0.43806000000000006,-0.55286,18.5,0,806,454,347,1693,28.128046875,44220,19.252794325203187,998.9737989712658,0
2024-03-17T15:39:44,-0.30508488149999996,-0.40498522504999995,10.660024682999998,0.05299255941367784,0.06918048822592525,1.2791518087866443,0.21322000000000002,0.44086000000000003,-0.5555200000000001,18.5,0,806,454,347,1693,28.128046875,44220,19.252794325203187,998.9737989712658,0
2024-03-17T15:39:44,-0.06101697629999999,-0.07836494014999999,9.89970530185,0.05192354524683131,-0.006414085001079162,1.2301298734212534,0.21322000000000002,0.44086000000000003,-0.5555200000000001,18.5,0,806,454,347,1693,28.128046875,44220,19.252794325203187,998.9737989712658,0
2024-03-17T15:39:44,0.39242290639999994,0.64546389635,9.859625523299998,0.04306599929296009,-0.04489859500755413,1.148426647812269,0.22134000000000004,0.43414,-0.55972,18.5,0,806,454,347,1693,28.153828125,45604,19.18696402806345,998.981627642166,0
2024-03-17T15:39:44,-0.66341006585,-0.7657032319999999,9.578468867799998,0.07024950239277176,0.009010262263420728,1.306946177124654,0.22414,0.43806000000000006,-0.5607000000000001,18.5,0,806,454,347,1693,28.153828125,45604,19.18696402806345,998.981627642166,0
2024-03-17T15:39:44,-0.42293139455,-0.9810572659999999,9.99661461715,0.07070765132142029,-0.01069014166846527,1.447292465600648,0.23422000000000004,0.43106000000000005,-0.5612600000000001,18.5,0,806,454,347,1693,28.153828125,45604,19.18696402806345,998.981627642166,0
2024-03-17T15:39:44,-0.17706887240000002,-0.39421752335,9.95593663295,0.07681630370340044,-0.0056505034533316425,1.5050192306103602,0.24094000000000002,0.43302,-0.56336,18.5,0,806,454,347,1693,28.153828125,45604,19.18696402806345,998.981627642166,0
2024-03-17T15:39:44,0.048454657649999996,0.39182470075,11.574681121849999,0.023976460599272102,0.006719517620178169,1.4080443740464255,0.24094000000000002,0.43302,-0.56336,18.5,0,806,454,347,1693,28.153828125,45604,19.18696402806345,998.981627642166,0
2024-03-17T15:39:44,-0.56410792795,-0.28175486115,10.22393276415,0.04214970143566306,0.01114829059711378,1.4387403522658757,0.24150000000000002,0.42518000000000006,-0.56112,18.5,0,806,454,347,1693,28.153828125,45604,19.18696402806345,998.981627642166,0
2024-03-17T15:39:44,-0.36550365214999997,0.3026920589,9.84108114815,0.07391469382195986,0.03527746750593539,1.5575536410953899,0.24290000000000003,0.42266000000000004,-0.5747000000000001,18.5,0,806,454,347,1693,28.153828125,45604,19.18696402806345,998.981627642166,0
2024-03-17T15:39:44,-0.5670989562,0.7118647235,9.789635462249999,0.04856378643674222,0.02351831167062359,1.594663704315919,0.24290000000000003,0.41818000000000005,-0.55524,18.5,0,806,454,347,1693,28.1778515625,47079,19.131413438969098,998.9866039798668,0
2024-03-17T15:39:44,-0.6041877065,-0.09212367009999999,10.166505021749998,0.03405573702953936,0.0016798794050445422,-0.03497203488683638,0.25438000000000005,0.41174000000000005,-0.5532800000000001,18.5,0,806,454,347,1693,28.1778515625,47079,19.131413438969098,998.9866039798668,0
2024-03-17T15:39:44,-0.5635097223,-0.7734799054499999,10.138987561849998,0.0355829001250344,0.005039638215133627,0.10720684930375171,0.25438000000000005,0.41174000000000005,-0.5532800000000001,18.5,0,806,454,347,1693,28.1778515625,47079,19.131413438969098,998.9866039798668,0
2024-03-17T15:39:44,-0.7603193811499999,-1.4512469068999998,9.7794659662,0.05207626155638081,0.02351831167062359,0.5335907855659664,0.25382000000000005,0.42406000000000005,-0.55342,18.5,0,806,454,347,1693,28.1778515625,47079,19.131413438969098,998.9866039798668,0
2024-03-17T15:39:44,-0.6885347031499999,-1.6055839645999996,10.080961613799998,0.05345070834232635,0.003207042500539581,1.0088439408840224,0.25354000000000004,0.41146000000000005,-0.5472600000000001,18.5,0,806,454,347,1693,28.1778515625,47079,19.131413438969098,998.9866039798668,0
2024-03-17T15:39:44,-0.36251262389999994,-0.7154539574000001,9.5653083435,0.08521570072862314,-0.04642575810304917,1.2948815886702432,0.25802,0.4081,-0.5559400000000001,18.5,0,806,454,347,1693,28.1778515625,47079,19.131413438969098,998.9866039798668,0
2024-03-17T15:39:44,-0.0370887503,0.6041877065,9.643075077999999,0.041691552507014555,-0.008093964406123704,0.9903652674285325,0.25802,0.4081,-0.5559400000000001,18.5,0,806,454,347,1693,28.1778515625,47079,19.131413438969098,998.9866039798668,0
2024-03-17T15:39:45,-0.10408778309999998,0.34097722049999996,11.058429645899999,0.04581489286485116,0.010079276430267254,0.6214026635569312,0.25914000000000004,0.40614000000000006,-0.5588800000000002,18.5,0,806,454,347,1693,28.19953125,47962,19.091272572931654,998.9806254432142,0
2024-03-17T15:39:45,0.1483550012,1.51525491145,10.286146151749998,0.018478673455489966,0.01756237559819294,0.18127425943526107,0.2611,0.40502000000000005,-0.55286,18.5,0,806,454,347,1693,28.19953125,47962,19.091272572931654,998.9806254432142,0
2024-03-17T15:39:45,-0.7148557517499999,1.25204442545,9.97986485895,0.06765332513043021,-0.025809056313866152,-0.26740625802118123,0.25998000000000004,0.40670000000000006,-0.55132,18.5,0,806,454,347,1693,28.19953125,47962,19.091272572931654,998.9806254432142,0
2024-03-17T15:39:45,-0.35832518435,0.049651068949999995,10.206584800299998,0.03466660226773738,0.017409659288643436,-0.14935655073941476,0.26726000000000005,0.4083800000000001,-0.5558000000000001,18.5,0,806,454,347,1635,28.19953125,47962,19.091272572931654,998.9806254432142,0
2024-03-17T15:39:45,-0.45702911659999995,-0.011365907350000001,10.15693373135,0.043982297150257116,0.017409659288643436,-0.04260785036431157,0.26726000000000005,0.4083800000000001,-0.5558000000000001,18.5,0,716,397,329,1635,28.19953125,47962,19.091272572931654,998.9806254432142,0
2024-03-17T15:39:45,-0.44267218099999994,-0.00418743955,10.105488045449999,0.03787364476827696,-0.01145372321621279,-0.04535674393620265,0.27342,0.40222,-0.5507600000000001,18.5,0,716,397,329,1635,28.19953125,47962,19.091272572931654,998.9806254432142,0
2024-03-17T15:39:45,-0.3026920589,0.048454657649999996,10.09950598895,0.04001167310197001,-0.0003054326190990077,-0.048411070127192715,0.26306,0.40614000000000006,-0.55524,18.5,0,716,397,329,1635,28.19953125,47962,19.091272572931654,998.9806254432142,0
2024-03-17T15:39:45,-0.35892339,0.0191425808,10.052845948249999,0.04245513405476207,0.005039638215133627,-0.04948008429403925,0.26306,0.40614000000000006,-0.55524,18.5,0,716,397,329,1635,28.2212109375,48907,19.040791906331215,998.9853739378041,0
2024-03-17T15:39:45,-0.32004002274999993,0.01256231865,10.087541875949999,0.040317105721069016,-0.0003054326190990077,-0.04474587869800463,0.26138000000000006,0.40642,-0.55944,18.5,0,716,397,329,1635,28.2212109375,48907,19.040791906331215,998.9853739378041,0
2024-03-17T15:39:45,-0.3332005470499999,0.022133609050000003,9.985846915449999,0.038942658935123484,-0.0009162978572970231,-0.048716502746291725,0.26138000000000006,0.40586,-0.5509000000000001,18.5,0,716,397,329,1635,28.2212109375,48907,19.040791906331215,998.9853739378041,0
2024-03-17T15:39:45,-0.35892339,-0.011964112999999998,10.104291634149998,0.049938233222687756,-0.0027488935718910697,-0.04688390703169768,0.26698,0.41034000000000004,-0.55356,18.5,0,716,397,329,1635,28.2212109375,48907,19.040791906331215,998.9853739378041,0
2024-03-17T15:39:45,-0.35114671655,0.005383850849999999,10.094720343749998,0.043982297150257116,-0.0016798794050445422,-0.04978551691313826,0.26698,0.41034000000000004,-0.55356,18.5,0,716,397,329,1635,28.2212109375,48907,19.040791906331215,998.9853739378041,0
2024-03-17T15:39:45,-0.35593236175,-0.005982056499999999,10.070792117749999,0.04276056667386108,-0.0009162978572970231,-0.04673119072214818,0.26278,0.40474000000000004,-0.55972,18.5,0,716,397,329,1635,28.2212109375,48907,19.040791906331215,998.9853739378041,0
2024-03-17T15:39:45,-0.34217363179999993,0.035892338999999995,10.10309522285,0.040622538340168025,0.0009162978572970231,-0.04688390703169768,0.26082000000000005,0.40922000000000003,-0.5518800000000001,18.5,0,716,397,329,1635,28.2212109375,48907,19.040791906331215,998.9853739378041,0
2024-03-17T15:39:45,-0.35234312785,0.0029910282499999996,10.110871896299999,0.040317105721069016,0.0019853120241435504,-0.04703662334124718,0.26082000000000005,0.40922000000000003,-0.5518800000000001,18.5,0,716,397,329,1635,28.242109375,50068,18.990281658490222,998.9817008420941,0
2024-03-17T15:39:45,-0.33020951879999993,0.2309073809,10.008578730149999,0.03329215548179184,0.016340645121796914,-0.2890919739772108,0.25970000000000004,0.39746000000000004,-0.5476800000000001,18.5,0,716,397,329,1635,28.242109375,50068,18.990281658490222,998.9817008420941,0
2024-03-17T15:39:45,-1.6073785815499997,1.4380863825999999,10.159326553949999,0.009926560120717751,0.016035212502697904,-0.4528038578142789,0.25970000000000004,0.39746000000000004,-0.5476800000000001,18.5,0,716,397,329,1635,28.242109375,50068,18.990281658490222,998.9817008420941,0
2024-03-17T15:39:45,-0.4133601041499999,0.96849494735,9.834500885999999,0.038942658935123484,0.030237829290801762,-0.9294314599182805,0.26558000000000004,0.40950000000000003,-0.5537000000000001,18.5,0,716,397,329,1635,28.242109375,50068,18.990281658490222,998.9817008420941,0
2024-03-17T15:39:45,-0.16749758199999998,-0.43968115274999997,9.53719267795,0.0435241482216086,-0.006108652381980154,-1.3185526166504165,0.25522,0.40782000000000007,-0.5510400000000001,18.5,0,716,397,329,1635,28.242109375,50068,18.990281658490222,998.9817008420941,0
2024-03-17T15:39:45,0.34097722049999996,0.28474588939999995,10.5236337948,0.025961772623415653,-0.009621127501618741,-1.330617205104827,0.25522,0.40782000000000007,-0.5510400000000001,18.5,0,716,397,329,1635,28.242109375,50068,18.990281658490222,998.9817008420941,0
2024-03-17T15:39:45,-0.4815555482499999,-0.5216353268,8.726025816549999,0.03252857393404432,-0.03726277953007894,-1.6438383559908594,0.25074,0.41398,-0.55342,18.5,0,716,397,329,1635,28.242109375,50068,18.990281658490222,998.9817008420941,0
2024-03-17T15:39:45,0.0346959277,0.028713871199999998,9.4887380203,0.026419921552064168,-0.0003054326190990077,-1.7715091907742448,0.24570000000000003,0.42574000000000006,-0.55034,18.5,0,716,397,329,1635,28.261640625,51068,18.950049509276266,998.9793858861191,0
2024-03-17T15:39:45,-0.08554340794999998,0.1519442351,10.018150020550001,0.024129176908821607,-0.013897184169004852,-1.5150985070406275,0.23254000000000002,0.42938000000000004,-0.55986,18.5,0,716,397,329,1635,28.261640625,51068,18.950049509276266,998.9793858861191,0
2024-03-17T15:39:45,-0.020937197749999997,0.6664010940999998,10.013364375349997,0.01069014166846527,0.016340645121796914,-1.567632917525657,0.22134000000000004,0.43470000000000003,-0.55636,18.5,0,716,397,329,1635,28.261640625,51068,18.950049509276266,998.9793858861191,0
2024-03-17T15:39:45,0.22911276394999996,1.2131610581999999,9.914062237449999,0.0019853120241435504,-0.025350907385217638,-1.767080417797309,0.21322000000000002,0.43862000000000007,-0.5432,18.5,0,716,397,329,1635,28.261640625,51068,18.950049509276266,998.9793858861191,0
2024-03-17T15:39:45,-0.08315058534999999,0.8219345630999999,9.367900479,0.030390545600351267,-0.030085112981252257,-1.9976820452170598,0.21322000000000002,0.43862000000000007,-0.5432,18.5,0,716,397,329,1635,28.261640625,51068,18.950049509276266,998.9793858861191,0
2024-03-17T15:39:45,0.032901310749999996,0.9595218625999999,11.103295069649999,-0.013133602621257331,-0.016493361431346415,-2.089006398327663,0.21406000000000003,0.44310000000000005,-0.5558000000000001,18.5,0,716,397,329,1635,28.261640625,51068,18.950049509276266,998.9793858861191,0
2024-03-17T15:39:45,-0.16211373114999997,0.3696910917,9.2590270507,0.010384709049366262,-0.04077525464971753,-2.1424571066699896,0.20454000000000003,0.4501,-0.5546800000000001,18.5,0,716,397,329,1635,28.261640625,51068,18.950049509276266,998.9793858861191,0
2024-03-17T15:39:45,-0.3026920589,-0.015553346899999999,9.8739824589,0.01069014166846527,-0.016493361431346415,-2.1074850717831533,0.20454000000000003,0.4501,-0.5546800000000001,18.5,0,716,397,329,1635,28.2821484375,51949,18.889207756508682,998.9804406217507,0
2024-03-17T15:39:45,-0.9361918422500001,-0.48454657649999994,9.37328432985,0.0238237442897226,-0.009926560120717751,-1.9993619246221044,0.17850000000000002,0.45934,-0.5553800000000001,18.5,0,716,397,329,1635,28.2821484375,51949,18.889207756508682,998.9804406217507,0
2024-03-17T15:39:45,-1.1282158559,-0.98404829425,9.580861690399999,0.017256942979093935,-0.036804630601430424,-1.7327192481486706,0.17850000000000002,0.45934,-0.5553800000000001,18.5,0,716,397,329,1601,28.2821484375,51949,18.889207756508682,998.9804406217507,0
2024-03-17T15:39:45,-1.4596217859999998,-1.1210373881,10.8861464187,0.014508049407202865,0.0025961772623415654,-1.2938125745033966,0.17094000000000004,0.46830000000000005,-0.54138,18.5,0,716,398,326,1601,28.2821484375,51949,18.889207756508682,998.9804406217507,0
2024-03-17T15:39:45,-2.02014048005,-1.83948237375,9.557531670049999,0.03436116964863837,0.0013744467859455349,-0.7157813428585246,0.16366000000000003,0.46942000000000006,-0.5637800000000001,18.5,0,716,398,326,1601,28.2821484375,51949,18.889207756508682,998.9804406217507,0
2024-03-17T15:39:45,-2.2396819535999994,-0.9828518829499999,9.9493563708,0.020311269170084013,-0.02168571595602955,-0.1036943741841131,0.16366000000000003,0.46942000000000006,-0.5637800000000001,18.5,0,716,398,326,1601,28.2821484375,51949,18.889207756508682,998.9804406217507,0
2024-03-17T15:39:45,0.28175486115,0.35593236175,10.039685423949999,0.02733621940936119,-0.004276056667386108,-0.04291328298341058,0.16562000000000002,0.47558000000000006,-0.56084,18.5,0,716,398,326,1601,28.2821484375,51949,18.889207756508682,998.9804406217507,0
2024-03-17T15:39:45,-0.5335994398,0.09810572659999998,10.0582297991,0.049327367984489744,0.025350907385217638,-0.04734205596034619,0.16394000000000003,0.4660600000000001,-0.56042,18.5,0,716,398,326,1601,28.3012890625,53193,18.833477926829207,998.9792772411985,0
2024-03-17T15:39:45,-0.33858439789999994,0.09571290399999999,10.239486111049999,0.041996985126113565,0.020005836550985007,-0.04245513405476207,0.17598000000000003,0.47082000000000007,-0.55272,18.5,0,716,398,326,1601,28.3012890625,53193,18.833477926829207,998.9792772411985,0
2024-03-17T15:39:45,-0.44925244314999996,0.11066804524999999,10.097113166349997,0.04245513405476207,-0.0006108652381980154,-0.04153883619746505,0.17178000000000002,0.47558000000000006,-0.55818,18.5,0,716,398,326,1601,28.3012890625,53193,18.833477926829207,998.9792772411985,0
2024-03-17T15:39:46,-0.29312076849999996,0.08614161359999999,10.066006472549999,0.038484510006474966,0.0033597588100890844,-0.04535674393620265,0.17178000000000002,0.47558000000000006,-0.55818,18.5,0,716,398,326,1601,28.3012890625,53193,18.833477926829207,998.9792772411985,0
2024-03-17T15:39:46,-0.20937197749999997,0.08315058534999999,10.1048898398,0.04153883619746505,-0.006261368691529657,-0.04260785036431157,0.17038000000000003,0.4719400000000001,-0.54922,18.5,0,716,398,326,1601,28.3012890625,53193,18.833477926829207,998.9792772411985,0
2024-03-17T15:39:46,-0.53898329065,0.09332008139999999,10.158130142649997,0.036499197982331415,-0.0357356164345839,-0.04291328298341058,0.16506,0.47306000000000004,-0.5544000000000001,18.5,0,716,398,326,1601,28.3012890625,53193,18.833477926829207,998.9792772411985,0
2024-03-17T15:39:46,-0.18544375149999998,0.037686955949999996,10.069595706449999,0.04428772976935611,0.008552113334772215,-0.04474587869800463,0.16506,0.47306000000000004,-0.5544000000000001,18.5,0,716,398,326,1601,28.3012890625,53193,18.833477926829207,998.9792772411985,0
2024-03-17T15:39:46,-0.46899322959999995,0.10588240005,10.130014477099998,0.03787364476827696,-0.0033597588100890844,-0.04596760917440065,0.16562000000000002,0.47922000000000003,-0.5614000000000001,18.5,0,716,398,326,1601,28.3190625,54253,18.788018844835648,998.9866270355985,0
2024-03-17T15:39:46,-0.38105699905,0.07537391189999999,10.13539832795,0.04230241774521256,-0.00015271630954950385,-0.04596760917440065,0.16814,0.46886000000000005,-0.5612600000000001,18.5,0,716,398,326,1601,28.3190625,54253,18.788018844835648,998.9866270355985,0
2024-03-17T15:39:46,-0.36849468039999994,0.09332008139999999,10.1240324206,0.038179077387375956,-0.0015271630954950385,-0.043982297150257116,0.16646,0.47390000000000004,-0.5661600000000001,18.5,0,716,398,326,1601,28.3190625,54253,18.788018844835648,998.9866270355985,0
2024-03-17T15:39:46,-0.37148570864999997,0.08135596839999999,10.1204431867,0.04444044607890562,-0.007635815477475193,-0.0474947722698957,0.16702,0.47894000000000003,-0.5546800000000001,18.5,0,716,398,326,1601,28.3190625,54253,18.788018844835648,998.9866270355985,0
2024-03-17T15:39:46,-0.3397808092,0.09032905315,10.104291634149998,0.039706240482871004,-0.0027488935718910697,-0.043676864531158106,0.16702,0.47894000000000003,-0.5546800000000001,18.5,0,716,398,326,1601,28.3190625,54253,18.788018844835648,998.9866270355985,0
2024-03-17T15:39:46,1.4297115034999999,1.5972090855,9.92602635045,0.025350907385217638,0.03924809155422249,-0.5013676442510212,0.16842000000000001,0.47166,-0.56798,18.5,0,716,398,326,1601,28.3190625,54253,18.788018844835648,998.9866270355985,0
2024-03-17T15:39:46,0.44207397535,2.8163522002,10.14257679575,0.040317105721069016,0.0474947722698957,-0.7289149454797819,0.17262,0.47334000000000004,-0.55832,18.5,0,716,398,326,1601,28.3190625,54253,18.788018844835648,998.9866270355985,0
2024-03-17T15:39:46,-0.22671994134999998,0.6137589969,10.180263751699998,-0.002138028333693054,-0.021991148575128558,-1.0719157767279675,0.17262,0.47082000000000007,-0.5602800000000001,18.5,0,716,398,326,1601,28.3360546875,55104,18.742528010160218,998.985555125585,0
2024-03-17T15:39:46,-0.35234312785,0.23988046564999999,10.2508520184,0.031154127148098783,0.0007635815477475193,-1.147510349954972,0.16002000000000002,0.47670000000000007,-0.5558000000000001,18.5,0,716,398,326,1601,28.3360546875,55104,18.742528010160218,998.985555125585,0
2024-03-17T15:39:46,-0.28175486115,0.011365907350000001,9.620343263299999,0.026725354171163174,-0.008704829644321718,-1.3129021131970846,0.15386000000000002,0.47530000000000006,-0.5558000000000001,18.5,0,716,398,326,1601,28.3360546875,55104,18.742528010160218,998.985555125585,0
2024-03-17T15:39:46,-0.3529413335,0.48693939909999995,9.93559764085,0.023976460599272102,-0.003970624048287101,-1.429424657383356,0.15022000000000002,0.4781,-0.55622,18.5,0,716,398,326,1601,28.3360546875,55104,18.742528010160218,998.985555125585,0
2024-03-17T15:39:46,0.37507494255,0.9212367009999999,10.528419439999999,0.005039638215133627,0.008093964406123704,-1.5315918684719743,0.13762,0.48566000000000004,-0.5510400000000001,18.5,0,716,398,326,1601,28.3360546875,55104,18.742528010160218,998.985555125585,0
2024-03-17T15:39:46,0.27337998204999997,0.5288137946,9.94277610865,0.01466076571675237,-0.009315694882519735,-1.781283034585413,0.13762,0.48566000000000004,-0.5510400000000001,18.5,0,716,398,326,1601,28.3360546875,55104,18.742528010160218,998.985555125585,0
2024-03-17T15:39:46,-0.44327038664999996,0.7292126873499999,10.792826337299998,0.01710422666954443,-0.01114829059711378,-2.0578522711795646,0.14938,0.48566000000000004,-0.5507600000000001,18.5,0,716,398,326,1601,28.3360546875,55104,18.742528010160218,998.985555125585,0
2024-03-17T15:39:46,-0.45104706009999995,0.12203395259999998,10.07438135165,0.022143864884678056,-0.02489275845656913,-2.3296873021776814,0.13174,0.4907,-0.5496400000000001,18.5,0,716,398,326,1601,28.353046875,55907,18.697050820585822,998.9898477152224,0
2024-03-17T15:39:46,-0.8279166196,0.09032905315,9.85304526115,0.020463985479633514,0.012675453692608819,-1.7553212619619971,0.10850000000000001,0.49210000000000004,-0.5367600000000001,18.5,0,716,398,326,1665,28.353046875,55907,18.697050820585822,998.9898477152224,0
2024-03-17T15:39:46,-0.9631110964999998,0.23868405434999998,9.994221794549999,0.00916297857297023,0.02825251726665821,-1.9014707702008724,0.10038000000000001,0.4898600000000001,-0.5362,18.5,0,925,553,376,1665,28.353046875,55907,18.697050820585822,998.9898477152224,0
2024-03-17T15:39:46,-0.7561319416,0.08434699664999999,9.728020280299999,0.0044287729769356115,-0.02061670178918302,-2.066557100823886,0.10038000000000001,0.4898600000000001,-0.5362,18.5,0,925,553,376,1665,28.353046875,55907,18.697050820585822,998.9898477152224,0
2024-03-17T15:39:46,-0.20159530404999998,0.023928225999999997,9.9517491934,0.006719517620178169,-0.036193765363232405,-1.8642079906707936,0.08246,0.48958,-0.5405400000000001,18.5,0,925,553,376,1665,28.353046875,55907,18.697050820585822,998.9898477152224,0
2024-03-17T15:39:46,0.39062828945,-0.027517459899999996,10.319645668149999,0.03207042500539581,-0.003207042500539581,-1.7130188442167846,0.08638000000000001,0.48426,-0.5371800000000001,18.5,0,925,553,376,1665,28.353046875,55907,18.697050820585822,998.9898477152224,0
2024-03-17T15:39:46,0.41156548719999997,0.15912270289999997,9.7818587888,0.01466076571675237,-0.004581489286485115,-1.627344994559513,0.08638000000000001,0.48426,-0.5371800000000001,18.5,0,925,553,376,1665,28.353046875,55907,18.697050820585822,998.9898477152224,0
2024-03-17T15:39:46,-0.5838487144,0.24227328824999997,11.331809627949998,0.007330382858376185,-0.023212879051524585,-1.386969523328594,0.07322000000000001,0.48426,-0.5371800000000001,18.5,0,925,553,376,1665,28.3696484375,56926,18.646405301094333,998.9881400737877,0
2024-03-17T15:39:46,0.11066804524999999,0.020937197749999997,9.9565348386,0.05009094953223726,0.02458732583747012,-0.041691552507014555,0.06930000000000001,0.49350000000000005,-0.5439,18.5,0,925,553,376,1665,28.3696484375,56926,18.646405301094333,998.9881400737877,0
2024-03-17T15:39:46,-0.5730810126999999,0.21714865095,10.157531936999998,0.036499197982331415,-0.0033597588100890844,-0.050854531079984784,0.07014,0.48790000000000006,-0.53956,18.5,0,925,553,376,1665,28.3696484375,56926,18.646405301094333,998.9881400737877,0
2024-03-17T15:39:46,-0.15613167464999997,0.1004985492,10.039685423949999,0.039553524173321496,-0.012064588454410803,-0.04214970143566306,0.07182000000000001,0.49434000000000006,-0.53032,18.5,0,925,553,376,1665,28.3696484375,56926,18.646405301094333,998.9881400737877,0
2024-03-17T15:39:46,-0.37746776514999997,0.16331014244999997,10.119246775399999,0.04703662334124718,0.005192354524683131,-0.04505131131710364,0.07182000000000001,0.49434000000000006,-0.53032,18.5,0,925,553,376,1665,28.3696484375,56926,18.646405301094333,998.9881400737877,0
2024-03-17T15:39:46,-0.3158525832,0.1268195978,10.105488045449999,0.04123340357836604,-0.006261368691529657,-0.04474587869800463,0.06594000000000001,0.48930000000000007,-0.5341,18.5,0,925,553,376,1665,28.3696484375,56926,18.646405301094333,998.9881400737877,0
2024-03-17T15:39:46,-0.26979074815,0.1292124204,10.091729315499999,0.04092797095926703,0.005345070834232635,-0.04077525464971753,0.06678,0.49126000000000003,-0.52962,18.5,0,925,553,376,1665,28.3696484375,56926,18.646405301094333,998.9881400737877,0
2024-03-17T15:39:46,-0.33858439789999994,0.15732808594999997,10.1204431867,0.04276056667386108,-0.0003054326190990077,-0.04413501345980661,0.06678,0.49126000000000003,-0.52962,18.5,0,925,553,376,1665,28.3868359375,57586,18.59581091078082,998.9891695760017,0
2024-03-17T15:39:46,-0.3236292566499999,0.13339985995,10.078568791199999,0.038484510006474966,0.00045814892864851157,-0.041691552507014555,0.06174000000000001,0.49238000000000004,-0.53312,18.5,0,925,553,376,1665,28.3868359375,57586,18.59581091078082,998.9891695760017,0
2024-03-17T15:39:46,-0.28055844984999995,0.014955141249999998,10.02532848835,0.039706240482871004,-0.0019853120241435504,-0.04413501345980661,0.06174000000000001,0.49238000000000004,-0.53312,18.5,0,925,553,376,1665,28.3868359375,57586,18.59581091078082,998.9891695760017,0
2024-03-17T15:39:46,-0.30927232104999997,0.30209385325,10.12582703755,0.041691552507014555,-0.002901609881440573,-0.04230241774521256,0.0707,0.49574000000000007,-0.5349400000000001,18.5,0,925,553,376,1665,28.3868359375,57586,18.59581091078082,998.9891695760017,0
2024-03-17T15:39:46,-0.3176472001499999,0.15373885204999999,10.080961613799998,0.04780020488899471,-0.003054326190990077,-0.04474587869800463,0.062020000000000006,0.48566000000000004,-0.53998,18.5,0,925,553,376,1665,28.3868359375,57586,18.59581091078082,998.9891695760017,0
2024-03-17T15:39:46,-0.31465617189999995,0.14297115034999996,10.09591675505,0.04077525464971753,-0.0016798794050445422,-0.04260785036431157,0.062020000000000006,0.48566000000000004,-0.53998,18.5,0,925,553,376,1665,28.3868359375,57586,18.59581091078082,998.9891695760017,0
2024-03-17T15:39:46,-0.22671994134999998,0.09631110964999999,10.0929257268,0.04382958084070761,-0.016035212502697904,-0.04917465167494024,0.07154,0.49854000000000004,-0.5292,18.5,0,925,553,376,1665,28.3868359375,57586,18.59581091078082,998.9891695760017,0
2024-03-17T15:39:46,-0.3565305674,0.13758729949999998,10.009176935799998,0.05451972250917287,0.048258353817643214,-0.04550946024575215,0.0707,0.49378000000000005,-0.52108,18.5,0,925,553,376,1665,28.4024609375,58749,18.555455446310923,998.991242685483,0
2024-03-17T15:39:47,-0.55932228275,0.2177468566,10.177272723449999,-0.0033597588100890844,-0.14798210395346925,-0.049327367984489744,0.057260000000000005,0.48902000000000007,-0.5446,18.5,0,925,553,376,1665,28.4024609375,58749,18.555455446310923,998.991242685483,0
2024-03-17T15:39:47,-0.6675975054,0.29910282499999996,10.133603711,0.051618112627732304,0.02290744643242558,-0.04948008429403925,0.05838,0.48482000000000003,-0.5324200000000001,18.5,0,925,553,376,1665,28.4024609375,58749,18.555455446310923,998.991242685483,0
2024-03-17T15:39:47,-0.2165504453,0.11365907349999999,10.034301573099999,0.0557414529855689,0.048258353817643214,-0.03772092845872745,0.05838,0.48958,-0.54124,18.5,0,925,553,376,1665,28.4024609375,58749,18.555455446310923,998.991242685483,0
2024-03-17T15:39:47,-0.5736792183499999,0.21236300575,10.1563355257,0.06078109120070253,0.062460970605747075,-0.03268129024359383,0.06314,0.48958,-0.54124,18.5,0,925,553,376,1665,28.4024609375,58749,18.555455446310923,998.991242685483,0
2024-03-17T15:39:47,-0.1112662509,0.84646099475,9.9014999188,0.05497787143782139,0.0949895445397914,-0.09514226084934091,0.058660000000000004,0.49658,-0.54068,18.5,0,925,553,376,1665,28.4024609375,58749,18.555455446310923,998.991242685483,0
2024-03-17T15:39:47,-0.6544369810999998,0.4211367776,10.08036340815,0.03451388595818787,-0.016340645121796914,-0.4065308160207793,0.07154,0.48874000000000006,-0.53774,18.5,0,925,553,376,1665,28.4024609375,58749,18.555455446310923,998.991242685483,0
2024-03-17T15:39:47,-0.35174492220000003,0.023928225999999997,9.999605645399999,0.031154127148098783,-0.013286318930806834,-0.5068654313948032,0.07154,0.48874000000000006,-0.53774,18.5,0,925,553,376,1665,28.417890625,59959,18.50994525611167,998.9894206466328,0
2024-03-17T15:39:47,-0.4193421606499999,0.15134602945,10.08634546465,0.04688390703169768,0.004123340357836604,-0.051007247389534285,0.0609,0.49238000000000004,-0.52822,18.5,0,996,529,317,1610,28.417890625,59959,18.50994525611167,998.9894206466328,0
2024-03-17T15:39:47,-0.49770710079999997,0.33678978094999995,10.0414800409,0.0476474885794452,0.03436116964863837,-0.16447546538481564,0.0609,0.49238000000000004,-0.52822,18.5,0,996,529,317,1610,28.417890625,59959,18.50994525611167,998.9894206466328,0
2024-03-17T15:39:47,-0.59641103305,0.36670006345,10.02054284315,0.05207626155638081,0.047952921198544204,-0.5061018498470558,0.06566000000000001,0.48902000000000007,-0.54866,18.5,0,996,529,317,1610,28.417890625,59959,18.50994525611167,998.9894206466328,0
2024-03-17T15:39:47,-0.18245272324999998,-0.06400800455,10.034899778749999,0.04214970143566306,0.02351831167062359,-0.5253441048502933,0.06538000000000001,0.4904200000000001,-0.5252800000000001,18.5,0,996,529,317,1610,28.417890625,59959,18.50994525611167,998.9894206466328,0
2024-03-17T15:39:47,-0.18005990065000002,-0.18364913454999998,10.0546405652,0.01145372321621279,-0.06841690667817772,-0.21853703896534002,0.06538000000000001,0.4904200000000001,-0.5252800000000001,18.5,0,996,529,317,1610,28.417890625,59959,18.50994525611167,998.9894206466328,0
2024-03-17T15:39:47,-0.29312076849999996,0.18664016279999998,10.0893364929,0.015882496193148403,-0.06139195643890055,-0.17195856455274133,0.06062000000000001,0.49014,-0.5346600000000001,18.5,0,996,529,317,1610,28.417890625,59959,18.50994525611167,998.9894206466328,0
2024-03-17T15:39:47,-0.7052844613499999,-0.04725824635,10.132407299699999,0.04153883619746505,0.0013744467859455349,-0.1941024294374194,0.05446000000000001,0.49238000000000004,-0.54166,18.5,0,996,529,317,1610,28.433125,60519,18.469590350122374,998.9926473937584,0
2024-03-17T15:39:47,-0.19082760235,0.5084748025,10.49073248405,0.03375030441044035,-0.010537425358915765,-0.12553280644969217,0.052500000000000005,0.48930000000000007,-0.53956,18.5,0,996,529,317,1610,28.433125,60519,18.469590350122374,998.9926473937584,0
2024-03-17T15:39:47,-0.43788653580000003,0.11665010174999998,9.699904614749999,0.07666358739385093,-0.027947084647559205,-0.12140946609185556,0.05446000000000001,0.48650000000000004,-0.5391400000000001,18.5,0,996,529,317,1610,28.433125,60519,18.469590350122374,998.9926473937584,0
2024-03-17T15:39:47,-0.7345965381999999,-0.07118647234999999,9.961320483799998,0.04673119072214818,-0.005803219762881146,-0.13225232406987034,0.05446000000000001,0.48650000000000004,-0.5391400000000001,18.5,0,996,529,317,1610,28.433125,60519,18.469590350122374,998.9926473937584,0
2024-03-17T15:39:47,-0.46600220135,0.0789631458,10.6229359327,0.02733621940936119,0.005039638215133627,-0.1105666081138408,0.0553,0.49378000000000005,-0.5432,18.5,0,996,529,317,1610,28.433125,60519,18.469590350122374,998.9926473937584,0
2024-03-17T15:39:47,-0.049651068949999995,0.25184457865,10.1491570579,0.05207626155638081,0.036804630601430424,-0.13286318930806834,0.0497,0.47558000000000006,-0.54348,18.5,0,996,529,317,1610,28.433125,60519,18.469590350122374,998.9926473937584,0
2024-03-17T15:39:47,-0.10169496049999999,-0.056231331100000004,10.306485143849999,0.040317105721069016,0.012064588454410803,-0.12538009014014267,0.0497,0.47558000000000006,-0.54348,18.5,0,996,529,317,1610,28.433125,60519,18.469590350122374,998.9926473937584,0
2024-03-17T15:39:47,-0.27577280465,0.20518453794999997,10.7880406921,0.0019853120241435504,0.0036651914291880926,-0.19211711741327583,0.05362000000000001,0.48566000000000004,-0.54474,18.5,0,996,529,317,1610,28.447578125,61444,18.43435271723927,998.9981847500709,0
2024-03-17T15:39:47,0.2739781877,0.5742774239999999,8.58604569445,0.05558873667601941,-0.010079276430267254,-0.5652030616427138,0.037660000000000006,0.48818000000000006,-0.5437600000000001,18.5,0,996,529,317,1610,28.447578125,61444,18.43435271723927,998.9981847500709,0
2024-03-17T15:39:47,0.2560320182,0.54735816975,10.140782178799999,0.02932153143350474,-0.02306016274197508,-0.7446447253633808,0.042140000000000004,0.47950000000000004,-0.5553800000000001,18.5,0,996,529,317,1610,28.447578125,61444,18.43435271723927,998.9981847500709,0
2024-03-17T15:39:47,0.18544375149999998,0.23569302609999998,10.2197453246,0.0357356164345839,0.0,-0.8144360788275041,0.042140000000000004,0.47950000000000004,-0.5553800000000001,18.5,0,996,529,317,1610,28.447578125,61444,18.43435271723927,998.9981847500709,0
2024-03-17T15:39:47,-0.017946169499999998,0.044267218100000005,10.071390323399998,0.03405573702953936,0.0012217304763960308,-0.7689266185817519,0.03318,0.4781,-0.5544000000000001,18.5,0,996,529,317,1610,28.447578125,61444,18.43435271723927,998.9981847500709,0
2024-03-17T15:39:47,-0.34217363179999993,0.17048861024999998,10.07318494035,0.022754730122876075,-0.018173240836390957,-0.7788531787024697,0.03402,0.48174000000000006,-0.5423600000000001,18.5,0,996,529,317,1610,28.447578125,61444,18.43435271723927,998.9981847500709,0
2024-03-17T15:39:47,-0.5994020613,0.24227328824999997,10.138987561849998,0.029474247743054245,0.003054326190990077,-0.7382306403623017,0.02646,0.47250000000000003,-0.5423600000000001,18.5,0,996,529,317,1610,28.447578125,61444,18.43435271723927,998.9981847500709,0
2024-03-17T15:39:47,-0.41515472109999996,0.0,9.957133044249998,0.04321871560250959,0.043676864531158106,-0.5193881687778626,0.02646,0.47250000000000003,-0.5423600000000001,18.5,0,996,529,317,1610,28.4618359375,62491,18.393962206051746,998.9926713847941,0
2024-03-17T15:39:47,-0.7004988161499999,0.037686955949999996,10.0187482262,0.0595593607243065,0.016493361431346415,0.24388794635055763,0.033460000000000004,0.47754,-0.5525800000000001,18.5,0,996,529,317,1610,28.4618359375,62491,18.393962206051746,998.9926713847941,0
2024-03-17T15:39:47,-0.95653083435,0.06879364974999999,10.2580304862,0.053297992032776846,0.018020524526841455,0.17394387657688487,0.029820000000000003,0.47558000000000006,-0.5525800000000001,18.5,0,996,529,317,1610,28.4618359375,62491,18.393962206051746,998.9926713847941,0
2024-03-17T15:39:47,-1.1102696864,-0.14536397295,9.595218626,0.04535674393620265,0.012217304763960308,-0.020922134408282028,0.030940000000000002,0.4781,-0.5565,18.5,0,996,529,317,1610,28.4618359375,62491,18.393962206051746,998.9926713847941,0
2024-03-17T15:39:47,-0.9182456727499999,-0.3613162126,9.702895643,0.039706240482871004,-0.012675453692608819,-0.14049900478554353,0.025060000000000002,0.47754,-0.5656,18.5,0,996,529,317,1610,28.4618359375,62491,18.393962206051746,998.9926713847941,0
2024-03-17T15:39:47,-0.06759723845,0.0646062102,9.985846915449999,0.049021935365390734,0.0003054326190990077,-0.20922134408282025,0.025060000000000002,0.47754,-0.5656,18.5,0,996,529,317,1610,28.4618359375,62491,18.393962206051746,998.9926713847941,0
2024-03-17T15:39:47,-0.3098705267,0.17706887240000002,9.96670433465,0.02229658119422756,0.007941248096574201,-0.19150625217507786,0.027300000000000005,0.48146000000000005,-0.5451600000000001,18.5,0,996,529,317,1610,28.4618359375,62491,18.393962206051746,998.9926713847941,0
2024-03-17T15:39:47,-0.26261228035,0.1806581063,9.843473970749999,0.04520402762665314,0.0016798794050445422,-0.08048149513258852,0.024220000000000002,0.48146000000000005,-0.5618200000000001,18.5,0,996,529,317,1610,28.4762890625,63430,18.34844575425594,998.9964181807786,0
2024-03-17T15:39:47,0.4073780476499999,0.23688943739999999,10.5750794807,0.02229658119422756,-0.0025961772623415654,-0.45875979388670957,0.019180000000000003,0.47978000000000004,-0.5643400000000001,18.5,0,1055,515,330,1642,28.4762890625,63430,18.34844575425594,998.9964181807786,0
2024-03-17T15:39:47,0.5742774239999999,-0.09690931529999999,10.356734418450001,0.038179077387375956,-0.05345070834232635,-0.25656340004316647,0.014980000000000002,0.48258000000000006,-0.5525800000000001,18.5,0,1055,515,330,1642,28.4762890625,63430,18.34844575425594,998.9964181807786,0
2024-03-17T15:39:47,0.9427721043999999,0.61914284775,11.161321017699999,0.03298672286269283,-0.014355333097653362,-0.14019357216644454,0.014980000000000002,0.48258000000000006,-0.5525800000000001,18.5,0,1055,515,330,1642,28.4762890625,63430,18.34844575425594,998.9964181807786,0
2024-03-17T15:39:48,0.03529413334999999,-0.2225325018,9.437292334399999,0.052534410485029326,0.0276416520284602,-0.15989397609833053,0.016380000000000002,0.48454,-0.56196,18.5,0,1055,515,330,1642,28.4762890625,63430,18.34844575425594,998.9964181807786,0
2024-03-17T15:39:48,-0.7417750059999999,0.12083754129999999,10.70847934065,0.04810563750809371,-0.013744467859455347,-0.17470745812463243,0.01778,0.48174000000000006,-0.5612600000000001,18.5,0,1055,515,330,1642,28.4762890625,63430,18.34844575425594,998.9964181807786,0
2024-03-17T15:39:48,-0.7034898444000001,0.43250268495,10.929815431149999,0.03588833274413341,0.0357356164345839,-0.3434589801768341,0.01778,0.48174000000000006,-0.5612600000000001,18.5,0,1055,515,330,1642,28.4762890625,63430,18.34844575425594,998.9964181807786,0
2024-03-17T15:39:48,-0.5443671415,0.44685962055,10.531410468249998,0.02825251726665821,-0.021227567027381034,-0.5103779065144419,0.018060000000000003,0.47670000000000007,-0.57512,18.5,0,1055,515,330,1642,28.4895703125,64008,18.323463194371175,998.9946869463616,0
2024-03-17T15:39:48,0.09212367009999999,0.33080772444999995,9.98465050415,0.03451388595818787,0.019853120241435502,-0.37507125625358145,0.00042,0.48174000000000006,-0.5661600000000001,18.5,0,1055,515,330,1642,28.4895703125,64008,18.323463194371175,998.9946869463616,0
2024-03-17T15:39:48,-0.26979074815,-0.056231331100000004,9.605388122049998,0.04046982203061852,-0.013133602621257331,-0.2617557545678496,0.00602,0.48174000000000006,-0.57162,18.5,0,1055,515,330,1642,28.4895703125,64008,18.323463194371175,998.9946869463616,0
2024-03-17T15:39:48,-0.1351944769,0.13998012209999997,10.2616197201,0.02168571595602955,-0.04153883619746505,-0.1269072532356377,0.007420000000000001,0.48426,-0.5654600000000001,18.5,0,1055,515,330,1642,28.4895703125,64008,18.323463194371175,998.9946869463616,0
2024-03-17T15:39:48,-0.6077769404,0.18424734019999997,10.22871840935,0.026267205242514663,-0.05406157358052436,-0.03604104905368291,0.007420000000000001,0.48426,-0.5654600000000001,18.5,0,1055,515,330,1642,28.4895703125,64008,18.323463194371175,998.9946869463616,0
2024-03-17T15:39:48,-0.6448656906999999,0.1698904046,9.986445121099997,0.0319177086958463,-0.07803803417979646,-0.01114829059711378,0.007420000000000001,0.49126000000000003,-0.5693800000000001,18.5,0,1055,515,330,1642,28.4895703125,64008,18.323463194371175,998.9946869463616,0
2024-03-17T15:39:48,-0.5994020613,0.058624153699999994,10.39023393485,0.05513058774737089,0.04001167310197001,-0.33918292350944806,-0.004340000000000001,0.48258000000000006,-0.5741400000000001,18.5,0,1055,515,330,1642,28.4895703125,64008,18.323463194371175,998.9946869463616,0
2024-03-17T15:39:48,-0.060418770649999995,0.24047867129999997,10.06839929515,0.03207042500539581,-0.005345070834232635,-0.46883907031697686,-0.004340000000000001,0.48258000000000006,-0.5741400000000001,18.5,0,1055,515,330,1642,28.5020703125,65044,18.277857582315143,998.9898996683046,0
2024-03-17T15:39:48,-0.42891345105,0.11605189609999998,10.234102260199998,0.05589416929511841,0.0830776723949301,-0.1945605783660679,-0.006300000000000001,0.48594000000000004,-0.5831000000000001,18.5,0,1055,515,330,1642,28.5020703125,65044,18.277857582315143,998.9898996683046,0
2024-03-17T15:39:48,-0.57846486355,-0.14775679555,9.695118969549998,0.040317105721069016,0.011606439525762293,-0.1745547418150829,-0.006300000000000001,0.48594000000000004,-0.5831000000000001,18.5,0,1055,515,330,1642,28.5020703125,65044,18.277857582315143,998.9898996683046,0
2024-03-17T15:39:48,-0.22013967919999997,0.17766707805,9.81356368825,0.04092797095926703,0.040622538340168025,-0.24281893218371112,-0.011340000000000001,0.48706000000000005,-0.5742800000000001,18.5,0,1055,515,330,1642,28.5020703125,65044,18.277857582315143,998.9898996683046,0
2024-03-17T15:39:48,0.1363908882,2.03689023825,10.693524199399999,0.0068722339297276735,0.02168571595602955,-0.298865817788379,-0.01246,0.48594000000000004,-0.57442,18.5,0,1055,515,330,1642,28.5020703125,65044,18.277857582315143,998.9898996683046,0
2024-03-17T15:39:48,-0.40259240244999994,0.32482566794999995,10.066006472549999,0.10812314716104872,0.02977968036215325,-0.5448917924726298,-0.01246,0.48594000000000004,-0.57442,18.5,0,1055,515,330,1642,28.5020703125,65044,18.277857582315143,998.9898996683046,0
2024-03-17T15:39:48,-0.6987041992,0.23449661479999998,10.238887905399999,0.11743884204356846,0.06963863715457375,-0.47143524757931843,-0.012180000000000002,0.48846000000000006,-0.5719000000000001,18.5,0,1055,515,330,1642,28.5020703125,65044,18.277857582315143,998.9898996683046,0
2024-03-17T15:39:48,-1.56789700865,0.31106693799999996,9.750153889349999,0.07941248096574201,0.0754418569174549,-0.45219299257608087,-0.005180000000000001,0.48538000000000003,-0.5765200000000001,18.5,0,1055,515,330,1642,28.5153515625,65651,18.237454337288128,998.9899557638246,0
2024-03-17T15:39:48,0.037686955949999996,0.38644084989999994,9.531808827099999,0.004123340357836604,-0.03543018381548489,0.05467243881872238,-0.027020000000000002,0.47670000000000007,-0.5761000000000001,18.5,0,1055,515,330,1642,28.5153515625,65651,18.237454337288128,998.9899557638246,0
2024-03-17T15:39:48,-0.3278166962,0.2763710103,9.74177901025,-0.04306599929296009,-0.04413501345980661,0.08933904108645975,-0.025340000000000005,0.48566000000000004,-0.5779200000000001,18.5,0,1055,515,330,1642,28.5153515625,65651,18.237454337288128,998.9899557638246,0
2024-03-17T15:39:48,-0.38763726119999997,0.50309095165,10.5774723033,0.025809056313866152,-0.0019853120241435504,-0.05467243881872238,-0.025340000000000005,0.48566000000000004,-0.5779200000000001,18.5,0,1055,515,330,1642,28.5153515625,65651,18.237454337288128,998.9899557638246,0
2024-03-17T15:39:48,-0.6400800454999999,0.36071800695,10.41535857215,0.051312680008633295,0.016493361431346415,-0.10033461537402402,-0.02758,0.48146000000000005,-0.56336,18.5,0,1055,515,330,1642,28.5153515625,65651,18.237454337288128,998.9899557638246,0
2024-03-17T15:39:48,-0.15613167464999997,0.0897308475,9.5928258034,0.04428772976935611,-0.0056505034533316425,-0.2780963996896465,-0.023660000000000004,0.49014,-0.5766600000000001,18.5,0,1055,515,330,1642,28.5153515625,65651,18.237454337288128,998.9899557638246,0
2024-03-17T15:39:48,0.11724830739999999,0.16091731985,9.977472036350001,0.04306599929296009,-0.02901609881440573,-0.21716259217939446,-0.023660000000000004,0.49014,-0.5766600000000001,18.5,0,1055,515,330,1642,28.5153515625,65651,18.237454337288128,998.9899557638246,0
2024-03-17T15:39:48,0.047856451999999994,0.30448667585,9.869795019349999,0.03481931857728687,-0.00595593607243065,-0.2622139034964981,-0.03542,0.48622000000000004,-0.56798,18.5,0,1055,515,330,1642,28.5278515625,66374,18.20216027141848,998.9923231387168,0
2024-03-17T15:39:48,0.20279171534999998,0.30867411539999995,10.155139114399999,0.00015271630954950385,0.041996985126113565,-0.6226243940333273,-0.032900000000000006,0.47558000000000006,-0.5796,18.5,0,1143,549,403,1950,28.5278515625,66374,18.20216027141848,998.9923231387168,0
2024-03-17T15:39:48,0.2596212521,0.8775676885499999,9.979266653299998,0.06078109120070253,-0.06429356632034113,-0.6267477343911638,-0.03626000000000001,0.47306000000000004,-0.5842200000000001,18.5,0,1143,549,403,1950,28.5278515625,66374,18.20216027141848,998.9923231387168,0
2024-03-17T15:39:48,0.20877377184999998,0.013758729949999998,10.4829558106,0.038484510006474966,-0.08093964406123703,-0.5242750906834467,-0.034300000000000004,0.47278000000000003,-0.56672,18.5,0,1143,549,403,1950,28.5278515625,66374,18.20216027141848,998.9923231387168,0
2024-03-17T15:39:48,-0.15254244074999998,0.06281159324999999,10.33878824895,0.02657263786161367,-0.013897184169004852,-0.3851505326838487,-0.034300000000000004,0.47278000000000003,-0.56672,18.5,0,1143,549,403,1950,28.5278515625,66374,18.20216027141848,998.9923231387168,0
2024-03-17T15:39:48,-0.4390829471,-0.2955135911,10.3046905269,0.0355829001250344,-0.010384709049366262,-0.16417003276571665,-0.030660000000000003,0.46858000000000005,-0.5735800000000001,18.5,0,1143,549,403,1950,28.5278515625,66374,18.20216027141848,998.9923231387168,0
2024-03-17T15:39:48,-0.7824529901999999,-0.21355941705,10.3346008094,0.05299255941367784,-0.013591751549905842,0.14523321038157816,-0.029540000000000004,0.46130000000000004,-0.5765200000000001,18.5,0,1143,549,403,1950,28.5278515625,66374,18.20216027141848,998.9923231387168,0
2024-03-17T15:39:48,-0.6203392590499999,-0.15373885204999999,10.211370445499998,0.0552833040569204,-0.05497787143782139,0.4300491276914028,-0.029540000000000004,0.46130000000000004,-0.5765200000000001,18.5,0,1143,549,403,1950,28.540546875,67328,18.161744817689083,998.9914281793004,0
2024-03-17T15:39:48,-0.4881358103999999,0.4235296002,9.732207719849999,0.06398813370124211,-0.007330382858376185,0.7409795339341927,-0.02758,0.46830000000000005,-0.5672800000000001,18.5,0,1143,549,403,1950,28.540546875,67328,18.161744817689083,998.9914281793004,0
2024-03-17T15:39:48,-0.9308079913999999,0.09332008139999999,10.2472627845,0.05497787143782139,0.007483099167925688,0.7864889941799449,-0.02758,0.46830000000000005,-0.5672800000000001,18.5,0,1143,549,403,1950,28.540546875,67328,18.161744817689083,998.9914281793004,0
2024-03-17T15:39:48,-0.38285161599999995,-0.0897308475,10.150951674849997,0.06994406977367276,0.013591751549905842,0.9888381043330374,-0.02646,0.47782,-0.5616800000000001,18.5,0,1143,549,403,1950,28.540546875,67328,18.161744817689083,998.9914281793004,0
2024-03-17T15:39:48,-0.7022934331,0.1339980656,10.216156090699998,0.04734205596034619,0.017256942979093935,1.1421652791207393,-0.02338,0.47446000000000005,-0.5698000000000001,18.5,0,1143,549,403,1950,28.540546875,67328,18.161744817689083,998.9914281793004,0
2024-03-17T15:39:48,-0.52342994375,0.32243284534999994,9.829715240799999,0.06979135346412325,0.0006108652381980154,1.3110695174824905,-0.02338,0.47446000000000005,-0.5698000000000001,18.5,0,1143,549,403,1950,28.540546875,67328,18.161744817689083,998.9914281793004,0
2024-03-17T15:39:48,-0.56051869405,0.3026920589,8.8450687409,0.0832303887044796,-0.013744467859455347,1.332144368200322,-0.014700000000000001,0.48258000000000006,-0.5712,18.5,0,1143,549,403,1950,28.540546875,67328,18.161744817689083,998.9914281793004,0
2024-03-17T15:39:48,-0.5730810126999999,0.7022934331,10.53021405695,0.038942658935123484,-0.041386119887915546,1.303280985695466,-0.0119,0.48930000000000007,-0.58086,18.5,0,1143,549,403,1950,28.553828125,67924,18.121373596903414,998.9968495193157,0
2024-03-17T15:39:49,-0.7405785947,-0.025722842949999998,10.192826070349998,0.04642575810304917,-0.0068722339297276735,0.6976081020221336,0.00266,0.4963000000000001,-0.5647600000000002,18.5,0,1143,549,403,1950,28.553828125,67924,18.121373596903414,998.9968495193157,0
2024-03-17T15:39:49,-0.27816562724999994,0.29970103065,10.79701377685,0.060933807510252035,-0.02733621940936119,0.7684684696531033,0.015540000000000002,0.4963000000000001,-0.5590200000000001,18.5,0,1143,549,403,1950,28.553828125,67924,18.121373596903414,998.9968495193157,0
2024-03-17T15:39:49,-0.30209385325,-0.34037901484999994,9.03111069805,0.06108652381980154,-0.012522737383059314,0.8087855753741724,0.015540000000000002,0.4963000000000001,-0.5590200000000001,18.5,0,1143,549,403,1950,28.553828125,67924,18.121373596903414,998.9968495193157,0
2024-03-17T15:39:49,-0.21595223965000002,0.54735816975,10.345966716749999,0.04153883619746505,-0.02306016274197508,0.8219191779954297,0.006300000000000001,0.51114,-0.5691,18.5,0,1143,549,403,1950,28.553828125,67924,18.121373596903414,998.9968495193157,0
2024-03-17T15:39:49,-0.35712877305,0.047856451999999994,9.6753781831,0.03741549583962844,0.007635815477475193,0.631634656296748,0.011620000000000002,0.5010600000000001,-0.5643400000000001,18.5,0,1143,549,403,1950,28.553828125,67924,18.121373596903414,998.9968495193157,0
2024-03-17T15:39:49,0.10109675484999998,0.09870393224999999,10.141380384449999,0.06520986417763815,0.07009678608322227,0.4550946024575215,0.02142,0.5097400000000001,-0.5794600000000001,18.5,0,1143,549,403,1950,28.553828125,67924,18.121373596903414,998.9968495193157,0
2024-03-17T15:39:49,-0.27936203854999997,0.11306086784999998,9.88893760015,0.03604104905368291,-0.020463985479633514,0.3214678316017056,0.02142,0.5097400000000001,-0.5794600000000001,18.5,0,1143,549,403,1950,28.566328125,68923,18.080969661208307,998.9992150188201,0
2024-03-17T15:39:49,-0.11066804524999999,-0.038883367249999995,10.0366943957,0.030237829290801762,-0.07177666548826682,-0.17150041562409285,0.018340000000000002,0.50722,-0.57694,18.5,0,1143,549,403,1950,28.566328125,68923,18.080969661208307,998.9992150188201,0
2024-03-17T15:39:49,-0.36490544649999995,0.2608176634,10.051649536949999,0.01618792881224741,-0.07620543846520243,-0.3869831283984428,0.018340000000000002,0.50722,-0.57694,18.5,0,1143,549,403,1950,28.566328125,68923,18.080969661208307,998.9992150188201,0
2024-03-17T15:39:49,-0.31405796625,0.37028929735,10.150951674849997,0.04214970143566306,0.005192354524683131,-0.5407684521147932,0.0161,0.5033000000000001,-0.57218,18.5,0,1143,549,403,1950,28.566328125,68923,18.080969661208307,998.9992150188201,0
2024-03-17T15:39:49,-0.08015955709999999,0.30448667585,9.997811028449998,0.041386119887915546,-0.0070249502392771765,-0.5920811321234265,0.00602,0.5044200000000001,-0.5660200000000001,18.5,0,1143,549,403,1950,28.566328125,68923,18.080969661208307,998.9992150188201,0
2024-03-17T15:39:49,-0.25543381255,0.5240281494,10.10668445675,0.031459559767197796,-0.017256942979093935,-0.6661485422549358,0.00602,0.5044200000000001,-0.5660200000000001,18.5,0,1143,549,403,1950,28.566328125,68923,18.080969661208307,998.9992150188201,0
2024-03-17T15:39:49,0.062213387599999996,0.5898307708999999,10.122836009299998,0.02703078679026218,-0.018173240836390957,-0.8538368866912761,0.026180000000000002,0.5027400000000001,-0.57008,18.5,0,1143,549,403,1950,28.566328125,68923,18.080969661208307,998.9992150188201,0
2024-03-17T15:39:49,0.0167497582,0.09930213789999999,9.909276592249999,0.030085112981252257,-0.014202616788103858,-1.0454958551759033,0.007700000000000001,0.4963000000000001,-0.5705,18.5,0,1143,549,403,2052,28.5774609375,69433,18.050772683689026,999.0011535406669,0
2024-03-17T15:39:49,-0.44626141489999993,-0.0035892338999999997,9.041878399749999,0.04077525464971753,0.0019853120241435504,-1.4621059476269498,-0.006300000000000001,0.48174000000000006,-0.56784,18.5,0,1202,591,420,2052,28.5774609375,69433,18.050772683689026,999.0011535406669,0
2024-03-17T15:39:49,-0.9409774874499999,0.2608176634,10.9531454515,0.02657263786161367,-0.02489275845656913,-1.1876747393664915,-0.014700000000000001,0.48230000000000006,-0.5601400000000001,18.5,0,1202,591,420,2052,28.5774609375,69433,18.050772683689026,999.0011535406669,0
2024-03-17T15:39:49,-1.2251251712,-0.10648060570000001,9.799206752649999,0.03054326190990077,-0.006566801310628666,-0.9060658645572064,-0.014700000000000001,0.48230000000000006,-0.5601400000000001,18.5,0,1202,591,420,2052,28.5774609375,69433,18.050772683689026,999.0011535406669,0
2024-03-17T15:39:49,-0.8931210354499999,-0.18305092890000002,9.991230766299998,0.04245513405476207,-0.0013744467859455349,-0.6255260039147678,-0.014700000000000001,0.47502000000000005,-0.5735800000000001,18.5,0,1202,591,420,2052,28.5774609375,69433,18.050772683689026,999.0011535406669,0
2024-03-17T15:39:49,-0.64426748505,0.09990034354999999,10.1048898398,0.039553524173321496,0.010842857978014774,-0.38805214256528925,-0.01974,0.4719400000000001,-0.5719000000000001,18.5,0,1202,591,420,2052,28.5774609375,69433,18.050772683689026,999.0011535406669,0
2024-03-17T15:39:49,-0.6293123437999999,-0.07776673449999999,10.06720288385,0.04016438941151951,0.003054326190990077,-0.21624629432209744,-0.01974,0.4719400000000001,-0.5719000000000001,18.5,0,1202,591,420,2052,28.5774609375,69433,18.050772683689026,999.0011535406669,0
2024-03-17T15:39:49,-0.53898329065,-0.005982056499999999,10.111470101950001,0.03772092845872745,-0.001069014166846527,-0.06459899893944013,-0.015540000000000002,0.4655000000000001,-0.5709200000000001,18.5,0,1202,591,420,2052,28.5891796875,70184,18.015479506851396,999.0004625868398,0
2024-03-17T15:39:49,-0.7728816997999999,-0.06759723845,10.13539832795,0.041996985126113565,0.0019853120241435504,0.9691377004011514,-0.0119,0.4713800000000001,-0.5650400000000001,18.5,0,1202,591,420,2052,28.5891796875,70184,18.015479506851396,999.0004625868398,0
2024-03-17T15:39:49,-0.4731806691499999,0.47138605219999996,10.438090386849998,0.05009094953223726,0.010842857978014774,1.1568260448374916,-0.013300000000000001,0.47474000000000005,-0.56896,18.5,0,1202,591,420,2052,28.5891796875,70184,18.015479506851396,999.0004625868398,0
2024-03-17T15:39:49,-0.61675002515,0.37447673689999994,10.192826070349998,0.04963280060358875,0.021532999646480044,1.0627527981549973,-0.013300000000000001,0.47474000000000005,-0.56896,18.5,0,1202,591,420,2052,28.5891796875,70184,18.015479506851396,999.0004625868398,0
2024-03-17T15:39:49,-0.5258227663499999,0.19262221929999998,10.07916699685,0.05757404870016296,0.08139779298988555,0.9089674744386469,0.00014000000000000001,0.48062000000000005,-0.56686,18.5,0,1202,591,420,2052,28.5891796875,70184,18.015479506851396,999.0004625868398,0
2024-03-17T15:39:49,-0.39062828945,0.43728833014999996,10.4063854874,0.07605272215565292,0.07299839596466283,0.8628471489546968,-0.00322,0.48510000000000003,-0.5607000000000001,18.5,0,1202,591,420,2052,28.5891796875,70184,18.015479506851396,999.0004625868398,0
2024-03-17T15:39:49,-0.08015955709999999,0.6538387754499999,9.116654106,0.0749837079888064,0.027794368338009703,0.8831584181247808,-0.00322,0.48510000000000003,-0.5607000000000001,18.5,0,1202,591,420,2052,28.5891796875,70184,18.015479506851396,999.0004625868398,0
2024-03-17T15:39:49,-0.35712877305,-0.020338992099999998,9.9696953629,0.04306599929296009,0.0035124751196385882,0.9418014809917903,0.00406,0.4949,-0.5713400000000001,18.5,0,1202,591,420,2052,28.6001171875,70832,17.97501770756334,998.987769234175,0
2024-03-17T15:39:49,0.2715853651,0.13758729949999998,10.1742816952,0.03512475119638588,-0.04566217655530165,0.09178250203925183,0.007980000000000001,0.49210000000000004,-0.5665800000000001,18.5,0,1202,591,420,2052,28.6001171875,70832,17.97501770756334,998.987769234175,0
2024-03-17T15:39:49,-0.011964112999999998,0.15912270289999997,10.03729260135,0.026419921552064168,-0.05879577917655898,-0.061697389057999555,0.007420000000000001,0.49938000000000005,-0.5647600000000002,18.5,0,1202,591,420,2052,28.6001171875,70832,17.97501770756334,998.987769234175,0
2024-03-17T15:39:49,1.0767701699999999,0.8673981924999999,10.01934643185,-0.009621127501618741,-0.1316414588316723,-0.4115704542359129,0.00406,0.49518000000000006,-0.57148,18.5,0,1202,591,420,2052,28.6001171875,70832,17.97501770756334,998.987769234175,0
2024-03-17T15:39:49,-0.7752745223999999,1.2963116435499997,11.5968147309,0.062155537986648066,0.003970624048287101,-1.0441214083899577,0.0012600000000000003,0.49294000000000004,-0.5647600000000002,18.5,0,1202,591,420,2052,28.6001171875,70832,17.97501770756334,998.987769234175,0
2024-03-17T15:39:49,-0.26261228035,-0.07058826669999999,10.133603711,0.03802636107782646,-0.02138028333693054,-1.2461650859239515,0.0012600000000000003,0.49294000000000004,-0.5647600000000002,18.5,0,1202,591,420,2052,28.6001171875,70832,17.97501770756334,998.987769234175,0
2024-03-17T15:39:49,-0.9409774874499999,0.09571290399999999,10.893923092149999,0.02138028333693054,-0.0018325957145940463,-1.1386528040011008,0.0012600000000000003,0.4909800000000001,-0.5682600000000001,18.5,0,1202,591,420,2052,28.6001171875,70832,17.97501770756334,998.987769234175,0
2024-03-17T15:39:49,-1.0863414604,0.056231331100000004,10.076175968599998,0.02977968036215325,0.01893682238413848,-0.9625708990905227,-0.0035000000000000005,0.48510000000000003,-0.56322,18.5,0,1202,591,420,2052,28.61125,71432,17.9499747494883,998.9807593810173,0
2024-03-17T15:39:49,-0.40558343069999997,0.15373885204999999,10.063015444300001,0.025961772623415653,-0.018478673455489966,-0.0357356164345839,-0.010780000000000001,0.48678000000000005,-0.56532,18.5,0,1202,591,420,2052,28.61125,71432,17.9499747494883,998.9807593810173,0
2024-03-17T15:39:49,-1.5128620888500002,-0.7704888771999999,10.1419785901,0.04550946024575215,-0.0009162978572970231,0.2997821156456761,-0.009940000000000001,0.48258000000000006,-0.5656,18.5,0,1202,591,420,2052,28.61125,71432,17.9499747494883,998.9807593810173,0
2024-03-17T15:39:49,-1.9549360641999998,-1.0283155123499998,10.46321502415,0.07635815477475191,0.007788531787024696,1.292438127717451,-0.009940000000000001,0.48258000000000006,-0.5656,18.5,0,1202,591,420,2052,28.61125,71432,17.9499747494883,998.9807593810173,0
2024-03-17T15:39:49,-0.9667003303999999,0.43728833014999996,11.097313013149998,0.062460970605747075,0.05849034655745997,1.7811303182758633,-0.006300000000000001,0.48622000000000004,-0.5677000000000001,18.5,0,1202,591,420,2052,28.61125,71432,17.9499747494883,998.9807593810173,0
2024-03-17T15:39:50,0.25902304644999996,0.5682953674999999,9.290731950149999,0.09789115442123197,0.0792597646561925,1.3408491978446437,0.00322,0.48622000000000004,-0.56574,18.5,0,1202,591,420,2052,28.61125,71432,17.9499747494883,998.9807593810173,0
2024-03-17T15:39:50,0.81056865575,1.11565353725,10.644471336099999,0.07574728953655392,0.13255775668896935,0.5853616145032482,0.00322,0.48622000000000004,-0.56574,18.5,0,1202,591,420,2022,28.61125,71432,17.9499747494883,998.9807593810173,0
2024-03-17T15:39:50,0.8063812161999999,0.7310073042999999,9.96909715725,0.04444044607890562,-0.047952921198544204,0.2290744643242558,0.015260000000000001,0.49854000000000004,-0.5761000000000001,18.5,0,1208,583,420,2022,28.6216015625,72165,17.92489222943223,998.983218870902,0
2024-03-17T15:39:50,0.02691925425,0.17886348935000002,10.0546405652,0.04306599929296009,0.010231992739816757,-0.1983784861048055,0.00966,0.49882000000000004,-0.5688200000000001,18.5,0,1208,583,420,2022,28.6216015625,72165,17.92489222943223,998.983218870902,0
2024-03-17T15:39:50,-0.14416756165,0.17527425545,10.161719376549998,0.03390302071998985,0.004581489286485115,-0.5476406860445208,0.01414,0.49938000000000005,-0.57218,18.5,0,1208,583,420,2022,28.6216015625,72165,17.92489222943223,998.983218870902,0
2024-03-17T15:39:50,-0.19202401365,0.25184457865,9.8201439504,0.020922134408282028,-0.07192938179781631,-0.6017022596250451,0.0012600000000000003,0.48902000000000007,-0.56686,18.5,0,1208,583,420,2022,28.6216015625,72165,17.92489222943223,998.983218870902,0
2024-03-17T15:39:50,-0.9655039191,0.8231309743999999,10.2640125427,0.04566217655530165,0.031459559767197796,-0.5671883736668573,0.0012600000000000003,0.48902000000000007,-0.56686,18.5,0,1208,583,420,2022,28.6216015625,72165,17.92489222943223,998.983218870902,0
2024-03-17T15:39:50,-0.26380869165,-0.16211373114999997,10.04566748045,0.060933807510252035,0.051770828937281806,-0.04673119072214818,-0.00014000000000000001,0.4963000000000001,-0.56812,18.5,0,1208,583,420,2022,28.6216015625,72165,17.92489222943223,998.983218870902,0
2024-03-17T15:39:50,-0.34755748264999997,0.17587246110000002,10.06361364995,0.03054326190990077,-0.03329215548179184,-0.04657847441259867,-0.004340000000000001,0.49882000000000004,-0.56308,18.5,0,1208,583,420,2022,28.6216015625,72165,17.92489222943223,998.983218870902,0
2024-03-17T15:39:50,-0.42771703974999997,0.19800607015,10.125228831899998,0.04657847441259867,0.014813482026301873,-0.04276056667386108,-0.004340000000000001,0.49882000000000004,-0.56308,18.5,0,1208,583,420,2022,28.6315625,72913,17.894661633572987,998.9796768564934,0
2024-03-17T15:39:50,-0.35712877305,0.15373885204999999,10.107880868049998,0.043982297150257116,0.0003054326190990077,-0.04489859500755413,0.0021000000000000003,0.50022,-0.57372,18.5,0,1208,583,420,2022,28.6315625,72913,17.894661633572987,998.9796768564934,0
2024-03-17T15:39:50,-0.27936203854999997,0.1483550012,10.14736244095,0.04001167310197001,0.038179077387375956,-0.04718933965079669,0.0021000000000000003,0.50022,-0.57372,18.5,0,1208,583,420,2022,28.6315625,72913,17.894661633572987,998.9796768564934,0
2024-03-17T15:39:50,-0.33439695834999994,0.1483550012,10.103693428499998,0.04428772976935611,-0.0022907446432425577,-0.0435241482216086,-0.00602,0.49854000000000004,-0.57162,18.5,0,1208,583,420,2022,28.6315625,72913,17.894661633572987,998.9796768564934,0
2024-03-17T15:39:50,-0.32542387359999997,0.1639083481,10.09830957765,0.04489859500755413,0.00015271630954950385,-0.04581489286485116,0.00574,0.4979800000000001,-0.5665800000000001,18.5,0,1208,583,420,2022,28.6315625,72913,17.894661633572987,998.9796768564934,0
2024-03-17T15:39:50,-0.30089744194999996,0.13998012209999997,10.078568791199999,0.041996985126113565,-0.0007635815477475193,-0.04581489286485116,-0.030100000000000002,0.49602,-0.54978,18.5,0,1208,583,420,2022,28.6315625,72913,17.894661633572987,998.9796768564934,0
2024-03-17T15:39:50,-0.31704899449999996,0.14656038424999998,10.107880868049998,0.04214970143566306,-0.0009162978572970231,-0.04489859500755413,-0.0015400000000000001,0.49602,-0.54978,18.5,0,1208,583,420,2022,28.6315625,72913,17.894661633572987,998.9796768564934,0
2024-03-17T15:39:50,-0.31405796625,0.17108681589999997,10.066006472549999,0.041844268816564056,-0.0003054326190990077,-0.04627304179349966,0.0009800000000000002,0.49210000000000004,-0.56672,18.5,0,1208,583,420,2022,28.6411328125,74000,17.864415596690645,998.9880271390305,0
2024-03-17T15:39:50,-0.31345976059999997,0.16749758199999998,10.1168539528,0.04428772976935611,-0.003054326190990077,-0.043982297150257116,-0.007980000000000001,0.49882000000000004,-0.5682600000000001,18.5,0,1208,583,420,2022,28.6411328125,74000,17.864415596690645,998.9880271390305,0
2024-03-17T15:39:50,-0.3296113131499999,0.15972090854999998,10.088738287249999,0.039095375244672985,-0.0015271630954950385,-0.04382958084070761,-0.005180000000000001,0.4949,-0.5717600000000002,18.5,0,1208,583,420,2022,28.6411328125,74000,17.864415596690645,998.9880271390305,0
2024-03-17T15:39:50,-0.3158525832,0.15014961815,10.08155981945,0.04535674393620265,0.0006108652381980154,-0.04489859500755413,-0.005180000000000001,0.4949,-0.5717600000000002,18.5,0,1208,583,420,2022,28.6411328125,74000,17.864415596690645,998.9880271390305,0
2024-03-17T15:39:50,-0.32662028489999995,0.15493526335,10.09113110985,0.038637226316024474,-0.0015271630954950385,-0.04688390703169768,-0.00238,0.4898600000000001,-0.5532800000000001,18.5,0,1208,583,420,2022,28.6411328125,74000,17.864415596690645,998.9880271390305,0
2024-03-17T15:39:50,-0.32303105099999996,0.17886348935000002,10.253843046649997,0.04276056667386108,0.0003054326190990077,-0.043676864531158106,0.00238,0.4968600000000001,-0.5588800000000002,18.5,0,1208,583,420,2022,28.6411328125,74000,17.864415596690645,998.9880271390305,0
2024-03-17T15:39:50,-0.2979064137,0.16749758199999998,10.11386292455,0.04489859500755413,-0.001069014166846527,-0.04413501345980661,0.00238,0.4968600000000001,-0.5588800000000002,18.5,0,1208,583,420,2022,28.6411328125,74000,17.864415596690645,998.9880271390305,0
