Timestamp,Accel_X,Accel_Y,Accel_Z,Gyro_X,Gyro_Y,Gyro_Z,Mag_X,Mag_Y,Mag_Z,LSM9DS1_Temp,Proximity,Color_R,Color_G,Color_B,Color_C,BME680_Temp,Gas,Humidity,Pressure,Switch_Pressed
2024-03-17T15:59:32,-0.26739792554999997,0.20757736054999998,10.073783145999998,0.04276056667386108,-0.01756237559819294,-0.04459316238845512,-0.004900000000000001,0.3971800000000001,-0.52962,19.5,0,0,0,0,0,33.574921875,213584,100,695.662002676745,0
2024-03-17T15:59:32,-0.2584248408,0.20578274359999998,10.12582703755,0.040317105721069016,0.0009162978572970231,-0.04581489286485116,-0.00854,0.39326000000000005,-0.54208,19.5,0,0,0,0,0,33.574921875,213584,100,695.662002676745,0
2024-03-17T15:59:32,-0.23868405434999998,0.2069791549,10.106086251099997,0.04306599929296009,0.0022907446432425577,-0.04718933965079669,-0.0119,0.39298,-0.5264000000000001,19.5,0,0,0,0,0,33.574921875,213584,100,695.662002676745,0
2024-03-17T15:59:32,-0.23868405434999998,0.1950150419,10.11386292455,0.04306599929296009,0.0009162978572970231,-0.0433714319120591,-0.0119,0.39298,-0.5264000000000001,19.5,0,0,0,0,0,33.574921875,213584,100,695.662002676745,0
2024-03-17T15:59:32,-0.25663022385,0.2105683888,10.10668445675,0.040317105721069016,0.0016798794050445422,-0.04566217655530165,-0.00602,0.3960600000000001,-0.53284,19.5,0,0,0,0,0,33.574921875,213584,100,695.662002676745,0
2024-03-17T15:59:32,-0.24765713909999998,0.19142580799999998,10.078568791199999,0.04123340357836604,-0.0013744467859455349,-0.04520402762665314,-0.00574,0.4011,-0.5150600000000001,19.5,0,0,0,0,0,33.574921875,213584,100,695.662002676745,0
2024-03-17T15:59:32,-0.26620151425,0.22552353004999998,10.105488045449999,0.03741549583962844,0.0007635815477475193,-0.04459316238845512,-0.00574,0.4011,-0.5150600000000001,19.5,0,0,0,0,0,33.574921875,213584,100,695.662002676745,0
2024-03-17T15:59:32,-0.26261228035,0.21296121140000002,10.092327521149999,0.041691552507014555,0.0036651914291880926,-0.049938233222687756,-0.0054600000000000004,0.39522,-0.53102,19.5,0,0,0,0,0,25.0512890625,46052,17.678572134412114,998.8529796846084,0
2024-03-17T15:59:32,-0.22432711874999997,0.19920248144999997,10.109077279349998,0.04230241774521256,-0.004886921905584123,-0.0476474885794452,-0.01246,0.3899,-0.5404000000000001,19.5,0,0,0,0,0,25.0512890625,46052,17.678572134412114,998.8529796846084,0
2024-03-17T15:59:32,-0.25423740125,0.19680965884999999,10.1431750014,0.038789942625573975,-0.0033597588100890844,-0.040622538340168025,-0.006300000000000001,0.39046000000000003,-0.5432,19.5,0,0,0,0,0,25.0512890625,46052,17.678572134412114,998.8529796846084,0
2024-03-17T15:59:32,-0.26261228035,0.19441683624999997,10.060024416049998,0.04382958084070761,-0.005345070834232635,-0.04077525464971753,-0.006860000000000001,0.39158000000000004,-0.5346600000000001,19.5,0,0,0,0,0,25.0512890625,46052,17.678572134412114,998.8529796846084,0
2024-03-17T15:59:32,-0.2596212521,0.20458633229999998,10.12104139235,0.04153883619746505,-0.00473420559603462,-0.04291328298341058,-0.006860000000000001,0.39158000000000004,-0.5346600000000001,19.5,0,0,0,0,0,25.0512890625,46052,17.678572134412114,998.8529796846084,0
2024-03-17T15:59:33,-0.22313070744999997,0.20458633229999998,10.0474620974,0.038331793696925465,-0.003054326190990077,-0.048258353817643214,-0.013300000000000001,0.39298,-0.5292,19.5,0,0,0,0,0,25.0512890625,46052,17.678572134412114,998.8529796846084,0
2024-03-17T15:59:33,-0.2703889538,0.21475582835,10.050453125649998,0.041386119887915546,-0.0033597588100890844,-0.04382958084070761,-0.01106,0.3977400000000001,-0.5437600000000001,19.5,0,0,0,0,0,25.0512890625,46052,17.678572134412114,998.8529796846084,0
2024-03-17T15:59:33,-0.27577280465,0.21296121140000002,10.086943670299998,0.041691552507014555,-0.0007635815477475193,-0.04627304179349966,-0.01106,0.3977400000000001,-0.5437600000000001,19.5,0,0,0,0,0,25.29875,61221,17.742702769437333,998.8319746979075,0
2024-03-17T15:59:33,-0.2596212521,0.20877377184999998,10.060622621699999,0.039553524173321496,-0.00473420559603462,-0.041386119887915546,-0.010500000000000002,0.39242,-0.5324200000000001,19.5,0,0,0,0,0,25.29875,61221,17.742702769437333,998.8319746979075,0
2024-03-17T15:59:33,-0.2667997199,0.22971096959999998,10.131809094049999,0.043676864531158106,-0.0044287729769356115,-0.04291328298341058,-0.010500000000000002,0.39242,-0.5324200000000001,19.5,0,0,0,0,0,25.29875,61221,17.742702769437333,998.8319746979075,0
2024-03-17T15:59:33,-0.25722842949999997,0.22193429615000002,10.07318494035,0.04077525464971753,-0.0007635815477475193,-0.043982297150257116,-0.004340000000000001,0.39858000000000005,-0.5341,19.5,0,0,0,0,0,25.29875,61221,17.742702769437333,998.8319746979075,0
2024-03-17T15:59:33,-0.24945175605,0.19860427579999998,10.096514960699999,0.040317105721069016,-0.0022907446432425577,-0.04214970143566306,-0.012180000000000002,0.39746000000000004,-0.53508,19.5,0,0,0,0,0,25.29875,61221,17.742702769437333,998.8319746979075,0
2024-03-17T15:59:33,-0.23928225999999997,0.19262221929999998,10.107880868049998,0.041844268816564056,-0.0009162978572970231,-0.04291328298341058,-0.012180000000000002,0.39746000000000004,-0.53508,19.5,0,0,0,0,0,25.29875,61221,17.742702769437333,998.8319746979075,0
2024-03-17T15:59:33,-0.25543381255,0.20997018315,10.07318494035,0.04153883619746505,0.0018325957145940463,-0.041691552507014555,-0.013580000000000002,0.39158000000000004,-0.53956,19.5,0,0,0,0,0,25.29875,61221,17.742702769437333,998.8319746979075,0
2024-03-17T15:59:33,-0.23030917524999997,0.18544375149999998,10.09352393245,0.038484510006474966,-0.003970624048287101,-0.041844268816564056,-0.009380000000000001,0.39214000000000004,-0.5338200000000001,19.5,0,0,0,0,0,25.659296875,74392,17.81308959578208,998.832494533922,0
2024-03-17T15:59:33,-0.2679961312,0.20817556619999997,10.121639597999998,0.040317105721069016,-0.004581489286485115,-0.04566217655530165,-0.01106,0.39102000000000003,-0.5405400000000001,19.5,0,0,0,0,0,25.659296875,74392,17.81308959578208,998.832494533922,0
2024-03-17T15:59:33,-0.25902304644999996,0.20039889274999997,10.23589687715,0.04214970143566306,-0.0003054326190990077,-0.04245513405476207,-0.0018200000000000002,0.39886,-0.54208,19.5,0,1154,597,383,1977,25.659296875,74392,17.81308959578208,998.832494533922,0
2024-03-17T15:59:33,-0.24945175605,0.19980068709999999,10.0953185494,0.043982297150257116,0.0009162978572970231,-0.04077525464971753,-0.0018200000000000002,0.39886,-0.54208,19.5,0,1154,597,383,1977,25.659296875,74392,17.81308959578208,998.832494533922,0
2024-03-17T15:59:33,-0.29012974025,0.20937197749999997,10.085747258999998,0.04291328298341058,-0.00045814892864851157,-0.04612032548395016,-0.0029400000000000003,0.39354,-0.5402600000000001,19.5,0,1154,597,383,1977,25.659296875,74392,17.81308959578208,998.832494533922,0
2024-03-17T15:59:33,-0.3002992363,0.20458633229999998,10.138987561849998,0.04260785036431157,-0.005345070834232635,-0.0433714319120591,-0.0037800000000000004,0.39326000000000005,-0.5271,19.5,0,1154,597,383,1977,25.659296875,74392,17.81308959578208,998.832494533922,0
2024-03-17T15:59:33,-0.23030917524999997,0.20997018315,10.127621654499999,0.041080687268816536,0.00045814892864851157,-0.041844268816564056,-0.0037800000000000004,0.39326000000000005,-0.5271,19.5,0,1154,597,383,1977,25.659296875,74392,17.81308959578208,998.832494533922,0
2024-03-17T15:59:33,-0.2644068973,0.21714865095,10.087541875949999,0.041691552507014555,-0.0016798794050445422,-0.043982297150257116,-0.007420000000000001,0.39186,-0.5440400000000001,19.5,0,1154,597,383,1977,26.04484375,85556,17.854440834837597,998.8463360175157,0
2024-03-17T15:59:33,-0.2775674216,0.19621145319999997,10.089934698549998,0.041691552507014555,0.00015271630954950385,-0.04413501345980661,-0.0054600000000000004,0.39298,-0.53438,19.5,0,1154,597,383,1977,26.04484375,85556,17.854440834837597,998.8463360175157,0
2024-03-17T15:59:33,-0.2656033086,0.20997018315,10.07318494035,0.07788531787024697,-0.004123340357836604,-0.04642575810304917,-0.00266,0.39046000000000003,-0.53788,19.5,0,1154,597,383,1977,26.04484375,85556,17.854440834837597,998.8463360175157,0
2024-03-17T15:59:33,-0.23150558654999998,0.19740786449999997,10.125228831899998,0.04474587869800463,-0.0036651914291880926,-0.04489859500755413,-0.00266,0.39354,-0.5220600000000001,19.5,0,1154,597,383,1977,26.04484375,85556,17.854440834837597,998.8463360175157,0
2024-03-17T15:59:33,-0.25124637299999997,0.19680965884999999,10.052247742599999,0.04489859500755413,-0.002901609881440573,-0.04505131131710364,-0.00266,0.39354,-0.5220600000000001,19.5,0,1154,597,383,1977,26.04484375,85556,17.854440834837597,998.8463360175157,0
2024-03-17T15:59:33,-0.24047867129999997,0.1890329854,10.1024970172,0.04001167310197001,-0.0007635815477475193,-0.04489859500755413,-0.00602,0.39130000000000004,-0.52836,19.5,0,1154,597,383,1977,26.04484375,85556,17.854440834837597,998.8463360175157,0
2024-03-17T15:59:33,-0.27337998204999997,0.18723836844999997,10.0893364929,0.041080687268816536,0.001069014166846527,-0.04306599929296009,-0.007980000000000001,0.3983,-0.53256,19.5,0,1154,597,383,1977,26.04484375,85556,17.854440834837597,998.8463360175157,0
2024-03-17T15:59:33,-0.24227328824999997,0.20757736054999998,10.07318494035,0.04382958084070761,-0.002138028333693054,-0.04688390703169768,-0.007980000000000001,0.3983,-0.53256,19.5,0,1154,597,383,1977,26.413203125,95317,17.88987417864316,998.8405269887712,0
2024-03-17T15:59:33,-0.25304098994999996,0.19561324754999998,10.080961613799998,0.07803803417979646,-0.0016798794050445422,-0.04612032548395016,-0.00966,0.4019400000000001,-0.53732,19.5,0,1154,597,383,1977,26.413203125,95317,17.88987417864316,998.8405269887712,0
2024-03-17T15:59:33,-0.23330020349999997,0.20997018315,10.0546405652,0.0433714319120591,-0.003054326190990077,-0.041691552507014555,-0.00966,0.4019400000000001,-0.53732,19.5,0,1154,597,383,1977,26.413203125,95317,17.88987417864316,998.8405269887712,0
2024-03-17T15:59:33,-0.2703889538,0.20398812665,10.07318494035,0.04153883619746505,-0.0022907446432425577,-0.0435241482216086,-0.0035000000000000005,0.39102000000000003,-0.5294800000000001,19.5,0,1154,597,383,1977,26.413203125,95317,17.88987417864316,998.8405269887712,0
2024-03-17T15:59:33,-0.27457639335,0.19202401365,10.091729315499999,0.040317105721069016,-0.0027488935718910697,-0.043982297150257116,-0.0037800000000000004,0.39802000000000004,-0.5348,19.5,0,1154,597,383,1977,26.413203125,95317,17.88987417864316,998.8405269887712,0
2024-03-17T15:59:33,-0.2524427843,0.1782652837,10.12223780365,0.04001167310197001,-0.004886921905584123,-0.04535674393620265,-0.0037800000000000004,0.39802000000000004,-0.5348,19.5,0,1154,597,383,1977,26.413203125,95317,17.88987417864316,998.8405269887712,0
2024-03-17T15:59:33,-0.24705893344999996,0.2237289131,10.131809094049999,0.0433714319120591,-0.00595593607243065,-0.043676864531158106,-0.009940000000000001,0.3983,-0.5287800000000001,19.5,0,1154,597,383,1977,26.413203125,95317,17.88987417864316,998.8405269887712,0
2024-03-17T15:59:33,-0.25423740125,0.2237289131,10.1132647189,0.040317105721069016,-0.003054326190990077,-0.043676864531158106,-0.00854,0.39074000000000003,-0.5252800000000001,19.5,0,1154,597,383,1977,26.74796875,101412,17.918457644917744,998.8473573083721,0
2024-03-17T15:59:33,-0.24825534474999997,0.19680965884999999,10.085747258999998,0.04245513405476207,-0.0012217304763960308,-0.04596760917440065,-0.01106,0.39578,-0.5188400000000001,19.5,0,1154,597,383,1977,26.74796875,101412,17.918457644917744,998.8473573083721,0
2024-03-17T15:59:33,-0.24406790519999996,0.20159530404999998,10.048658508699999,0.04444044607890562,-0.0015271630954950385,-0.04550946024575215,-0.012740000000000001,0.39186,-0.5286400000000001,19.5,0,1154,597,383,1977,26.74796875,101412,17.918457644917744,998.8473573083721,0
2024-03-17T15:59:33,-0.23270199784999998,0.23808584869999996,10.046863891749998,0.0476474885794452,-0.0035124751196385882,-0.043982297150257116,-0.012740000000000001,0.39186,-0.5286400000000001,19.5,0,1154,597,383,1977,26.74796875,101412,17.918457644917744,998.8473573083721,0
2024-03-17T15:59:33,-0.24526431649999997,0.21355941705,10.1120683076,0.04230241774521256,-0.002901609881440573,-0.043982297150257116,-0.014420000000000002,0.39326000000000005,-0.5229000000000001,19.5,0,1154,597,383,1977,26.74796875,101412,17.918457644917744,998.8473573083721,0
2024-03-17T15:59:33,-0.26500510294999996,0.20937197749999997,10.08036340815,0.03756821214917795,-0.0016798794050445422,-0.04382958084070761,-0.0119,0.39634,-0.5462800000000001,19.5,0,1154,597,383,1977,26.74796875,101412,17.918457644917744,998.8473573083721,0
2024-03-17T15:59:33,-0.25124637299999997,0.18305092890000002,10.1132647189,0.04092797095926703,-0.004886921905584123,-0.04276056667386108,-0.0119,0.39634,-0.5462800000000001,19.5,0,1154,597,383,1977,26.74796875,101412,17.918457644917744,998.8473573083721,0
2024-03-17T15:59:33,-0.2679961312,0.18424734019999997,10.134800122299998,0.04230241774521256,-0.0044287729769356115,-0.041386119887915546,-0.007980000000000001,0.4019400000000001,-0.5429200000000001,19.5,0,1154,597,383,1977,27.044453125,108731,17.929669289824254,998.8558159979276,0
2024-03-17T15:59:34,-0.2584248408,0.20757736054999998,10.08634546465,0.04153883619746505,0.0009162978572970231,-0.041691552507014555,-0.015260000000000001,0.3977400000000001,-0.5397000000000001,19.5,0,1144,585,380,1966,27.044453125,108731,17.929669289824254,998.8558159979276,0
2024-03-17T15:59:34,-0.24825534474999997,0.18544375149999998,10.101898811549999,0.04046982203061852,-0.0012217304763960308,-0.04428772976935611,-0.007420000000000001,0.40082000000000007,-0.5367600000000001,19.5,0,1144,585,380,1966,27.044453125,108731,17.929669289824254,998.8558159979276,0
2024-03-17T15:59:34,-0.3038884702,0.21834506225,10.069595706449999,0.03726277953007894,-0.003054326190990077,-0.0433714319120591,-0.00882,0.39046000000000003,-0.52556,19.5,0,1144,585,380,1966,27.044453125,108731,17.929669289824254,998.8558159979276,0
2024-03-17T15:59:34,-0.28295127244999996,0.2105683888,10.0414800409,0.04046982203061852,-0.0070249502392771765,-0.04016438941151951,-0.00882,0.39046000000000003,-0.52556,19.5,0,1144,585,380,1966,27.044453125,108731,17.929669289824254,998.8558159979276,0
2024-03-17T15:59:34,-0.23868405434999998,0.19680965884999999,10.24546816755,0.04214970143566306,-0.0024434609527920616,-0.04413501345980661,-0.012180000000000002,0.39578,-0.5286400000000001,19.5,0,1144,585,380,1966,27.044453125,108731,17.929669289824254,998.8558159979276,0
2024-03-17T15:59:34,-0.22851455829999998,0.20338992099999997,10.091729315499999,0.041844268816564056,0.0006108652381980154,-0.04581489286485116,-0.00322,0.40026000000000006,-0.53634,19.5,0,1144,585,380,1966,27.044453125,108731,17.929669289824254,998.8558159979276,0
2024-03-17T15:59:34,-0.2548356069,0.20338992099999997,10.04088183525,0.04321871560250959,-0.0012217304763960308,-0.04428772976935611,-0.00322,0.40026000000000006,-0.53634,19.5,0,1144,585,380,1966,27.3032421875,114796,17.94395432391491,998.8527204251965,0
2024-03-17T15:59:34,-0.2703889538,0.2117648001,10.07916699685,0.041386119887915546,-0.0003054326190990077,-0.04474587869800463,0.0015400000000000001,0.39690000000000003,-0.53662,19.5,0,1144,585,380,1966,27.3032421875,114796,17.94395432391491,998.8527204251965,0
2024-03-17T15:59:34,-0.2584248408,0.2237289131,10.091729315499999,0.04230241774521256,-0.005803219762881146,-0.041691552507014555,0.0015400000000000001,0.39690000000000003,-0.53662,19.5,0,1144,585,380,1966,27.3032421875,114796,17.94395432391491,998.8527204251965,0
2024-03-17T15:59:34,-0.22671994134999998,0.18185451760000002,10.08155981945,0.037110063220529434,0.00015271630954950385,-0.049327367984489744,-0.004340000000000001,0.39690000000000003,-0.52192,19.5,0,1144,585,380,1966,27.3032421875,114796,17.94395432391491,998.8527204251965,0
2024-03-17T15:59:34,-0.25543381255,0.19561324754999998,10.1048898398,0.04276056667386108,-0.00595593607243065,-0.04444044607890562,-0.006580000000000001,0.39914000000000005,-0.52808,19.5,0,1144,585,380,1966,27.3032421875,114796,17.94395432391491,998.8527204251965,0
2024-03-17T15:59:34,-0.27337998204999997,0.22492532440000002,10.109675485,0.04703662334124718,-0.004123340357836604,-0.04596760917440065,-0.006580000000000001,0.39914000000000005,-0.52808,19.5,0,1144,585,380,1966,27.3032421875,114796,17.94395432391491,998.8527204251965,0
2024-03-17T15:59:34,-0.28474588939999995,0.18544375149999998,10.11745215845,0.041080687268816536,-0.00473420559603462,-0.04276056667386108,-0.006300000000000001,0.39186,-0.5369,19.5,0,1144,585,380,1966,27.3032421875,114796,17.94395432391491,998.8527204251965,0
2024-03-17T15:59:34,-0.23688943739999999,0.20997018315,10.07916699685,0.04276056667386108,-0.0024434609527920616,-0.04810563750809371,-0.006860000000000001,0.3896200000000001,-0.5317200000000001,19.5,0,1144,585,380,1966,27.52765625,119681,17.935893504119626,998.8560790825724,0
2024-03-17T15:59:34,-0.2620140747,0.19860427579999998,10.23350405455,0.04291328298341058,-0.005192354524683131,-0.04245513405476207,-0.00882,0.39214000000000004,-0.5311600000000001,19.5,0,1144,585,380,1966,27.52765625,119681,17.935893504119626,998.8560790825724,0
2024-03-17T15:59:34,-0.24466611084999998,0.19980068709999999,10.107880868049998,0.04321871560250959,-0.0012217304763960308,-0.04673119072214818,-0.018060000000000003,0.39858000000000005,-0.5451600000000001,19.5,0,1144,585,380,1966,27.52765625,119681,17.935893504119626,998.8560790825724,0
2024-03-17T15:59:34,-0.26321048599999997,0.21894326790000002,10.0462656861,0.04627304179349966,-0.0012217304763960308,-0.043982297150257116,-0.018060000000000003,0.39858000000000005,-0.5451600000000001,19.5,0,1144,585,380,1966,27.52765625,119681,17.935893504119626,998.8560790825724,0
2024-03-17T15:59:34,-0.26261228035,0.20578274359999998,10.137192944899999,0.04123340357836604,-0.002901609881440573,-0.04413501345980661,-0.006580000000000001,0.3899,-0.5404000000000001,19.5,0,1144,585,380,1966,27.52765625,119681,17.935893504119626,998.8560790825724,0
2024-03-17T15:59:34,-0.25124637299999997,0.20219350969999997,10.106086251099997,0.040622538340168025,-0.0006108652381980154,-0.04673119072214818,-0.010780000000000001,0.4030600000000001,-0.5455800000000001,19.5,0,1144,585,380,1966,27.52765625,119681,17.935893504119626,998.8560790825724,0
2024-03-17T15:59:34,-0.2536391956,0.21714865095,10.0905329042,0.04260785036431157,-0.0006108652381980154,-0.04550946024575215,-0.010780000000000001,0.4030600000000001,-0.5455800000000001,19.5,0,1144,585,380,1966,27.52765625,119681,17.935893504119626,998.8560790825724,0
2024-03-17T15:59:34,-0.23629123174999997,0.19980068709999999,10.039087218299999,0.038789942625573975,-0.0033597588100890844,-0.04260785036431157,-0.009940000000000001,0.39802000000000004,-0.5385800000000001,19.5,0,1144,585,380,1966,27.7204296875,123899,17.920964896012485,998.8632890043081,0
2024-03-17T15:59:34,-0.2620140747,0.20937197749999997,10.107880868049998,0.0357356164345839,-0.0007635815477475193,-0.04321871560250959,-0.007420000000000001,0.38654,-0.5430600000000001,19.5,0,1144,585,380,1966,27.7204296875,123899,17.920964896012485,998.8632890043081,0
2024-03-17T15:59:34,-0.24227328824999997,0.19920248144999997,10.0821580251,0.04046982203061852,-0.0015271630954950385,-0.04382958084070761,-0.007420000000000001,0.38654,-0.5430600000000001,19.5,0,1144,585,380,1966,27.7204296875,123899,17.920964896012485,998.8632890043081,0
2024-03-17T15:59:34,-0.24945175605,0.19561324754999998,10.209575828550001,0.04444044607890562,-0.0006108652381980154,-0.043676864531158106,-0.011620000000000002,0.3971800000000001,-0.54278,19.5,0,1144,585,380,1966,27.7204296875,123899,17.920964896012485,998.8632890043081,0
2024-03-17T15:59:34,-0.24586252214999998,0.20279171534999998,10.087541875949999,0.038789942625573975,-0.004123340357836604,-0.04321871560250959,-0.011620000000000002,0.39942,-0.53956,19.5,0,1144,585,380,1966,27.7204296875,123899,17.920964896012485,998.8632890043081,0
2024-03-17T15:59:34,-0.27577280465,0.18544375149999998,10.06720288385,0.04016438941151951,-0.006108652381980154,-0.04520402762665314,-0.011620000000000002,0.39942,-0.53956,19.5,0,1144,585,380,1966,27.7204296875,123899,17.920964896012485,998.8632890043081,0
2024-03-17T15:59:34,-0.2620140747,0.2165504453,10.0725867347,0.04276056667386108,-0.0024434609527920616,-0.04459316238845512,-0.005180000000000001,0.40054,-0.5349400000000001,19.5,0,1144,585,380,1966,27.7204296875,123899,17.920964896012485,998.8632890043081,0
2024-03-17T15:59:34,-0.2560320182,0.2177468566,10.105488045449999,0.04016438941151951,-0.00045814892864851157,-0.04382958084070761,-0.007700000000000001,0.39746000000000004,-0.52122,19.5,0,1144,585,380,1966,27.8876171875,127262,17.909739437338004,998.8628052003069,0
2024-03-17T15:59:34,-0.28534409504999997,0.20638094924999997,10.088738287249999,0.039400807863771994,-0.002138028333693054,-0.04642575810304917,-0.01022,0.39046000000000003,-0.5275200000000001,19.5,0,1119,557,372,1935,27.8876171875,127262,17.909739437338004,998.8628052003069,0
2024-03-17T15:59:34,-0.24167508259999998,0.17527425545,10.089934698549998,0.0476474885794452,-0.005039638215133627,-0.04535674393620265,-0.011620000000000002,0.39858000000000005,-0.5294800000000001,19.5,0,1119,557,372,1935,27.8876171875,127262,17.909739437338004,998.8628052003069,0
2024-03-17T15:59:34,-0.2656033086,0.20159530404999998,10.0953185494,0.04291328298341058,-0.004276056667386108,-0.04230241774521256,-0.011620000000000002,0.39858000000000005,-0.5294800000000001,19.5,0,1119,557,372,1935,27.8876171875,127262,17.909739437338004,998.8628052003069,0
2024-03-17T15:59:34,-0.26739792554999997,0.19561324754999998,10.10309522285,0.04306599929296009,0.0009162978572970231,-0.04520402762665314,-0.010500000000000002,0.39942,-0.5376000000000001,19.5,0,1119,557,372,1935,27.8876171875,127262,17.909739437338004,998.8628052003069,0
2024-03-17T15:59:34,-0.25423740125,0.22432711874999997,10.122836009299998,0.07773260156069746,0.0003054326190990077,-0.04245513405476207,-0.01414,0.39942,-0.52962,19.5,0,1119,557,372,1935,27.8876171875,127262,17.909739437338004,998.8628052003069,0
2024-03-17T15:59:34,-0.25423740125,0.1698904046,10.157531936999998,0.03756821214917795,-0.0038179077387375964,-0.04291328298341058,-0.01414,0.39942,-0.52962,19.5,0,1119,557,372,1935,27.8876171875,127262,17.909739437338004,998.8628052003069,0
2024-03-17T15:59:34,-0.2703889538,0.19262221929999998,10.251450224049998,0.04321871560250959,-0.0038179077387375964,-0.04444044607890562,0.0012600000000000003,0.4025000000000001,-0.5362,19.5,0,1119,557,372,1935,28.0315625,131425,17.897225381924716,998.869205611459,0
2024-03-17T15:59:34,-0.28713871199999996,0.2141576227,10.09950598895,0.04718933965079669,-0.0016798794050445422,-0.0435241482216086,-0.013020000000000002,0.39270000000000005,-0.5370400000000001,19.5,0,1119,557,372,1935,28.0315625,131425,17.897225381924716,998.869205611459,0
2024-03-17T15:59:34,-0.27517459899999996,0.215354034,10.06122082735,0.036193765363232405,-0.0027488935718910697,-0.0433714319120591,-0.006300000000000001,0.39494000000000007,-0.5334000000000001,19.5,0,1119,557,372,1935,28.0315625,131425,17.897225381924716,998.869205611459,0
2024-03-17T15:59:34,-0.25124637299999997,0.2117648001,10.25623586925,0.04153883619746505,-0.0015271630954950385,-0.04306599929296009,-0.012740000000000001,0.39242,-0.5321400000000001,19.5,0,1119,557,372,1935,28.0315625,131425,17.897225381924716,998.869205611459,0
2024-03-17T15:59:34,-0.26919254249999996,0.20398812665,10.080961613799998,0.039400807863771994,-0.002901609881440573,-0.04306599929296009,-0.012740000000000001,0.39242,-0.5321400000000001,19.5,0,1119,557,372,1935,28.0315625,131425,17.897225381924716,998.869205611459,0
2024-03-17T15:59:34,-0.24885355039999998,0.21834506225,10.0905329042,0.04321871560250959,-0.0013744467859455349,-0.041386119887915546,-0.01414,0.39438000000000006,-0.54208,19.5,0,1119,557,372,1935,28.0315625,131425,17.897225381924716,998.869205611459,0
2024-03-17T15:59:35,-0.26620151425,0.21894326790000002,10.04985492,0.04321871560250959,-0.003970624048287101,-0.04596760917440065,-0.00042,0.40138000000000007,-0.53522,19.5,0,1119,557,372,1935,28.0315625,131425,17.897225381924716,998.869205611459,0
2024-03-17T15:59:35,-0.28235306679999994,0.22193429615000002,10.091729315499999,0.03756821214917795,-0.0013744467859455349,-0.04291328298341058,-0.00042,0.40138000000000007,-0.53522,19.5,0,1119,557,372,1935,28.1567578125,134569,17.858051900497728,998.8719409383843,0
2024-03-17T15:59:35,-0.2596212521,0.2237289131,10.08634546465,0.04092797095926703,-0.003207042500539581,-0.04780020488899471,-0.0119,0.40138000000000007,-0.5415200000000001,19.5,0,1119,557,372,1935,28.1567578125,134569,17.858051900497728,998.8719409383843,0
2024-03-17T15:59:35,-0.24287149389999999,0.19740786449999997,10.07438135165,0.04489859500755413,-0.0068722339297276735,-0.04306599929296009,-0.0119,0.40138000000000007,-0.5415200000000001,19.5,0,1119,557,372,1935,28.1567578125,134569,17.858051900497728,998.8719409383843,0
2024-03-17T15:59:35,-0.2560320182,0.2237289131,10.1001041946,0.043676864531158106,-0.0027488935718910697,-0.04489859500755413,-0.009100000000000002,0.39578,-0.5341,19.5,0,1119,557,372,1935,28.1567578125,134569,17.858051900497728,998.8719409383843,0
2024-03-17T15:59:35,-0.2739781877,0.20039889274999997,10.119246775399999,0.04276056667386108,0.0007635815477475193,-0.0435241482216086,-0.00966,0.40082000000000007,-0.54096,19.5,0,1119,557,372,1935,28.1567578125,134569,17.858051900497728,998.8719409383843,0
2024-03-17T15:59:35,-0.24825534474999997,0.21475582835,10.07318494035,0.04382958084070761,-0.0018325957145940463,-0.0474947722698957,-0.00966,0.40082000000000007,-0.54096,19.5,0,1119,557,372,1935,28.1567578125,134569,17.858051900497728,998.8719409383843,0
2024-03-17T15:59:35,-0.25304098994999996,0.20219350969999997,10.097711372000001,0.04612032548395016,-0.004581489286485115,-0.040622538340168025,-0.009940000000000001,0.39522,-0.5369,19.5,0,1119,557,372,1935,28.1567578125,134569,17.858051900497728,998.8719409383843,0
2024-03-17T15:59:35,-0.23928225999999997,0.20638094924999997,10.0546405652,0.039400807863771994,-0.0012217304763960308,-0.04306599929296009,-0.009100000000000002,0.3941,-0.5474000000000001,19.5,0,1119,557,372,1935,28.2657421875,137195,17.85384039884691,998.8680025306087,0
2024-03-17T15:59:35,-0.24586252214999998,0.21475582835,10.110871896299999,0.04306599929296009,-0.0024434609527920616,-0.04581489286485116,-0.014420000000000002,0.39942,-0.5369,19.5,0,1119,557,372,1935,28.2657421875,137195,17.85384039884691,998.8680025306087,0
2024-03-17T15:59:35,-0.24765713909999998,0.20997018315,10.08634546465,0.03787364476827696,0.0,-0.04444044607890562,-0.0035000000000000005,0.3960600000000001,-0.52514,19.5,0,1119,557,372,1935,28.2657421875,137195,17.85384039884691,998.8680025306087,0
2024-03-17T15:59:35,-0.28534409504999997,0.18424734019999997,10.151549880500001,0.04214970143566306,-0.0025961772623415654,-0.047952921198544204,-0.0035000000000000005,0.3960600000000001,-0.52514,19.5,0,1119,557,372,1935,28.2657421875,137195,17.85384039884691,998.8680025306087,0
2024-03-17T15:59:35,-0.27517459899999996,0.1878365741,10.050453125649998,0.041844268816564056,0.0012217304763960308,-0.04718933965079669,-0.0037800000000000004,0.39326000000000005,-0.53872,19.5,0,1119,557,372,1935,28.2657421875,137195,17.85384039884691,998.8680025306087,0
2024-03-17T15:59:35,-0.24825534474999997,0.20219350969999997,9.9577312499,0.04321871560250959,-0.0012217304763960308,-0.04535674393620265,-0.018340000000000002,0.40138000000000007,-0.5334000000000001,19.5,0,1119,557,372,1935,28.2657421875,137195,17.85384039884691,998.8680025306087,0
2024-03-17T15:59:35,-0.24646072779999997,0.20039889274999997,10.08634546465,0.04291328298341058,-0.002138028333693054,-0.048258353817643214,-0.018340000000000002,0.40138000000000007,-0.5334000000000001,19.5,0,1119,557,372,1935,28.2657421875,137195,17.85384039884691,998.8680025306087,0
2024-03-17T15:59:35,-0.23569302609999998,0.20518453794999997,10.04207824655,0.04123340357836604,-0.0025961772623415654,-0.04886921905584123,-0.006860000000000001,0.3899,-0.55034,19.5,0,1119,557,372,1935,28.36125,139003,17.813012507011447,998.8654200326278,0
2024-03-17T15:59:35,-0.25423740125,0.20937197749999997,10.089934698549998,0.040317105721069016,0.0013744467859455349,-0.04520402762665314,0.0009800000000000002,0.39746000000000004,-0.5327000000000001,19.5,0,1112,552,370,1925,28.36125,139003,17.813012507011447,998.8654200326278,0
2024-03-17T15:59:35,-0.2656033086,0.20039889274999997,10.097711372000001,0.041386119887915546,-0.004123340357836604,-0.04520402762665314,0.006300000000000001,0.3941,-0.5429200000000001,19.5,0,1112,552,370,1925,28.36125,139003,17.813012507011447,998.8654200326278,0
2024-03-17T15:59:35,-0.25064816735,0.20219350969999997,10.134800122299998,0.039095375244672985,-0.002138028333693054,-0.04382958084070761,0.0007000000000000001,0.4025000000000001,-0.53144,19.5,0,1112,552,370,1925,28.36125,139003,17.813012507011447,998.8654200326278,0
2024-03-17T15:59:35,-0.25663022385,0.24107687694999996,10.133603711,0.041691552507014555,0.0013744467859455349,-0.048258353817643214,0.0007000000000000001,0.4025000000000001,-0.53144,19.5,0,1112,552,370,1925,28.36125,139003,17.813012507011447,998.8654200326278,0
2024-03-17T15:59:35,-0.2644068973,0.2225325018,10.121639597999998,0.03772092845872745,-0.003054326190990077,-0.04718933965079669,-0.00966,0.39914000000000005,-0.5476800000000001,19.5,0,1112,552,370,1925,28.36125,139003,17.813012507011447,998.8654200326278,0
2024-03-17T15:59:35,-0.23030917524999997,0.2009970984,10.114461130199999,0.04260785036431157,-0.0003054326190990077,-0.04230241774521256,-0.0119,0.3955000000000001,-0.54656,19.5,0,1112,552,370,1925,28.36125,139003,17.813012507011447,998.8654200326278,0
2024-03-17T15:59:35,-0.26859433685,0.2237289131,10.100702400249999,0.040317105721069016,-0.002901609881440573,-0.04382958084070761,-0.0119,0.3955000000000001,-0.54656,19.5,0,1112,552,370,1925,28.4454296875,141569,17.77155712843403,998.8676931987902,0
2024-03-17T15:59:35,-0.2715853651,0.19920248144999997,9.9888379437,0.040317105721069016,-0.003054326190990077,-0.043676864531158106,-0.007420000000000001,0.39382000000000006,-0.53774,19.5,0,1112,552,370,1925,28.4454296875,141569,17.77155712843403,998.8676931987902,0
2024-03-17T15:59:35,-0.21236300575,0.19142580799999998,10.076175968599998,0.039095375244672985,-0.0006108652381980154,-0.04413501345980661,-0.007420000000000001,0.39382000000000006,-0.53774,19.5,0,1112,552,370,1925,28.4454296875,141569,17.77155712843403,998.8676931987902,0
2024-03-17T15:59:35,-0.27337998204999997,0.20398812665,10.1120683076,0.04092797095926703,-0.0009162978572970231,-0.04077525464971753,-0.00266,0.38822,-0.539,19.5,0,1112,552,370,1925,28.4454296875,141569,17.77155712843403,998.8676931987902,0
2024-03-17T15:59:35,-0.24526431649999997,0.22851455829999998,10.103693428499998,0.04230241774521256,-0.00045814892864851157,-0.04734205596034619,-0.00882,0.39130000000000004,-0.5275200000000001,19.5,0,1112,552,370,1925,28.4454296875,141569,17.77155712843403,998.8676931987902,0
2024-03-17T15:59:35,-0.24885355039999998,0.20937197749999997,10.09950598895,0.040622538340168025,-0.005345070834232635,-0.04291328298341058,-0.00882,0.39130000000000004,-0.5275200000000001,19.5,0,1112,552,370,1925,28.4454296875,141569,17.77155712843403,998.8676931987902,0
2024-03-17T15:59:35,-0.25902304644999996,0.20578274359999998,10.232307643249998,0.043982297150257116,-0.0009162978572970231,-0.0433714319120591,-0.00882,0.3941,-0.5408200000000001,19.5,0,1112,552,370,1925,28.4454296875,141569,17.77155712843403,998.8676931987902,0
2024-03-17T15:59:35,-0.26261228035,0.23449661479999998,10.0773723799,0.041386119887915546,-0.0033597588100890844,-0.04642575810304917,-0.00042,0.39130000000000004,-0.53074,19.5,0,1112,552,370,1925,28.5184765625,144602,17.7294878114876,998.8662077484737,0
2024-03-17T15:59:35,-0.28474588939999995,0.21714865095,10.07318494035,0.03924809155422249,-0.0016798794050445422,-0.04291328298341058,-0.01414,0.39438000000000006,-0.53074,19.5,0,1112,552,370,1925,28.5184765625,144602,17.7294878114876,998.8662077484737,0
2024-03-17T15:59:35,-0.28414768374999994,0.21954147355,10.1288180658,0.043676864531158106,0.0018325957145940463,-0.04673119072214818,-0.00854,0.3955000000000001,-0.54166,19.5,0,1112,552,370,1925,28.5184765625,144602,17.7294878114876,998.8662077484737,0
2024-03-17T15:59:35,-0.2739781877,0.1878365741,10.057033387799999,0.04153883619746505,0.0018325957145940463,-0.043982297150257116,-0.00854,0.3955000000000001,-0.50582,19.5,0,1112,552,370,1925,28.5184765625,144602,17.7294878114876,998.8662077484737,0
2024-03-17T15:59:35,-0.22731814699999997,0.20638094924999997,10.180263751699998,0.038789942625573975,-0.0027488935718910697,-0.04276056667386108,-0.004900000000000001,0.38542000000000004,-0.5286400000000001,19.5,0,1112,552,370,1925,28.5184765625,144602,17.7294878114876,998.8662077484737,0
2024-03-17T15:59:35,-0.2560320182,0.2009970984,10.103693428499998,0.04444044607890562,-0.00946841119206924,-0.04703662334124718,-0.0009800000000000002,0.38430000000000003,-0.53508,19.5,0,1112,552,370,1925,28.5184765625,144602,17.7294878114876,998.8662077484737,0
2024-03-17T15:59:35,-0.25663022385,0.20458633229999998,10.088738287249999,0.04214970143566306,-0.003054326190990077,-0.041386119887915546,-0.0071400000000000005,0.39494000000000007,-0.5276600000000001,19.5,0,1112,552,370,1925,28.5184765625,144602,17.7294878114876,998.8662077484737,0
2024-03-17T15:59:35,-0.25124637299999997,0.20458633229999998,10.077970585549998,0.04276056667386108,-0.0035124751196385882,-0.04413501345980661,-0.0071400000000000005,0.39494000000000007,-0.5276600000000001,19.5,0,1112,552,370,1925,28.582734375,145851,17.702299957285533,998.8629817978332,0
2024-03-17T15:59:35,-0.26859433685,0.2225325018,10.097113166349997,0.04520402762665314,-0.00015271630954950385,-0.04780020488899471,0.004900000000000001,0.3983,-0.54334,19.5,0,1112,552,370,1925,28.582734375,145851,17.702299957285533,998.8629817978332,0
2024-03-17T15:59:36,-0.28534409504999997,0.20219350969999997,10.098907783299998,0.04016438941151951,-0.006108652381980154,-0.04459316238845512,-0.00266,0.38682000000000005,-0.5355,19.5,0,1112,552,370,1925,28.582734375,145851,17.702299957285533,998.8629817978332,0
2024-03-17T15:59:36,-0.22911276394999996,0.19680965884999999,10.037890806999998,0.04260785036431157,0.0018325957145940463,-0.038637226316024474,-0.00462,0.3971800000000001,-0.5381600000000001,19.5,0,1112,552,370,1925,28.582734375,145851,17.702299957285533,998.8629817978332,0
2024-03-17T15:59:36,-0.24885355039999998,0.19920248144999997,10.06839929515,0.04428772976935611,-0.005039638215133627,-0.04489859500755413,-0.006580000000000001,0.39270000000000005,-0.5376000000000001,19.5,0,1112,552,370,1925,28.582734375,145851,17.702299957285533,998.8629817978332,0
2024-03-17T15:59:36,-0.2703889538,0.19262221929999998,10.1084790737,0.041080687268816536,-0.003054326190990077,-0.041080687268816536,-0.006580000000000001,0.39270000000000005,-0.5376000000000001,19.5,0,1112,552,370,1925,28.582734375,145851,17.702299957285533,998.8629817978332,0
2024-03-17T15:59:36,-0.26380869165,0.19680965884999999,10.12941627145,0.041080687268816536,-0.039095375244672985,-0.04077525464971753,-0.0012600000000000003,0.39326000000000005,-0.55034,19.5,0,1112,552,370,1925,28.582734375,145851,17.702299957285533,998.8629817978332,0
2024-03-17T15:59:36,-0.22671994134999998,0.19621145319999997,10.1024970172,0.04245513405476207,-0.003207042500539581,-0.043982297150257116,-0.00882,0.39522,-0.5338200000000001,19.5,0,1112,552,370,1925,28.640546875,148026,17.654274314407015,998.870766862328,0
2024-03-17T15:59:36,-0.22851455829999998,0.19202401365,10.076774174250001,0.041386119887915546,-0.004886921905584123,-0.04428772976935611,-0.008260000000000002,0.39158000000000004,-0.5369,19.5,0,1102,546,367,1912,28.640546875,148026,17.654274314407015,998.870766862328,0
2024-03-17T15:59:36,-0.26141586904999997,0.1950150419,10.168299638699999,0.04413501345980661,-0.00015271630954950385,-0.0474947722698957,-0.008260000000000002,0.39158000000000004,-0.5369,19.5,0,1102,546,367,1912,28.640546875,148026,17.654274314407015,998.870766862328,0
2024-03-17T15:59:36,-0.26859433685,0.18963119104999998,10.05882800475,0.039095375244672985,-0.0015271630954950385,-0.04489859500755413,-0.004900000000000001,0.39074000000000003,-0.5353600000000001,19.5,0,1102,546,367,1912,28.640546875,148026,17.654274314407015,998.870766862328,0
2024-03-17T15:59:36,-0.2548356069,0.19800607015,10.094720343749998,0.038942658935123484,-0.001069014166846527,-0.0435241482216086,-0.011340000000000001,0.3890600000000001,-0.53158,19.5,0,1102,546,367,1912,28.640546875,148026,17.654274314407015,998.870766862328,0
2024-03-17T15:59:36,-0.22971096959999998,0.2141576227,10.086943670299998,0.04016438941151951,-0.004276056667386108,-0.04321871560250959,-0.011340000000000001,0.3890600000000001,-0.53158,19.5,0,1102,546,367,1912,28.640546875,148026,17.654274314407015,998.870766862328,0
2024-03-17T15:59:36,-0.24466611084999998,0.23210379219999996,10.0701939121,0.03741549583962844,-0.003207042500539581,-0.043982297150257116,0.00042,0.3896200000000001,-0.5335400000000001,19.5,0,1102,546,367,1912,28.640546875,148026,17.654274314407015,998.870766862328,0
2024-03-17T15:59:36,-0.23150558654999998,0.2237289131,10.071988529050001,0.04459316238845512,-0.0044287729769356115,-0.043982297150257116,-0.009100000000000002,0.3896200000000001,-0.5222,19.5,0,1102,546,367,1912,28.6925,149204,17.61617214695242,998.8726245673419,0
2024-03-17T15:59:36,-0.23928225999999997,0.20937197749999997,10.137791150550001,0.043982297150257116,-0.006261368691529657,-0.04520402762665314,-0.004340000000000001,0.3955000000000001,-0.53998,19.5,0,1102,546,367,1912,28.6925,149204,17.61617214695242,998.8726245673419,0
2024-03-17T15:59:36,-0.24885355039999998,0.17587246110000002,10.09830957765,0.04321871560250959,-0.0035124751196385882,-0.04657847441259867,-0.00966,0.3960600000000001,-0.5299,19.5,0,1102,546,367,1912,28.6925,149204,17.61617214695242,998.8726245673419,0
2024-03-17T15:59:36,-0.26979074815,0.19561324754999998,10.073783145999998,0.041844268816564056,-0.0022907446432425577,-0.04428772976935611,-0.008260000000000002,0.39298,-0.5404000000000001,19.5,0,1102,546,367,1912,28.6925,149204,17.61617214695242,998.8726245673419,0
2024-03-17T15:59:36,-0.29371897415,0.20877377184999998,10.105488045449999,0.041844268816564056,-0.001069014166846527,-0.04627304179349966,-0.008260000000000002,0.39298,-0.5404000000000001,19.5,0,1102,546,367,1912,28.6925,149204,17.61617214695242,998.8726245673419,0
2024-03-17T15:59:36,-0.26739792554999997,0.19980068709999999,10.024730282699998,0.04123340357836604,0.002138028333693054,-0.043676864531158106,-0.006580000000000001,0.38738000000000006,-0.5338200000000001,19.5,0,1102,546,367,1912,28.6925,149204,17.61617214695242,998.8726245673419,0
2024-03-17T15:59:36,-0.21954147355,0.19202401365,10.08155981945,0.04291328298341058,-0.0018325957145940463,-0.04520402762665314,-0.011620000000000002,0.39494000000000007,-0.52962,19.5,0,1102,546,367,1912,28.6925,149204,17.61617214695242,998.8726245673419,0
2024-03-17T15:59:36,-0.25184457865,0.19561324754999998,10.086943670299998,0.041080687268816536,0.0009162978572970231,-0.04535674393620265,-0.011620000000000002,0.39494000000000007,-0.52962,19.5,0,1102,546,367,1912,28.739375,150535,17.588031696791543,998.8734025012126,0
2024-03-17T15:59:36,-0.24646072779999997,0.19680965884999999,10.111470101950001,0.04245513405476207,-0.0012217304763960308,-0.041386119887915546,-0.009380000000000001,0.3955000000000001,-0.54096,19.5,0,1102,546,367,1912,28.739375,150535,17.588031696791543,998.8734025012126,0
2024-03-17T15:59:36,-0.25722842949999997,0.20518453794999997,10.2269237924,0.04153883619746505,-0.0019853120241435504,-0.04306599929296009,-0.009380000000000001,0.3955000000000001,-0.54096,19.5,0,1102,546,367,1912,28.739375,150535,17.588031696791543,998.8734025012126,0
2024-03-17T15:59:36,-0.2895315346,0.20877377184999998,10.110273690649999,0.04092797095926703,-0.002138028333693054,-0.04428772976935611,-0.014420000000000002,0.39466,-0.546,19.5,0,1102,546,367,1912,28.739375,150535,17.588031696791543,998.8734025012126,0
2024-03-17T15:59:36,-0.25782663515,0.20817556619999997,10.118050364099998,0.041844268816564056,-0.003970624048287101,-0.04627304179349966,-0.0119,0.39326000000000005,-0.5405400000000001,19.5,0,1102,546,367,1912,28.739375,150535,17.588031696791543,998.8734025012126,0
2024-03-17T15:59:36,-0.25782663515,0.19800607015,10.123434214949999,0.04046982203061852,-0.0025961772623415654,-0.043676864531158106,-0.0119,0.39326000000000005,-0.5405400000000001,19.5,0,1102,546,367,1912,28.739375,150535,17.588031696791543,998.8734025012126,0
2024-03-17T15:59:36,-0.26919254249999996,0.19561324754999998,9.955338427300001,0.03924809155422249,-0.0018325957145940463,-0.040622538340168025,-0.009940000000000001,0.3983,-0.5446,19.5,0,1102,546,367,1912,28.739375,150535,17.588031696791543,998.8734025012126,0
2024-03-17T15:59:36,-0.2763710103,0.20039889274999997,10.078568791199999,0.041844268816564056,-0.001069014166846527,-0.04245513405476207,-0.009380000000000001,0.39382000000000006,-0.5359200000000001,19.5,0,1102,546,367,1912,28.78234375,152301,17.539209197482776,998.8750019789155,0
2024-03-17T15:59:36,-0.27577280465,0.20578274359999998,10.106086251099997,0.04321871560250959,-0.0019853120241435504,-0.04596760917440065,-0.01246,0.39522,-0.54922,19.5,0,1102,546,367,1912,28.78234375,152301,17.539209197482776,998.8750019789155,0
2024-03-17T15:59:36,-0.25722842949999997,0.20219350969999997,10.109077279349998,0.039858956792420505,-0.001069014166846527,-0.04520402762665314,-0.004900000000000001,0.39998,-0.53368,19.5,0,1102,546,367,1912,28.78234375,152301,17.539209197482776,998.8750019789155,0
2024-03-17T15:59:36,-0.2715853651,0.19680965884999999,10.092327521149999,0.0433714319120591,-0.007330382858376185,-0.04566217655530165,-0.004900000000000001,0.39998,-0.53368,19.5,0,1102,546,367,1912,28.78234375,152301,17.539209197482776,998.8750019789155,0
2024-03-17T15:59:36,-0.26261228035,0.22013967919999997,10.0845508477,0.040622538340168025,-0.006261368691529657,-0.041844268816564056,-0.0071400000000000005,0.39970000000000006,-0.54866,19.5,0,1102,546,367,1912,28.78234375,152301,17.539209197482776,998.8750019789155,0
2024-03-17T15:59:36,-0.24885355039999998,0.19860427579999998,10.03848901265,0.040622538340168025,-0.006719517620178169,-0.048716502746291725,-0.008260000000000002,0.38654,-0.5362,19.5,0,1102,546,367,1912,28.78234375,152301,17.539209197482776,998.8750019789155,0
2024-03-17T15:59:36,-0.26380869165,0.18484554585,10.034301573099999,0.04230241774521256,-0.0022907446432425577,-0.04627304179349966,-0.008260000000000002,0.38654,-0.5362,19.5,0,1102,546,367,1912,28.78234375,152301,17.539209197482776,998.8750019789155,0
2024-03-17T15:59:36,-0.23988046564999999,0.215354034,10.042676452199998,0.0435241482216086,-0.0019853120241435504,-0.04459316238845512,-0.01106,0.39438000000000006,-0.5432,19.5,0,1101,545,367,1911,28.8216015625,152164,17.490194775464474,998.8795316530142,0
2024-03-17T15:59:36,-0.23928225999999997,0.18305092890000002,10.083354436399997,0.038484510006474966,-0.003970624048287101,-0.04474587869800463,-0.0007000000000000001,0.39186,-0.5418000000000001,19.5,0,1101,545,367,1911,28.8216015625,152164,17.490194775464474,998.8795316530142,0
2024-03-17T15:59:36,-0.25304098994999996,0.20458633229999998,10.06481006125,0.04153883619746505,-0.038484510006474966,-0.043676864531158106,-0.006580000000000001,0.39270000000000005,-0.5345200000000001,19.5,0,1101,545,367,1911,28.8216015625,152164,17.490194775464474,998.8795316530142,0
2024-03-17T15:59:36,-0.28295127244999996,0.18604195715,10.1491570579,0.039400807863771994,-0.0006108652381980154,-0.04306599929296009,-0.00462,0.3899,-0.5313000000000001,19.5,0,1101,545,367,1911,28.8216015625,152164,17.490194775464474,998.8795316530142,0
2024-03-17T15:59:36,-0.24705893344999996,0.21236300575,10.077970585549998,0.04276056667386108,-0.0015271630954950385,-0.04581489286485116,-0.00462,0.3899,-0.5313000000000001,19.5,0,1101,545,367,1911,28.8216015625,152164,17.490194775464474,998.8795316530142,0
2024-03-17T15:59:36,-0.24406790519999996,0.19262221929999998,10.1084790737,0.04230241774521256,-0.0033597588100890844,-0.04428772976935611,-0.010780000000000001,0.3966200000000001,-0.52458,19.5,0,1101,545,367,1911,28.8216015625,152164,17.490194775464474,998.8795316530142,0
2024-03-17T15:59:36,-0.2943171798,0.20757736054999998,10.119246775399999,0.041996985126113565,-0.0025961772623415654,-0.04474587869800463,-0.007980000000000001,0.39214000000000004,-0.53872,19.5,0,1101,545,367,1911,28.8216015625,152164,17.490194775464474,998.8795316530142,0
2024-03-17T15:59:36,-0.26261228035,0.20279171534999998,10.033105161799998,0.04688390703169768,-0.004886921905584123,-0.04627304179349966,-0.007980000000000001,0.39214000000000004,-0.53872,19.5,0,1101,545,367,1911,28.8583203125,154392,17.44616725804968,998.8871021612357,0
2024-03-17T15:59:37,-0.2548356069,0.2165504453,10.09830957765,0.04260785036431157,-0.0018325957145940463,-0.04245513405476207,-0.005180000000000001,0.39802000000000004,-0.5370400000000001,19.5,0,1101,545,367,1911,28.8583203125,154392,17.44616725804968,998.8871021612357,0
2024-03-17T15:59:37,-0.20039889274999997,0.2069791549,10.1539427031,0.039400807863771994,0.038179077387375956,-0.04260785036431157,-0.005180000000000001,0.39802000000000004,-0.5370400000000001,19.5,0,1101,545,367,1911,28.8583203125,154392,17.44616725804968,998.8871021612357,0
2024-03-17T15:59:37,-0.24825534474999997,0.19142580799999998,10.0534441539,0.04092797095926703,-0.002138028333693054,-0.04245513405476207,-0.00882,0.38934,-0.5345200000000001,19.5,0,1101,545,367,1911,28.8583203125,154392,17.44616725804968,998.8871021612357,0
2024-03-17T15:59:37,-0.25184457865,0.21714865095,10.1024970172,0.04153883619746505,-0.0038179077387375964,-0.0474947722698957,-0.0009800000000000002,0.39354,-0.5327000000000001,19.5,0,1101,545,367,1911,28.8583203125,154392,17.44616725804968,998.8871021612357,0
2024-03-17T15:59:37,-0.25064816735,0.2009970984,10.11505933585,0.04001167310197001,-0.0007635815477475193,-0.04489859500755413,-0.0009800000000000002,0.39354,-0.5327000000000001,19.5,0,1101,545,367,1911,28.8583203125,154392,17.44616725804968,998.8871021612357,0
2024-03-17T15:59:37,-0.25663022385,0.19920248144999997,10.133603711,0.041386119887915546,-0.003207042500539581,-0.04535674393620265,-0.013020000000000002,0.39046000000000003,-0.5419400000000001,19.5,0,1101,545,367,1911,28.8583203125,154392,17.44616725804968,998.8871021612357,0
2024-03-17T15:59:37,-0.2560320182,0.19920248144999997,10.08155981945,0.03802636107782646,-0.0018325957145940463,-0.04382958084070761,-0.01386,0.39298,-0.53774,19.5,0,1101,545,367,1911,28.89328125,154392,17.407165603266673,998.8989806196643,0
2024-03-17T15:59:37,-0.24346969954999997,0.19680965884999999,10.175478106499998,0.040317105721069016,-0.0036651914291880926,-0.04642575810304917,-0.00854,0.38598000000000005,-0.5317200000000001,19.5,0,1101,545,367,1911,28.89328125,154392,17.407165603266673,998.8989806196643,0
2024-03-17T15:59:37,-0.24107687694999996,0.2141576227,10.112666513249998,0.038942658935123484,-0.0016798794050445422,-0.04673119072214818,-0.009940000000000001,0.39970000000000006,-0.5236000000000001,19.5,0,1101,545,367,1911,28.89328125,154392,17.407165603266673,998.8989806196643,0
2024-03-17T15:59:37,-0.25064816735,0.19800607015,10.088140081599997,0.041386119887915546,0.00045814892864851157,-0.04428772976935611,-0.009940000000000001,0.39970000000000006,-0.5236000000000001,19.5,0,1101,545,367,1911,28.89328125,154392,17.407165603266673,998.8989806196643,0
2024-03-17T15:59:37,-0.22971096959999998,0.20039889274999997,10.07557776295,0.03726277953007894,-0.0044287729769356115,-0.04459316238845512,-0.0021000000000000003,0.39690000000000003,-0.5376000000000001,19.5,0,1101,545,367,1911,28.89328125,154392,17.407165603266673,998.8989806196643,0
2024-03-17T15:59:37,-0.27577280465,0.20219350969999997,10.0893364929,0.038331793696925465,-0.0038179077387375964,-0.04092797095926703,-0.00266,0.3941,-0.52514,19.5,0,1101,545,367,1911,28.89328125,154392,17.407165603266673,998.8989806196643,0
2024-03-17T15:59:37,-0.23210379219999996,0.18723836844999997,10.0845508477,0.041386119887915546,-0.0015271630954950385,-0.04566217655530165,-0.00266,0.3941,-0.52514,19.5,0,1101,545,367,1911,28.89328125,154392,17.407165603266673,998.8989806196643,0
2024-03-17T15:59:37,-0.2644068973,0.20279171534999998,10.05882800475,0.0435241482216086,-0.0024434609527920616,-0.04688390703169768,-0.012180000000000002,0.38346,-0.5287800000000001,19.5,0,1101,545,367,1911,28.9251171875,156540,17.347557991677238,998.9040031130386,0
2024-03-17T15:59:37,-0.22073788485,0.2309073809,10.146166029649997,0.04520402762665314,-0.0038179077387375964,-0.04642575810304917,-0.006860000000000001,0.38850000000000007,-0.53256,19.5,0,1101,545,367,1911,28.9251171875,156540,17.347557991677238,998.9040031130386,0
2024-03-17T15:59:37,-0.24227328824999997,0.20039889274999997,10.110871896299999,0.04046982203061852,-0.0015271630954950385,-0.0433714319120591,-0.00322,0.3896200000000001,-0.539,19.5,0,1101,545,367,1911,28.9251171875,156540,17.347557991677238,998.9040031130386,0
2024-03-17T15:59:37,-0.24287149389999999,0.20279171534999998,10.1072826624,0.040622538340168025,-0.0035124751196385882,-0.04214970143566306,-0.0021000000000000003,0.39914000000000005,-0.5231800000000001,19.5,0,1101,545,367,1911,28.9251171875,156540,17.347557991677238,998.9040031130386,0
2024-03-17T15:59:37,-0.26739792554999997,0.2105683888,10.112666513249998,0.04123340357836604,-0.0006108652381980154,-0.04413501345980661,-0.0021000000000000003,0.39914000000000005,-0.5231800000000001,19.5,0,1101,545,367,1911,28.9251171875,156540,17.347557991677238,998.9040031130386,0
2024-03-17T15:59:37,-0.28654050634999995,0.19322042494999997,10.06839929515,0.04291328298341058,0.00015271630954950385,-0.04077525464971753,-0.00042,0.39046000000000003,-0.5405400000000001,19.5,0,1101,545,367,1911,28.9251171875,156540,17.347557991677238,998.9040031130386,0
2024-03-17T15:59:37,-0.23808584869999996,0.20877377184999998,10.181460162999999,0.03772092845872745,-0.005803219762881146,-0.040317105721069016,-0.00266,0.3899,-0.52332,19.5,0,1100,545,367,1910,28.9251171875,156540,17.347557991677238,998.9040031130386,0
2024-03-17T15:59:37,-0.23509482044999996,0.20817556619999997,9.95593663295,0.04260785036431157,-0.0044287729769356115,-0.040622538340168025,-0.00266,0.3899,-0.52332,19.5,0,1100,545,367,1910,28.955,156831,17.318518552020674,998.9058581825036,0
2024-03-17T15:59:37,-0.26620151425,0.19740786449999997,10.08036340815,0.038179077387375956,-0.0016798794050445422,-0.038942658935123484,-0.00854,0.38766,-0.52598,19.5,0,1100,545,367,1910,28.955,156831,17.318518552020674,998.9058581825036,0
2024-03-17T15:59:37,-0.25304098994999996,0.20817556619999997,10.060024416049998,0.043676864531158106,-0.00473420559603462,-0.04382958084070761,-0.00854,0.38766,-0.52598,19.5,0,1100,545,367,1910,28.955,156831,17.318518552020674,998.9058581825036,0
2024-03-17T15:59:37,-0.26380869165,0.20039889274999997,10.08634546465,0.04153883619746505,-0.0033597588100890844,-0.043676864531158106,-0.01246,0.39802000000000004,-0.5355,19.5,0,1100,545,367,1910,28.955,156831,17.318518552020674,998.9058581825036,0
2024-03-17T15:59:37,-0.23868405434999998,0.19680965884999999,10.096514960699999,0.039858956792420505,0.0003054326190990077,-0.04245513405476207,-0.006860000000000001,0.3896200000000001,-0.52822,19.5,0,1100,545,367,1910,28.955,156831,17.318518552020674,998.9058581825036,0
2024-03-17T15:59:37,-0.2679961312,0.21296121140000002,10.069595706449999,0.039858956792420505,-0.001069014166846527,-0.04642575810304917,-0.0119,0.39298,-0.5268200000000001,19.5,0,1100,545,367,1910,28.955,156831,17.318518552020674,998.9058581825036,0
2024-03-17T15:59:37,-0.25064816735,0.19202401365,10.131809094049999,0.04230241774521256,-0.004886921905584123,-0.04291328298341058,-0.0119,0.39298,-0.5268200000000001,19.5,0,1100,545,367,1910,28.955,156831,17.318518552020674,998.9058581825036,0
2024-03-17T15:59:37,-0.24526431649999997,0.20219350969999997,10.09950598895,0.041386119887915546,-0.0033597588100890844,-0.04001167310197001,-0.01106,0.39242,-0.5397000000000001,19.5,0,1100,545,367,1910,28.98234375,158006,17.274020523853125,998.910758498802,0
2024-03-17T15:59:37,-0.2584248408,0.19860427579999998,10.159924759599997,0.041691552507014555,-0.0033597588100890844,-0.04505131131710364,-0.005180000000000001,0.39578,-0.5346600000000001,19.5,0,1100,545,367,1910,28.98234375,158006,17.274020523853125,998.910758498802,0
2024-03-17T15:59:37,-0.24765713909999998,0.20578274359999998,10.2436735506,0.04123340357836604,-0.0013744467859455349,-0.04444044607890562,-0.00602,0.39914000000000005,-0.5392800000000001,19.5,0,1100,545,367,1910,28.98234375,158006,17.274020523853125,998.910758498802,0
2024-03-17T15:59:37,-0.2584248408,0.18664016279999998,10.105488045449999,0.04260785036431157,0.0007635815477475193,-0.04535674393620265,-0.006300000000000001,0.39298,-0.5278,19.5,0,1100,545,367,1910,28.98234375,158006,17.274020523853125,998.910758498802,0
2024-03-17T15:59:37,-0.23928225999999997,0.21894326790000002,10.103693428499998,0.04276056667386108,-0.004581489286485115,-0.0433714319120591,-0.006300000000000001,0.39298,-0.5278,19.5,0,1100,545,367,1910,28.98234375,158006,17.274020523853125,998.910758498802,0
2024-03-17T15:59:37,-0.2225325018,0.19860427579999998,10.127023448849998,0.039095375244672985,-0.002901609881440573,-0.04444044607890562,-0.005180000000000001,0.3977400000000001,-0.52234,19.5,0,1100,545,367,1910,28.98234375,158006,17.274020523853125,998.910758498802,0
2024-03-17T15:59:37,-0.24406790519999996,0.22911276394999996,10.1240324206,0.047952921198544204,-0.0035124751196385882,-0.04306599929296009,-0.014700000000000001,0.38766,-0.532,19.5,0,1100,545,367,1910,28.98234375,158006,17.274020523853125,998.910758498802,0
2024-03-17T15:59:37,-0.23868405434999998,0.21834506225,10.0905329042,0.037110063220529434,-0.0006108652381980154,-0.0433714319120591,-0.014700000000000001,0.38766,-0.532,19.5,0,1100,545,367,1910,29.0079296875,158749,17.224332720851265,998.9038570020634,0
2024-03-17T15:59:37,-0.25304098994999996,0.20937197749999997,10.0749795573,0.038637226316024474,-0.0036651914291880926,-0.04535674393620265,-0.004340000000000001,0.39186,-0.52514,19.5,0,1100,545,367,1910,29.0079296875,158749,17.224332720851265,998.9038570020634,0
2024-03-17T15:59:37,-0.24466611084999998,0.2177468566,10.098907783299998,0.039706240482871004,0.0,-0.04276056667386108,-0.005180000000000001,0.40054,-0.51926,19.5,0,1100,545,367,1910,29.0079296875,158749,17.224332720851265,998.9038570020634,0
2024-03-17T15:59:38,-0.27517459899999996,0.20638094924999997,10.08036340815,0.04245513405476207,-0.0024434609527920616,-0.04612032548395016,-0.009940000000000001,0.39102000000000003,-0.5287800000000001,19.5,0,1100,545,367,1910,29.0079296875,158749,17.224332720851265,998.9038570020634,0
2024-03-17T15:59:38,-0.23509482044999996,0.1950150419,10.050453125649998,0.04382958084070761,-0.0024434609527920616,-0.04566217655530165,-0.009940000000000001,0.39102000000000003,-0.5287800000000001,19.5,0,1100,545,367,1910,29.0079296875,158749,17.224332720851265,998.9038570020634,0
2024-03-17T15:59:38,-0.25304098994999996,0.18843477974999998,10.097113166349997,0.04077525464971753,-0.0019853120241435504,-0.04520402762665314,-0.01386,0.3871,-0.539,19.5,0,1100,545,367,1910,29.0079296875,158749,17.224332720851265,998.9038570020634,0
2024-03-17T15:59:38,-0.2548356069,0.20877377184999998,10.078568791199999,0.0435241482216086,-0.003207042500539581,-0.04627304179349966,-0.007700000000000001,0.39102000000000003,-0.53186,19.5,0,1100,545,367,1910,29.0079296875,158749,17.224332720851265,998.9038570020634,0
2024-03-17T15:59:38,-0.2775674216,0.19561324754999998,10.078568791199999,0.0433714319120591,-0.003970624048287101,-0.04260785036431157,-0.007700000000000001,0.39102000000000003,-0.53186,19.5,0,1100,545,367,1910,29.0325390625,159499,17.179711640026014,998.9079037885422,0
2024-03-17T15:59:38,-0.25543381255,0.21954147355,10.097113166349997,0.038942658935123484,-0.00015271630954950385,-0.04306599929296009,-0.014700000000000001,0.39578,-0.5397000000000001,19.5,0,1100,545,367,1910,29.0325390625,159499,17.179711640026014,998.9079037885422,0
2024-03-17T15:59:38,-0.26380869165,0.21116659445,10.13420191665,0.07727445263204895,-0.0018325957145940463,-0.04550946024575215,-0.014700000000000001,0.39578,-0.5397000000000001,19.5,0,1100,545,367,1910,29.0325390625,159499,17.179711640026014,998.9079037885422,0
2024-03-17T15:59:38,-0.25423740125,0.20997018315,10.050453125649998,0.04550946024575215,-0.0006108652381980154,-0.04612032548395016,-0.009380000000000001,0.3960600000000001,-0.54068,19.5,0,1100,545,367,1910,29.0325390625,159499,17.179711640026014,998.9079037885422,0
2024-03-17T15:59:38,-0.26380869165,0.22552353004999998,10.0175518149,0.04214970143566306,-0.0024434609527920616,-0.04627304179349966,-0.01246,0.39242,-0.5159000000000001,19.5,0,1100,545,367,1910,29.0325390625,159499,17.179711640026014,998.9079037885422,0
2024-03-17T15:59:38,-0.24705893344999996,0.19800607015,10.0953185494,0.04291328298341058,-0.0006108652381980154,-0.04612032548395016,-0.01246,0.39242,-0.5159000000000001,19.5,0,1100,545,367,1909,29.0325390625,159499,17.179711640026014,998.9079037885422,0
2024-03-17T15:59:38,-0.2763710103,0.2105683888,10.087541875949999,0.04153883619746505,-0.004581489286485115,-0.04673119072214818,-0.011620000000000002,0.39438000000000006,-0.53396,19.5,0,1100,545,367,1909,29.0325390625,159499,17.179711640026014,998.9079037885422,0
2024-03-17T15:59:38,-0.26261228035,0.20937197749999997,10.073783145999998,0.03787364476827696,-0.0036651914291880926,-0.04780020488899471,-0.015260000000000001,0.38570000000000004,-0.5177200000000001,19.5,0,1100,545,367,1909,29.054609375,160867,17.129863404842602,998.911417323512,0
2024-03-17T15:59:38,-0.43369909624999997,0.21714865095,10.097711372000001,0.039400807863771994,-0.0025961772623415654,-0.04612032548395016,-0.007420000000000001,0.39158000000000004,-0.5275200000000001,19.5,0,1100,545,367,1909,29.054609375,160867,17.129863404842602,998.911417323512,0
2024-03-17T15:59:38,-0.24825534474999997,0.21236300575,10.249057401449999,0.038637226316024474,-0.0019853120241435504,-0.04382958084070761,-0.008260000000000002,0.39354,-0.52738,19.5,0,1100,545,367,1909,29.054609375,160867,17.129863404842602,998.911417323512,0
2024-03-17T15:59:38,-0.24945175605,0.20338992099999997,10.10668445675,0.0435241482216086,-0.007635815477475193,-0.048258353817643214,-0.006580000000000001,0.3960600000000001,-0.5243000000000001,19.5,0,1100,545,367,1909,29.054609375,160867,17.129863404842602,998.911417323512,0
2024-03-17T15:59:38,-0.27218357075,0.2105683888,10.104291634149998,0.04260785036431157,-0.003970624048287101,-0.04489859500755413,-0.006580000000000001,0.3960600000000001,-0.5243000000000001,19.5,0,1100,545,367,1909,29.054609375,160867,17.129863404842602,998.911417323512,0
2024-03-17T15:59:38,-0.2165504453,0.18604195715,10.0295159279,0.039400807863771994,-0.004276056667386108,-0.04260785036431157,-0.00602,0.39382000000000006,-0.532,19.5,0,1100,545,367,1909,29.054609375,160867,17.129863404842602,998.911417323512,0
2024-03-17T15:59:38,-0.27696921594999996,0.19262221929999998,10.094720343749998,0.04123340357836604,-0.0009162978572970231,-0.04489859500755413,-0.01022,0.39998,-0.5306000000000001,19.5,0,1100,545,367,1909,29.054609375,160867,17.129863404842602,998.911417323512,0
2024-03-17T15:59:38,-0.27098715944999996,0.19561324754999998,10.243075344949998,0.04306599929296009,-0.0024434609527920616,-0.04428772976935611,-0.01022,0.39998,-0.5306000000000001,19.5,0,1100,545,367,1909,29.07765625,161329,17.09538622441636,998.907557434493,0
2024-03-17T15:59:38,-0.24526431649999997,0.19740786449999997,10.043274657849999,0.04092797095926703,-0.0038179077387375964,-0.04276056667386108,-0.0018200000000000002,0.39914000000000005,-0.5289200000000001,19.5,0,1100,545,367,1909,29.07765625,161329,17.09538622441636,998.907557434493,0
2024-03-17T15:59:38,-0.26620151425,0.21714865095,10.109675485,0.03726277953007894,0.002138028333693054,-0.04382958084070761,-0.0018200000000000002,0.39914000000000005,-0.5289200000000001,19.5,0,1100,545,367,1909,29.07765625,161329,17.09538622441636,998.907557434493,0
2024-03-17T15:59:38,-0.23928225999999997,0.19561324754999998,10.0953185494,0.04260785036431157,-0.0015271630954950385,-0.04550946024575215,-0.00266,0.38682000000000005,-0.525,19.5,0,1100,545,367,1909,29.07765625,161329,17.09538622441636,998.907557434493,0
2024-03-17T15:59:38,-0.2656033086,0.17706887240000002,10.0953185494,0.04321871560250959,-0.0024434609527920616,-0.04245513405476207,-0.010780000000000001,0.38934,-0.5300400000000001,19.5,0,1100,545,367,1909,29.07765625,161329,17.09538622441636,998.907557434493,0
2024-03-17T15:59:38,-0.27098715944999996,0.23808584869999996,10.14018397315,0.041080687268816536,-0.004123340357836604,-0.04856378643674222,-0.010780000000000001,0.38934,-0.5300400000000001,19.5,0,1100,545,367,1909,29.07765625,161329,17.09538622441636,998.907557434493,0
2024-03-17T15:59:38,-0.24945175605,0.20279171534999998,10.1048898398,0.041080687268816536,-0.0022907446432425577,-0.04459316238845512,-0.00462,0.39270000000000005,-0.5376000000000001,19.5,0,1100,545,367,1909,29.07765625,161329,17.09538622441636,998.907557434493,0
2024-03-17T15:59:38,-0.24586252214999998,0.19980068709999999,10.1001041946,0.041996985126113565,-0.002901609881440573,-0.049327367984489744,-0.009100000000000002,0.3890600000000001,-0.5271,19.5,0,1100,545,367,1909,29.099921875,161329,17.05577371145616,998.9060110804186,0
2024-03-17T15:59:38,-0.27337998204999997,0.20398812665,10.07318494035,0.04642575810304917,-0.006108652381980154,-0.04413501345980661,-0.009380000000000001,0.39690000000000003,-0.5338200000000001,19.5,0,1100,545,367,1909,29.099921875,161329,17.05577371145616,998.9060110804186,0
2024-03-17T15:59:38,-0.2703889538,0.1890329854,10.11864856975,0.041996985126113565,-0.0022907446432425577,-0.04321871560250959,-0.00322,0.3941,-0.52724,19.5,0,1100,545,367,1909,29.099921875,161329,17.05577371145616,998.9060110804186,0
2024-03-17T15:59:38,-0.22552353004999998,0.21236300575,10.104291634149998,0.039400807863771994,-0.00045814892864851157,-0.04734205596034619,-0.00322,0.3941,-0.52724,19.5,0,1100,545,367,1909,29.099921875,161329,17.05577371145616,998.9060110804186,0
2024-03-17T15:59:38,-0.2644068973,0.20937197749999997,10.101898811549999,0.04123340357836604,-0.005039638215133627,-0.04276056667386108,-0.010780000000000001,0.39074000000000003,-0.5268200000000001,19.5,0,1100,545,367,1909,29.099921875,161329,17.05577371145616,998.9060110804186,0
2024-03-17T15:59:38,-0.25304098994999996,0.20159530404999998,10.088140081599997,0.039706240482871004,0.0018325957145940463,-0.04123340357836604,-0.0071400000000000005,0.38682000000000005,-0.5290600000000001,19.5,0,1100,545,367,1909,29.099921875,161329,17.05577371145616,998.9060110804186,0
2024-03-17T15:59:38,-0.25782663515,0.2141576227,10.105488045449999,0.04489859500755413,-0.0003054326190990077,-0.04780020488899471,-0.0071400000000000005,0.38682000000000005,-0.5290600000000001,19.5,0,1100,545,367,1909,29.099921875,161329,17.05577371145616,998.9060110804186,0
2024-03-17T15:59:38,-0.23330020349999997,0.20338992099999997,10.097711372000001,0.041691552507014555,-0.0003054326190990077,-0.04566217655530165,-0.013580000000000002,0.39354,-0.5306000000000001,19.5,0,1100,545,367,1909,29.120234375,162260,17.016066152494318,998.8995089703309,0
2024-03-17T15:59:38,-0.25124637299999997,0.22671994134999998,10.132407299699999,0.04260785036431157,-0.0003054326190990077,-0.04520402762665314,-0.00574,0.39270000000000005,-0.54124,19.5,0,1100,545,367,1909,29.120234375,162260,17.016066152494318,998.8995089703309,0
2024-03-17T15:59:38,-0.43190447930000003,0.20997018315,10.082756230749998,0.038637226316024474,-0.003054326190990077,-0.04245513405476207,-0.0021000000000000003,0.39466,-0.52444,19.5,0,1100,545,367,1909,29.120234375,162260,17.016066152494318,998.8995089703309,0
2024-03-17T15:59:38,-0.27816562724999994,0.19680965884999999,10.1132647189,0.03924809155422249,-0.0009162978572970231,-0.04642575810304917,-0.0021000000000000003,0.39466,-0.52444,19.5,0,1100,545,367,1909,29.120234375,162260,17.016066152494318,998.8995089703309,0
2024-03-17T15:59:38,-0.24825534474999997,0.18723836844999997,10.105488045449999,0.039858956792420505,-0.00473420559603462,-0.04276056667386108,-0.007980000000000001,0.39522,-0.5364800000000001,19.5,0,1100,545,367,1909,29.120234375,162260,17.016066152494318,998.8995089703309,0
2024-03-17T15:59:38,-0.2644068973,0.2141576227,10.0749795573,0.04260785036431157,-0.002138028333693054,-0.04566217655530165,-0.010780000000000001,0.38430000000000003,-0.51968,19.5,0,1100,545,367,1909,29.120234375,162260,17.016066152494318,998.8995089703309,0
2024-03-17T15:59:38,-0.24765713909999998,0.21595223965000002,10.0773723799,0.041844268816564056,-0.0006108652381980154,-0.04276056667386108,0.00322,0.4011,-0.5276600000000001,19.5,0,1100,545,367,1909,29.120234375,162260,17.016066152494318,998.8995089703309,0
2024-03-17T15:59:38,-0.25064816735,0.19680965884999999,10.077970585549998,0.04260785036431157,-0.0016798794050445422,-0.04321871560250959,0.00322,0.4011,-0.5276600000000001,19.5,0,1100,545,367,1909,29.1399609375,162572,16.96614362697201,998.904591153501,0
2024-03-17T15:59:39,-0.25782663515,0.2165504453,10.103693428499998,0.04459316238845512,-0.003970624048287101,-0.04566217655530165,-0.006580000000000001,0.38878,-0.5135200000000001,19.5,0,1100,545,367,1909,29.1399609375,162572,16.96614362697201,998.904591153501,0
2024-03-17T15:59:39,-0.23808584869999996,0.22731814699999997,10.1048898398,0.041080687268816536,-0.0035124751196385882,-0.04673119072214818,-0.006580000000000001,0.38878,-0.5135200000000001,19.5,0,1100,545,367,1909,29.1399609375,162572,16.96614362697201,998.904591153501,0
2024-03-17T15:59:39,-0.24646072779999997,0.16689937635,10.088140081599997,0.04260785036431157,-0.0022907446432425577,-0.04581489286485116,-0.0071400000000000005,0.39130000000000004,-0.52962,19.5,0,1100,545,367,1909,29.1399609375,162572,16.96614362697201,998.904591153501,0
2024-03-17T15:59:39,-0.25722842949999997,0.2105683888,10.14257679575,0.0433714319120591,-0.002901609881440573,-0.04245513405476207,-0.013580000000000002,0.39494000000000007,-0.5278,19.5,0,1100,545,367,1909,29.1399609375,162572,16.96614362697201,998.904591153501,0
2024-03-17T15:59:39,-0.24885355039999998,0.19322042494999997,10.0666046782,0.04123340357836604,-0.0019853120241435504,-0.04306599929296009,-0.013580000000000002,0.39494000000000007,-0.5278,19.5,0,1100,545,367,1909,29.1399609375,162572,16.96614362697201,998.904591153501,0
2024-03-17T15:59:39,-0.23988046564999999,0.23150558654999998,10.1024970172,0.041844268816564056,-0.005192354524683131,-0.04627304179349966,-0.00042,0.39914000000000005,-0.5279400000000001,19.5,0,1100,545,367,1909,29.1399609375,162572,16.96614362697201,998.904591153501,0
2024-03-17T15:59:39,-0.2560320182,0.18843477974999998,10.077970585549998,0.04444044607890562,0.0009162978572970231,-0.04444044607890562,-0.00966,0.38542000000000004,-0.52248,19.5,0,1100,545,367,1909,29.157734375,163994,16.926323361674005,998.899346067383,0
2024-03-17T15:59:39,-0.26141586904999997,0.20159530404999998,10.171290666949998,0.03726277953007894,-0.0009162978572970231,-0.04214970143566306,-0.00602,0.3901800000000001,-0.53284,19.5,0,1100,545,367,1909,29.157734375,163994,16.926323361674005,998.899346067383,0
2024-03-17T15:59:39,-0.26321048599999997,0.2009970984,10.094720343749998,0.039706240482871004,-0.0025961772623415654,-0.0476474885794452,-0.007980000000000001,0.3899,-0.5187,19.5,0,1100,545,367,1909,29.157734375,163994,16.926323361674005,998.899346067383,0
2024-03-17T15:59:39,-0.26859433685,0.20338992099999997,10.088738287249999,0.039553524173321496,-0.0022907446432425577,-0.04474587869800463,-0.007980000000000001,0.3899,-0.5187,19.5,0,1100,545,367,1909,29.157734375,163994,16.926323361674005,998.899346067383,0
2024-03-17T15:59:39,-0.27577280465,0.19082760235,10.1419785901,0.04321871560250959,-0.002901609881440573,-0.04489859500755413,-0.00602,0.3896200000000001,-0.5425,19.5,0,1100,545,367,1909,29.157734375,163994,16.926323361674005,998.899346067383,0
2024-03-17T15:59:39,-0.24526431649999997,0.24466611084999998,10.1419785901,0.04306599929296009,-0.0056505034533316425,-0.04505131131710364,-0.009380000000000001,0.3896200000000001,-0.53396,19.5,0,1100,545,367,1909,29.157734375,163994,16.926323361674005,998.899346067383,0
2024-03-17T15:59:39,-0.23748764304999997,0.18424734019999997,10.0941221381,0.04016438941151951,-0.0016798794050445422,-0.04123340357836604,-0.009380000000000001,0.3896200000000001,-0.53396,19.5,0,1100,545,367,1909,29.157734375,163994,16.926323361674005,998.899346067383,0
2024-03-17T15:59:39,-0.26859433685,0.22911276394999996,10.09830957765,0.038637226316024474,-0.00045814892864851157,-0.038942658935123484,-0.009380000000000001,0.39242,-0.53872,19.5,0,1100,545,367,1909,29.1753125,163835,16.89159644646994,998.9027373242561,0
2024-03-17T15:59:39,-0.24885355039999998,0.20279171534999998,10.071390323399998,0.04046982203061852,-0.0013744467859455349,-0.04245513405476207,-0.0071400000000000005,0.39858000000000005,-0.53522,19.5,0,1100,545,367,1909,29.1753125,163835,16.89159644646994,998.9027373242561,0
2024-03-17T15:59:39,-0.24825534474999997,0.22133609049999997,10.071988529050001,0.04123340357836604,-0.00015271630954950385,-0.04734205596034619,-0.00574,0.3960600000000001,-0.5313000000000001,19.5,0,1100,545,367,1909,29.1753125,163835,16.89159644646994,998.9027373242561,0
2024-03-17T15:59:39,-0.2500499617,0.20518453794999997,10.0929257268,0.04428772976935611,-0.001069014166846527,-0.043676864531158106,-0.008260000000000002,0.39522,-0.5265400000000001,19.5,0,1100,545,367,1909,29.1753125,163835,16.89159644646994,998.9027373242561,0
2024-03-17T15:59:39,-0.2548356069,0.19980068709999999,10.109675485,0.04291328298341058,-0.0022907446432425577,-0.04123340357836604,-0.008260000000000002,0.39522,-0.5265400000000001,19.5,0,1100,545,367,1909,29.1753125,163835,16.89159644646994,998.9027373242561,0
2024-03-17T15:59:39,-0.25782663515,0.20817556619999997,10.103693428499998,0.039095375244672985,-0.0015271630954950385,-0.036804630601430424,-0.01694,0.39438000000000006,-0.53774,19.5,0,1100,545,367,1909,29.1753125,163835,16.89159644646994,998.9027373242561,0
2024-03-17T15:59:39,-0.2679961312,0.21116659445,10.118050364099998,0.03924809155422249,-0.0056505034533316425,-0.04550946024575215,-0.01106,0.39354,-0.52332,19.5,0,1100,545,367,1909,29.1753125,163835,16.89159644646994,998.9027373242561,0
2024-03-17T15:59:39,-0.2679961312,0.20219350969999997,10.080961613799998,0.0433714319120591,-0.003054326190990077,-0.04260785036431157,-0.01106,0.39354,-0.52332,19.5,0,1100,545,367,1909,29.1926953125,164634,16.85177430485541,998.9004384215696,0
2024-03-17T15:59:39,-0.25663022385,0.19680965884999999,10.09591675505,0.04230241774521256,-0.002901609881440573,-0.04474587869800463,-0.006860000000000001,0.39466,-0.5371800000000001,19.5,0,1100,545,367,1909,29.1926953125,164634,16.85177430485541,998.9004384215696,0
2024-03-17T15:59:39,-0.25423740125,0.21595223965000002,10.0929257268,0.04260785036431157,-0.003054326190990077,-0.04153883619746505,-0.006860000000000001,0.39466,-0.5371800000000001,19.5,0,1100,545,367,1909,29.1926953125,164634,16.85177430485541,998.9004384215696,0
2024-03-17T15:59:39,-0.24646072779999997,0.19680965884999999,10.082756230749998,0.04321871560250959,-0.0013744467859455349,-0.04382958084070761,-0.00462,0.40054,-0.5348,19.5,0,1100,545,367,1909,29.1926953125,164634,16.85177430485541,998.9004384215696,0
2024-03-17T15:59:39,-0.2536391956,0.19860427579999998,10.089934698549998,0.03741549583962844,-0.0016798794050445422,-0.048411070127192715,-0.009940000000000001,0.39886,-0.5300400000000001,19.5,0,1100,545,367,1909,29.1926953125,164634,16.85177430485541,998.9004384215696,0
2024-03-17T15:59:39,-0.25064816735,0.2105683888,10.1156575415,0.038637226316024474,-0.0027488935718910697,-0.048716502746291725,-0.012740000000000001,0.40446000000000004,-0.5222,19.5,0,1100,545,367,1909,29.1926953125,164634,16.85177430485541,998.9004384215696,0
2024-03-17T15:59:39,-0.28175486115,0.1878365741,10.04985492,0.041386119887915546,-0.00045814892864851157,-0.04688390703169768,-0.012740000000000001,0.40446000000000004,-0.5222,19.5,0,1100,545,367,1909,29.1926953125,164634,16.85177430485541,998.9004384215696,0
2024-03-17T15:59:39,-0.25543381255,0.20398812665,10.0474620974,0.04153883619746505,-0.0019853120241435504,-0.04581489286485116,-0.007700000000000001,0.39634,-0.52962,19.5,0,1100,545,367,1909,29.2087109375,165604,16.806799621838522,998.9066700828567,0
2024-03-17T15:59:39,-0.24346969954999997,0.20518453794999997,10.08155981945,0.041386119887915546,-0.0019853120241435504,-0.04627304179349966,-0.007980000000000001,0.39382000000000006,-0.52724,19.5,0,1100,545,367,1909,29.2087109375,165604,16.806799621838522,998.9066700828567,0
2024-03-17T15:59:39,-0.23270199784999998,0.2105683888,10.098907783299998,0.04123340357836604,-0.004276056667386108,-0.04214970143566306,-0.013020000000000002,0.39494000000000007,-0.5231800000000001,19.5,0,1100,545,367,1909,29.2087109375,165604,16.806799621838522,998.9066700828567,0
2024-03-17T15:59:39,-0.27696921594999996,0.22013967919999997,10.119844981049999,0.04001167310197001,-0.003207042500539581,-0.04413501345980661,-0.009940000000000001,0.39326000000000005,-0.5392800000000001,19.5,0,1100,545,367,1909,29.2087109375,165604,16.806799621838522,998.9066700828567,0
2024-03-17T15:59:39,-0.26021945775,0.19680965884999999,10.02054284315,0.038637226316024474,-0.0027488935718910697,-0.04703662334124718,-0.009940000000000001,0.39326000000000005,-0.5392800000000001,19.5,0,1100,545,367,1909,29.2087109375,165604,16.806799621838522,998.9066700828567,0
2024-03-17T15:59:39,-0.26380869165,0.20338992099999997,10.086943670299998,0.04077525464971753,-0.0054977871437821395,-0.04214970143566306,-0.010780000000000001,0.3971800000000001,-0.5369,19.5,0,1100,545,367,1909,29.2087109375,165604,16.806799621838522,998.9066700828567,0
2024-03-17T15:59:39,-0.25304098994999996,0.19980068709999999,10.1706924613,0.041080687268816536,-0.0015271630954950385,-0.04459316238845512,-0.006580000000000001,0.39270000000000005,-0.5394200000000001,19.5,0,1100,545,367,1909,29.2087109375,165604,16.806799621838522,998.9066700828567,0
2024-03-17T15:59:39,-0.24885355039999998,0.19860427579999998,10.0905329042,0.038789942625573975,-0.007177666548826681,-0.049021935365390734,-0.006580000000000001,0.39270000000000005,-0.5394200000000001,19.5,0,1100,545,367,1909,29.2247265625,165766,16.772016507309228,998.8985729609392,0
2024-03-17T15:59:39,-0.25124637299999997,0.22133609049999997,10.016953609249999,0.04505131131710364,-0.002901609881440573,-0.04657847441259867,-0.00574,0.39074000000000003,-0.53746,19.5,0,1100,545,367,1909,29.2247265625,165766,16.772016507309228,998.8985729609392,0
2024-03-17T15:59:39,-0.2524427843,0.20338992099999997,10.14736244095,0.038179077387375956,-0.003054326190990077,-0.04642575810304917,-0.006300000000000001,0.3955000000000001,-0.53298,19.5,0,1100,545,367,1909,29.2247265625,165766,16.772016507309228,998.8985729609392,0
2024-03-17T15:59:39,-0.2536391956,0.21236300575,10.101300605899999,0.036499197982331415,-0.00473420559603462,-0.04703662334124718,-0.0037800000000000004,0.39886,-0.54138,19.5,0,1100,545,367,1909,29.2247265625,165766,16.772016507309228,998.8985729609392,0
2024-03-17T15:59:40,-0.25184457865,0.19262221929999998,10.11745215845,0.03772092845872745,-0.005345070834232635,-0.043676864531158106,-0.0037800000000000004,0.39886,-0.54138,19.5,0,1100,545,367,1909,29.2247265625,165766,16.772016507309228,998.8985729609392,0
2024-03-17T15:59:40,-0.23629123174999997,0.20398812665,10.13300550535,0.03726277953007894,-0.0027488935718910697,-0.04657847441259867,-0.00882,0.40278,-0.54208,19.5,0,1100,545,367,1909,29.2247265625,165766,16.772016507309228,998.8985729609392,0
2024-03-17T15:59:40,-0.25064816735,0.18664016279999998,10.0354979844,0.040317105721069016,-0.006566801310628666,-0.0474947722698957,-0.010780000000000001,0.3983,-0.53396,19.5,0,1100,545,367,1909,29.2247265625,165766,16.772016507309228,998.8985729609392,0
2024-03-17T15:59:40,-0.2596212521,0.2141576227,10.2472627845,0.038789942625573975,-0.0019853120241435504,-0.04459316238845512,-0.010780000000000001,0.3983,-0.53396,19.5,0,1100,545,367,1909,29.24171875,166584,16.73729247162101,998.8974285284742,0
2024-03-17T15:59:40,-0.22851455829999998,0.19561324754999998,10.0821580251,0.038484510006474966,-0.001069014166846527,-0.041080687268816536,-0.004900000000000001,0.3960600000000001,-0.5369,19.5,0,1100,545,367,1909,29.24171875,166584,16.73729247162101,998.8974285284742,0
2024-03-17T15:59:40,-0.25304098994999996,0.20518453794999997,10.106086251099997,0.04153883619746505,-0.007177666548826681,-0.04474587869800463,-0.004900000000000001,0.3960600000000001,-0.5369,19.5,0,1100,545,367,1909,29.24171875,166584,16.73729247162101,998.8974285284742,0
2024-03-17T15:59:40,-0.23270199784999998,0.21834506225,10.078568791199999,0.041080687268816536,0.001069014166846527,-0.0476474885794452,-0.00574,0.39746000000000004,-0.5348,19.5,0,1100,545,367,1909,29.24171875,166584,16.73729247162101,998.8974285284742,0
2024-03-17T15:59:40,-0.25423740125,0.19381863059999999,10.097113166349997,0.036499197982331415,-0.0019853120241435504,-0.04688390703169768,-0.009940000000000001,0.39690000000000003,-0.53158,19.5,0,1100,545,367,1909,29.24171875,166584,16.73729247162101,998.8974285284742,0
2024-03-17T15:59:40,-0.21595223965000002,0.19980068709999999,10.06122082735,0.04077525464971753,-0.0016798794050445422,-0.04642575810304917,-0.009940000000000001,0.39690000000000003,-0.53158,19.5,0,1100,545,367,1909,29.24171875,166584,16.73729247162101,998.8974285284742,0
2024-03-17T15:59:40,-0.26979074815,0.20997018315,10.155139114399999,0.038637226316024474,0.0006108652381980154,-0.041080687268816536,-0.009380000000000001,0.3971800000000001,-0.52612,19.5,0,1100,545,367,1909,29.24171875,166584,16.73729247162101,998.8974285284742,0
2024-03-17T15:59:40,-0.26739792554999997,0.19800607015,10.097711372000001,0.04230241774521256,-0.0044287729769356115,-0.04642575810304917,-0.01106,0.39998,-0.52556,19.5,0,1100,545,367,1909,29.256953125,167411,16.697397179618324,998.8988100329881,0
2024-03-17T15:59:40,-0.27996024419999993,0.18843477974999998,10.110871896299999,0.04291328298341058,-0.002138028333693054,-0.04474587869800463,0.0007000000000000001,0.4011,-0.52962,19.5,0,1100,545,367,1910,29.256953125,167411,16.697397179618324,998.8988100329881,0
2024-03-17T15:59:40,-0.24885355039999998,0.18723836844999997,10.0701939121,0.04016438941151951,-0.003054326190990077,-0.04673119072214818,-0.0035000000000000005,0.39270000000000005,-0.53186,19.5,0,1100,545,367,1910,29.256953125,167411,16.697397179618324,998.8988100329881,0
2024-03-17T15:59:40,-0.28115665549999996,0.20458633229999998,10.13300550535,0.040622538340168025,-0.0022907446432425577,-0.04612032548395016,-0.0054600000000000004,0.39858000000000005,-0.5258400000000001,19.5,0,1100,545,367,1910,29.256953125,167411,16.697397179618324,998.8988100329881,0
2024-03-17T15:59:40,-0.25423740125,0.19322042494999997,10.111470101950001,0.04291328298341058,0.0022907446432425577,-0.048411070127192715,-0.0054600000000000004,0.39858000000000005,-0.5258400000000001,19.5,0,1100,545,367,1910,29.256953125,167411,16.697397179618324,998.8988100329881,0
2024-03-17T15:59:40,-0.24466611084999998,0.19322042494999997,10.088140081599997,0.040622538340168025,-0.0033597588100890844,-0.04291328298341058,-0.012180000000000002,0.39970000000000006,-0.53788,19.5,0,1100,545,367,1910,29.256953125,167411,16.697397179618324,998.8988100329881,0
2024-03-17T15:59:40,-0.2679961312,0.22552353004999998,10.0725867347,0.07803803417979646,0.0015271630954950385,-0.04520402762665314,0.00042,0.39494000000000007,-0.5276600000000001,19.5,0,1100,545,367,1910,29.256953125,167411,16.697397179618324,998.8988100329881,0
2024-03-17T15:59:40,-0.2835494781,0.21834506225,10.025926693999999,0.037110063220529434,-0.004276056667386108,-0.04535674393620265,0.00042,0.39494000000000007,-0.5276600000000001,19.5,0,1100,545,367,1910,29.2719921875,167744,16.652417699688463,998.903456595427,0
2024-03-17T15:59:40,-0.24227328824999997,0.19381863059999999,10.127023448849998,0.04001167310197001,-0.008093964406123704,-0.04428772976935611,-0.009380000000000001,0.40278,-0.53662,19.5,0,1100,545,367,1910,29.2719921875,167744,16.652417699688463,998.903456595427,0
2024-03-17T15:59:40,-0.2536391956,0.22313070744999997,10.088738287249999,0.04474587869800463,-0.0027488935718910697,-0.04245513405476207,-0.009380000000000001,0.40278,-0.53662,19.5,0,1100,545,367,1910,29.2719921875,167744,16.652417699688463,998.903456595427,0
2024-03-17T15:59:40,-0.24885355039999998,0.1878365741,10.09113110985,0.041691552507014555,-0.004581489286485115,-0.04245513405476207,-0.004340000000000001,0.39690000000000003,-0.51786,19.5,0,1100,545,367,1910,29.2719921875,167744,16.652417699688463,998.903456595427,0
2024-03-17T15:59:40,-0.40498522504999995,0.22671994134999998,10.008578730149999,0.03726277953007894,-0.005803219762881146,-0.04474587869800463,-0.006300000000000001,0.39858000000000005,-0.5371800000000001,19.5,0,1100,545,367,1910,29.2719921875,167744,16.652417699688463,998.903456595427,0
2024-03-17T15:59:40,-0.26620151425,0.20398812665,10.105488045449999,0.04535674393620265,0.0027488935718910697,-0.043676864531158106,-0.006300000000000001,0.39858000000000005,-0.5371800000000001,19.5,0,1100,545,367,1910,29.2719921875,167744,16.652417699688463,998.903456595427,0
2024-03-17T15:59:40,-0.2679961312,0.21296121140000002,10.134800122299998,0.040317105721069016,-0.004276056667386108,-0.04276056667386108,-0.006860000000000001,0.4011,-0.5392800000000001,19.5,0,1100,545,367,1910,29.2719921875,167744,16.652417699688463,998.903456595427,0
2024-03-17T15:59:40,-0.24047867129999997,0.20997018315,10.112666513249998,0.041996985126113565,-0.004123340357836604,-0.04780020488899471,-0.00322,0.40166,-0.5252800000000001,19.5,0,1100,545,367,1910,29.2868359375,167910,16.61252488815911,998.9095773142566,0
2024-03-17T15:59:40,-0.24107687694999996,0.19142580799999998,10.085149053349998,0.04444044607890562,0.0007635815477475193,-0.04535674393620265,-0.007980000000000001,0.3955000000000001,-0.5286400000000001,19.5,0,1100,545,367,1910,29.2868359375,167910,16.61252488815911,998.9095773142566,0
2024-03-17T15:59:40,-0.22911276394999996,0.2117648001,10.09113110985,0.07803803417979646,-0.0013744467859455349,-0.04153883619746505,-0.00462,0.40026000000000006,-0.5367600000000001,19.5,0,1100,545,367,1910,29.2868359375,167910,16.61252488815911,998.9095773142566,0
2024-03-17T15:59:40,-0.26380869165,0.20578274359999998,10.04925671435,0.041844268816564056,-0.0035124751196385882,-0.04459316238845512,-0.00462,0.40026000000000006,-0.5367600000000001,19.5,0,1100,545,367,1910,29.2868359375,167910,16.61252488815911,998.9095773142566,0
2024-03-17T15:59:40,-0.2584248408,0.215354034,10.097113166349997,0.038637226316024474,-0.003054326190990077,-0.04428772976935611,-0.00042,0.3966200000000001,-0.53074,19.5,0,1100,545,367,1910,29.2868359375,167910,16.61252488815911,998.9095773142566,0
2024-03-17T15:59:40,-0.24346969954999997,0.22791635265,10.096514960699999,0.04092797095926703,-0.0027488935718910697,-0.04444044607890562,-0.0015400000000000001,0.3960600000000001,-0.53074,19.5,0,1100,545,367,1910,29.2868359375,167910,16.61252488815911,998.9095773142566,0
2024-03-17T15:59:40,-0.2524427843,0.19381863059999999,10.1024970172,0.04214970143566306,-0.0025961772623415654,-0.04230241774521256,-0.0015400000000000001,0.3960600000000001,-0.53074,19.5,0,1100,545,367,1910,29.2868359375,167910,16.61252488815911,998.9095773142566,0
2024-03-17T15:59:40,-0.23928225999999997,0.2177468566,10.09591675505,0.04581489286485116,-0.0044287729769356115,-0.04489859500755413,-0.010500000000000002,0.40222,-0.5300400000000001,19.5,0,1100,545,367,1910,29.3001171875,168919,16.57764279715464,998.9060028785103,0
2024-03-17T15:59:40,-0.24227328824999997,0.18305092890000002,10.055238770849998,0.04306599929296009,-0.003054326190990077,-0.04489859500755413,-0.018060000000000003,0.4011,-0.539,19.5,0,1100,545,367,1910,29.3001171875,168919,16.57764279715464,998.9060028785103,0
2024-03-17T15:59:40,-0.2679961312,0.22313070744999997,10.09352393245,0.04092797095926703,-0.0025961772623415654,-0.041386119887915546,-0.011620000000000002,0.39858000000000005,-0.5369,19.5,0,1100,545,367,1910,29.3001171875,168919,16.57764279715464,998.9060028785103,0
2024-03-17T15:59:40,-0.27337998204999997,0.20279171534999998,10.0941221381,0.04245513405476207,-0.002901609881440573,-0.04596760917440065,-0.011620000000000002,0.39858000000000005,-0.53522,19.5,0,1100,545,367,1910,29.3001171875,168919,16.57764279715464,998.9060028785103,0
2024-03-17T15:59:40,-0.25663022385,0.19082760235,10.083354436399997,0.041080687268816536,-0.005039638215133627,-0.04444044607890562,-0.00602,0.39746000000000004,-0.53522,19.5,0,1100,545,367,1910,29.3001171875,168919,16.57764279715464,998.9060028785103,0
2024-03-17T15:59:40,-0.24466611084999998,0.2105683888,10.080961613799998,0.04489859500755413,-0.004886921905584123,-0.04489859500755413,-0.015540000000000002,0.39998,-0.53872,19.5,0,1100,545,367,1910,29.3001171875,168919,16.57764279715464,998.9060028785103,0
2024-03-17T15:59:40,-0.2727817764,0.19561324754999998,10.07557776295,0.04001167310197001,-0.005192354524683131,-0.04520402762665314,-0.009100000000000002,0.39466,-0.52192,19.5,0,1100,545,367,1910,29.3001171875,168919,16.57764279715464,998.9060028785103,0
2024-03-17T15:59:40,-0.24287149389999999,0.20997018315,10.089934698549998,0.04001167310197001,-0.003970624048287101,-0.041996985126113565,-0.009100000000000002,0.39466,-0.52192,19.5,0,1100,545,367,1910,29.312421875,169940,16.542717995375426,998.9026377532897,0
2024-03-17T15:59:41,-0.25722842949999997,0.20279171534999998,10.12463062625,0.04230241774521256,-0.007483099167925688,-0.043676864531158106,-0.009380000000000001,0.39802000000000004,-0.53074,19.5,0,1100,544,367,1908,29.312421875,169940,16.542717995375426,998.9026377532897,0
2024-03-17T15:59:41,-0.26380869165,0.19561324754999998,10.11864856975,0.03481931857728687,-0.0007635815477475193,-0.04688390703169768,-0.009380000000000001,0.39802000000000004,-0.53074,19.5,0,1100,544,367,1908,29.312421875,169940,16.542717995375426,998.9026377532897,0
2024-03-17T15:59:41,-0.26380869165,0.2141576227,10.103693428499998,0.041996985126113565,-0.005345070834232635,-0.04260785036431157,-0.014980000000000002,0.3966200000000001,-0.5264000000000001,19.5,0,1100,544,367,1908,29.312421875,169940,16.542717995375426,998.9026377532897,0
2024-03-17T15:59:41,-0.23330020349999997,0.21236300575,10.0666046782,0.04092797095926703,-0.003054326190990077,-0.04382958084070761,-0.013580000000000002,0.39634,-0.5198200000000001,19.5,0,1100,544,367,1908,29.312421875,169940,16.542717995375426,998.9026377532897,0
2024-03-17T15:59:41,-0.24705893344999996,0.18484554585,10.080961613799998,0.041996985126113565,-0.003054326190990077,-0.0435241482216086,-0.013580000000000002,0.39634,-0.5198200000000001,19.5,0,1100,544,367,1908,29.312421875,169940,16.542717995375426,998.9026377532897,0
2024-03-17T15:59:41,-0.24526431649999997,0.20877377184999998,10.109077279349998,0.04245513405476207,-0.0024434609527920616,-0.0476474885794452,-0.00322,0.40222,-0.5236000000000001,19.5,0,1100,544,367,1908,29.312421875,169940,16.542717995375426,998.9026377532897,0
2024-03-17T15:59:41,-0.26141586904999997,0.19441683624999997,10.080961613799998,0.04092797095926703,-0.0022907446432425577,-0.04627304179349966,-0.008260000000000002,0.39354,-0.53438,19.5,0,1100,544,367,1908,29.3253125,170455,16.51291105576696,998.9109680104218,0
2024-03-17T15:59:41,-0.26141586904999997,0.2069791549,10.08634546465,0.04092797095926703,0.003970624048287101,-0.04520402762665314,-0.0119,0.3971800000000001,-0.53872,19.5,0,1100,544,367,1908,29.3253125,170455,16.51291105576696,998.9109680104218,0
2024-03-17T15:59:41,-0.2309073809,0.19142580799999998,10.07438135165,0.04276056667386108,-0.002901609881440573,-0.048716502746291725,-0.0119,0.39242,-0.52738,19.5,0,1100,544,367,1908,29.3253125,170455,16.51291105576696,998.9109680104218,0
2024-03-17T15:59:41,-0.24825534474999997,0.16211373114999997,10.09950598895,0.038789942625573975,-0.0022907446432425577,-0.04520402762665314,-0.0119,0.39242,-0.52738,19.5,0,1100,544,367,1908,29.3253125,170455,16.51291105576696,998.9109680104218,0
2024-03-17T15:59:41,-0.2667997199,0.21954147355,10.1204431867,0.04260785036431157,-0.004581489286485115,-0.04581489286485116,-0.0009800000000000002,0.40026000000000006,-0.5327000000000001,19.5,0,1100,544,367,1908,29.3253125,170455,16.51291105576696,998.9109680104218,0
2024-03-17T15:59:41,-0.24765713909999998,0.20997018315,10.071390323399998,0.04444044607890562,-0.0054977871437821395,-0.04489859500755413,-0.0037800000000000004,0.40026000000000006,-0.5349400000000001,19.5,0,1100,544,367,1908,29.3253125,170455,16.51291105576696,998.9109680104218,0
2024-03-17T15:59:41,-0.26979074815,0.19621145319999997,10.10668445675,0.040622538340168025,-0.0044287729769356115,-0.04566217655530165,-0.0037800000000000004,0.40026000000000006,-0.5349400000000001,19.5,0,1100,544,367,1908,29.3253125,170455,16.51291105576696,998.9109680104218,0
2024-03-17T15:59:41,-0.27816562724999994,0.21355941705,10.09950598895,0.038637226316024474,0.0003054326190990077,-0.04321871560250959,-0.014420000000000002,0.3955000000000001,-0.5286400000000001,19.5,0,1100,544,367,1908,29.3372265625,169940,16.472903621884292,998.9033864823899,0
2024-03-17T15:59:41,-0.23688943739999999,0.20458633229999998,10.07318494035,0.04092797095926703,-0.003207042500539581,-0.04627304179349966,-0.010780000000000001,0.3966200000000001,-0.54138,19.5,0,1100,544,367,1908,29.3372265625,169940,16.472903621884292,998.9033864823899,0
2024-03-17T15:59:41,-0.2727817764,0.1890329854,10.146764235300001,0.0474947722698957,-0.0019853120241435504,-0.04428772976935611,-0.01386,0.40418000000000004,-0.5311600000000001,19.5,0,1100,544,367,1908,29.3372265625,169940,16.472903621884292,998.9033864823899,0
2024-03-17T15:59:41,-0.26620151425,0.21954147355,10.14496961835,0.036499197982331415,-0.0035124751196385882,-0.04459316238845512,-0.01022,0.39494000000000007,-0.53872,19.5,0,1100,544,367,1908,29.3372265625,169940,16.472903621884292,998.9033864823899,0
2024-03-17T15:59:41,-0.25064816735,0.20219350969999997,10.22273635285,0.04520402762665314,-0.003054326190990077,-0.04214970143566306,-0.01022,0.39494000000000007,-0.53872,19.5,0,1100,544,367,1908,29.3372265625,169940,16.472903621884292,998.9033864823899,0
2024-03-17T15:59:41,-0.26141586904999997,0.21894326790000002,10.104291634149998,0.038331793696925465,-0.006414085001079162,-0.04780020488899471,-0.00266,0.39326000000000005,-0.5262600000000001,19.5,0,1100,544,367,1908,29.3372265625,169940,16.472903621884292,998.9033864823899,0
2024-03-17T15:59:41,-0.26021945775,0.21236300575,10.100702400249999,0.04321871560250959,-0.0003054326190990077,-0.04734205596034619,-0.0007000000000000001,0.39102000000000003,-0.532,19.5,0,1100,544,367,1908,29.3372265625,169940,16.472903621884292,998.9033864823899,0
2024-03-17T15:59:41,-0.2524427843,0.1806581063,10.121639597999998,0.04306599929296009,0.00045814892864851157,-0.04917465167494024,-0.007980000000000001,0.39914000000000005,-0.5278,19.5,0,1100,544,367,1908,29.3493359375,170973,16.44307005600001,998.9050768944918,0
2024-03-17T15:59:41,-0.2763710103,0.19202401365,10.08634546465,0.03772092845872745,-0.004581489286485115,-0.04321871560250959,-0.00854,0.39802000000000004,-0.53662,19.5,0,1100,544,367,1908,29.3493359375,170973,16.44307005600001,998.9050768944918,0
2024-03-17T15:59:41,-0.25663022385,0.21834506225,10.1156575415,0.039095375244672985,-0.0018325957145940463,-0.04046982203061852,-0.00854,0.39802000000000004,-0.53662,19.5,0,1100,544,367,1908,29.3493359375,170973,16.44307005600001,998.9050768944918,0
2024-03-17T15:59:41,-0.24765713909999998,0.22971096959999998,10.07318494035,0.03772092845872745,-0.0070249502392771765,-0.04306599929296009,-0.011340000000000001,0.3955000000000001,-0.5321400000000001,19.5,0,1100,544,367,1908,29.3493359375,170973,16.44307005600001,998.9050768944918,0
2024-03-17T15:59:41,-0.25902304644999996,0.1890329854,10.098907783299998,0.04489859500755413,-0.00595593607243065,-0.04718933965079669,-0.006860000000000001,0.3983,-0.53032,19.5,0,1100,544,367,1908,29.3493359375,170973,16.44307005600001,998.9050768944918,0
2024-03-17T15:59:41,-0.24047867129999997,0.19621145319999997,10.060622621699999,0.07727445263204895,-0.0035124751196385882,-0.04306599929296009,-0.0021000000000000003,0.40026000000000006,-0.5297600000000001,19.5,0,1100,544,367,1908,29.3493359375,170973,16.44307005600001,998.9050768944918,0
2024-03-17T15:59:41,-0.2524427843,0.2009970984,10.089934698549998,0.04077525464971753,-0.0035124751196385882,-0.048411070127192715,-0.0021000000000000003,0.40026000000000006,-0.5297600000000001,19.5,0,1100,544,367,1908,29.3493359375,170973,16.44307005600001,998.9050768944918,0
2024-03-17T15:59:41,-0.24287149389999999,0.21595223965000002,10.11505933585,0.04077525464971753,-0.0038179077387375964,-0.04245513405476207,-0.00266,0.40054,-0.53746,19.5,0,1100,544,367,1908,29.3602734375,170973,16.41318172228043,998.9030782679896,0
2024-03-17T15:59:41,-0.25902304644999996,0.19022939669999997,10.088738287249999,0.03924809155422249,-0.0036651914291880926,-0.04444044607890562,-0.00462,0.3899,-0.5404000000000001,19.5,0,1099,544,367,1907,29.3602734375,170973,16.41318172228043,998.9030782679896,0
2024-03-17T15:59:41,-0.2727817764,0.2237289131,10.09352393245,0.04245513405476207,-0.003054326190990077,-0.04581489286485116,-0.006300000000000001,0.39382000000000006,-0.5423600000000001,19.5,0,1099,544,367,1907,29.3602734375,170973,16.41318172228043,998.9030782679896,0
2024-03-17T15:59:41,-0.24945175605,0.20757736054999998,10.088140081599997,0.03924809155422249,-0.0033597588100890844,-0.0435241482216086,-0.0175,0.3960600000000001,-0.5432,19.5,0,1099,544,367,1907,29.3602734375,170973,16.41318172228043,998.9030782679896,0
2024-03-17T15:59:41,-0.24107687694999996,0.20338992099999997,10.133603711,0.040622538340168025,-0.0009162978572970231,-0.0476474885794452,-0.0175,0.3960600000000001,-0.5432,19.5,0,1099,544,367,1907,29.3602734375,170973,16.41318172228043,998.9030782679896,0
2024-03-17T15:59:41,-0.25543381255,0.19980068709999999,10.10668445675,0.039706240482871004,-0.004123340357836604,-0.04780020488899471,-0.01414,0.39382000000000006,-0.5345200000000001,19.5,0,1099,544,367,1907,29.3602734375,170973,16.41318172228043,998.9030782679896,0
2024-03-17T15:59:41,-0.24705893344999996,0.20817556619999997,10.0821580251,0.03726277953007894,-0.0013744467859455349,-0.04535674393620265,-0.007700000000000001,0.39802000000000004,-0.5411,19.5,0,1099,544,367,1907,29.3602734375,170973,16.41318172228043,998.9030782679896,0
2024-03-17T15:59:41,-0.2656033086,0.18484554585,10.0821580251,0.04245513405476207,-0.0038179077387375964,-0.0435241482216086,-0.007700000000000001,0.39802000000000004,-0.5411,19.5,0,1099,544,367,1907,29.3716015625,172370,16.368098392736883,998.901711390227,0
2024-03-17T15:59:41,-0.26620151425,0.20338992099999997,10.073783145999998,0.043982297150257116,-0.004123340357836604,-0.040622538340168025,-0.007700000000000001,0.39690000000000003,-0.53298,19.5,0,1099,544,367,1907,29.3716015625,172370,16.368098392736883,998.901711390227,0
2024-03-17T15:59:41,-0.24885355039999998,0.2069791549,10.0905329042,0.04276056667386108,-0.0015271630954950385,-0.04535674393620265,-0.012740000000000001,0.39046000000000003,-0.5345200000000001,19.5,0,1099,544,367,1907,29.3716015625,172370,16.368098392736883,998.901711390227,0
2024-03-17T15:59:41,-0.26859433685,0.20997018315,10.0594262104,0.04077525464971753,-0.0019853120241435504,-0.04382958084070761,0.0009800000000000002,0.39186,-0.54922,19.5,0,1099,544,367,1907,29.3716015625,172370,16.368098392736883,998.901711390227,0
2024-03-17T15:59:41,-0.27816562724999994,0.21714865095,10.12104139235,0.00045814892864851157,-0.0018325957145940463,-0.04260785036431157,0.0009800000000000002,0.39186,-0.54922,19.5,0,1099,544,367,1907,29.3716015625,172370,16.368098392736883,998.901711390227,0
2024-03-17T15:59:42,-0.25304098994999996,0.19740786449999997,10.091729315499999,0.041080687268816536,-0.0013744467859455349,-0.04596760917440065,-0.0021000000000000003,0.38878,-0.5441800000000001,19.5,0,1099,544,367,1907,29.3716015625,172370,16.368098392736883,998.901711390227,0
2024-03-17T15:59:42,-0.2500499617,0.21894326790000002,10.0941221381,0.03924809155422249,0.0016798794050445422,-0.041844268816564056,-0.0009800000000000002,0.39270000000000005,-0.5394200000000001,19.5,0,1099,544,367,1907,29.3716015625,172370,16.368098392736883,998.901711390227,0
2024-03-17T15:59:42,-0.29012974025,0.19800607015,10.101898811549999,0.04444044607890562,-0.0012217304763960308,-0.043982297150257116,-0.0009800000000000002,0.39270000000000005,-0.5394200000000001,19.5,0,1099,544,367,1907,29.38234375,172194,16.33821559691212,998.8976039580958,0
2024-03-17T15:59:42,-0.25902304644999996,0.22492532440000002,10.096514960699999,0.041844268816564056,-0.0044287729769356115,-0.04489859500755413,-0.010780000000000001,0.39382000000000006,-0.53438,19.5,0,1099,544,367,1907,29.38234375,172194,16.33821559691212,998.8976039580958,0
2024-03-17T15:59:42,-0.2524427843,0.24346969954999997,10.048658508699999,0.039095375244672985,-0.0022907446432425577,-0.04276056667386108,-0.010780000000000001,0.39382000000000006,-0.53438,19.5,0,1099,544,367,1907,29.38234375,172194,16.33821559691212,998.8976039580958,0
2024-03-17T15:59:42,-0.2584248408,0.18364913454999998,10.1084790737,0.04306599929296009,-0.0022907446432425577,-0.04016438941151951,-0.00854,0.3941,-0.53032,19.5,0,1099,544,367,1907,29.38234375,172194,16.33821559691212,998.8976039580958,0
2024-03-17T15:59:42,-0.28115665549999996,0.21834506225,10.1024970172,0.04550946024575215,-0.0025961772623415654,-0.04734205596034619,-0.0119,0.39130000000000004,-0.5376000000000001,19.5,0,1099,544,367,1907,29.38234375,172194,16.33821559691212,998.8976039580958,0
2024-03-17T15:59:42,-0.26500510294999996,0.20398812665,10.096514960699999,0.040622538340168025,-0.0036651914291880926,-0.04459316238845512,-0.0119,0.39130000000000004,-0.5376000000000001,19.5,0,1099,544,367,1907,29.38234375,172194,16.33821559691212,998.8976039580958,0
2024-03-17T15:59:42,-0.27996024419999993,0.19142580799999998,10.078568791199999,0.04276056667386108,-0.004581489286485115,-0.04535674393620265,-0.007980000000000001,0.39858000000000005,-0.53298,19.5,0,1099,544,367,1907,29.38234375,172194,16.33821559691212,998.8976039580958,0
2024-03-17T15:59:42,-0.21355941705,0.2225325018,10.027123105299998,0.04291328298341058,-0.004123340357836604,-0.04520402762665314,-0.0029400000000000003,0.38934,-0.5383000000000001,19.5,0,1099,544,367,1907,29.3926953125,172546,16.298177058724868,998.9000293545294,0
2024-03-17T15:59:42,-0.26261228035,0.20638094924999997,10.103693428499998,0.04214970143566306,-0.004123340357836604,-0.04718933965079669,-0.00882,0.38654,-0.5369,19.5,0,1099,544,367,1907,29.3926953125,172546,16.298177058724868,998.9000293545294,0
2024-03-17T15:59:42,-0.24526431649999997,0.22911276394999996,10.0821580251,0.04382958084070761,-0.0019853120241435504,-0.04291328298341058,-0.0054600000000000004,0.39858000000000005,-0.5369,19.5,0,1099,544,367,1907,29.3926953125,172546,16.298177058724868,998.9000293545294,0
2024-03-17T15:59:42,-0.2536391956,0.19621145319999997,10.0474620974,0.04214970143566306,0.001069014166846527,-0.04535674393620265,-0.014420000000000002,0.39522,-0.54208,19.5,0,1099,544,367,1907,29.3926953125,172546,16.298177058724868,998.9000293545294,0
2024-03-17T15:59:42,-0.2548356069,0.19621145319999997,10.0893364929,0.04092797095926703,-0.0015271630954950385,-0.04566217655530165,-0.014420000000000002,0.39522,-0.54208,19.5,0,1099,544,367,1907,29.3926953125,172546,16.298177058724868,998.9000293545294,0
2024-03-17T15:59:42,-0.26321048599999997,0.21714865095,10.111470101950001,0.040317105721069016,-0.0012217304763960308,-0.04734205596034619,-0.00882,0.39354,-0.54096,19.5,0,1099,544,367,1907,29.3926953125,172546,16.298177058724868,998.9000293545294,0
2024-03-17T15:59:42,-0.2548356069,0.19262221929999998,10.109077279349998,0.038637226316024474,-0.0012217304763960308,-0.04444044607890562,-0.006860000000000001,0.3901800000000001,-0.5356400000000001,19.5,0,1099,544,367,1907,29.3926953125,172546,16.298177058724868,998.9000293545294,0
2024-03-17T15:59:42,-0.24047867129999997,0.19202401365,10.07916699685,0.04001167310197001,0.0018325957145940463,-0.04153883619746505,-0.006860000000000001,0.3901800000000001,-0.5356400000000001,19.5,0,1099,544,367,1907,29.4032421875,172546,16.263229430915295,998.902770511875,0
2024-03-17T15:59:42,-0.2967100024,0.20039889274999997,10.085747258999998,0.04673119072214818,-0.00595593607243065,-0.04688390703169768,-0.012740000000000001,0.39942,-0.5322800000000001,19.5,0,1099,545,367,1908,29.4032421875,172546,16.263229430915295,998.902770511875,0
2024-03-17T15:59:42,-0.24346969954999997,0.1890329854,10.08036340815,0.0435241482216086,-0.0056505034533316425,-0.043676864531158106,-0.012740000000000001,0.39942,-0.5322800000000001,19.5,0,1099,545,367,1908,29.4032421875,172546,16.263229430915295,998.902770511875,0
2024-03-17T15:59:42,-0.24047867129999997,0.1806581063,10.03250695615,0.03802636107782646,0.001069014166846527,-0.04260785036431157,-0.00602,0.39354,-0.5332600000000001,19.5,0,1099,545,367,1908,29.4032421875,172546,16.263229430915295,998.902770511875,0
2024-03-17T15:59:42,-0.26500510294999996,0.21714865095,10.0821580251,0.04382958084070761,-0.002138028333693054,-0.04474587869800463,-0.013300000000000001,0.38794000000000006,-0.52934,19.5,0,1099,545,367,1908,29.4032421875,172546,16.263229430915295,998.902770511875,0
2024-03-17T15:59:42,-0.25902304644999996,0.19082760235,10.07916699685,0.0435241482216086,-0.0012217304763960308,-0.041386119887915546,-0.013300000000000001,0.38794000000000006,-0.52934,19.5,0,1099,545,367,1908,29.4032421875,172546,16.263229430915295,998.902770511875,0
2024-03-17T15:59:42,-0.25423740125,0.22492532440000002,10.085747258999998,0.04214970143566306,-0.0025961772623415654,-0.04321871560250959,-0.012180000000000002,0.39690000000000003,-0.532,19.5,0,1099,545,367,1908,29.4032421875,172546,16.263229430915295,998.902770511875,0
2024-03-17T15:59:42,-0.27218357075,0.21894326790000002,10.101300605899999,0.03772092845872745,-0.0007635815477475193,-0.04092797095926703,-0.01246,0.3941,-0.5349400000000001,19.5,0,1099,545,367,1908,29.41359375,172900,16.243485106179328,998.9123611385866,0
2024-03-17T15:59:42,-0.25902304644999996,0.20338992099999997,10.076175968599998,0.0433714319120591,-0.0025961772623415654,-0.04688390703169768,-0.01386,0.38822,-0.5353600000000001,19.5,0,1099,545,367,1908,29.41359375,172900,16.243485106179328,998.9123611385866,0
2024-03-17T15:59:42,-0.23449661479999998,0.2165504453,10.1168539528,0.0435241482216086,-0.004123340357836604,-0.04627304179349966,-0.009940000000000001,0.39438000000000006,-0.5335400000000001,19.5,0,1099,545,367,1908,29.41359375,172900,16.243485106179328,998.9123611385866,0
2024-03-17T15:59:42,-0.23868405434999998,0.1950150419,10.067801089499998,0.04444044607890562,0.0003054326190990077,-0.041386119887915546,-0.009940000000000001,0.39438000000000006,-0.5335400000000001,19.5,0,1099,545,367,1908,29.41359375,172900,16.243485106179328,998.9123611385866,0
2024-03-17T15:59:42,-0.24586252214999998,0.22013967919999997,10.1168539528,0.0476474885794452,-0.00045814892864851157,-0.04123340357836604,-0.013020000000000002,0.39466,-0.54334,19.5,0,1099,545,367,1908,29.41359375,172900,16.243485106179328,998.9123611385866,0
2024-03-17T15:59:42,-0.24466611084999998,0.21116659445,10.0821580251,0.04001167310197001,-0.0013744467859455349,-0.04291328298341058,-0.0119,0.39466,-0.53774,19.5,0,1099,545,367,1908,29.41359375,172900,16.243485106179328,998.9123611385866,0
2024-03-17T15:59:42,-0.23688943739999999,0.20398812665,10.085149053349998,0.04489859500755413,-0.003054326190990077,-0.0476474885794452,-0.0119,0.39466,-0.53774,19.5,0,1099,545,367,1908,29.41359375,172900,16.243485106179328,998.9123611385866,0
2024-03-17T15:59:42,-0.2500499617,0.19800607015,10.10668445675,0.039400807863771994,0.0,-0.04596760917440065,-0.009940000000000001,0.3983,-0.54012,19.5,0,1099,545,367,1908,29.423359375,174329,16.193310291082785,998.9102538911205,0
2024-03-17T15:59:42,-0.27936203854999997,0.20937197749999997,10.088140081599997,0.03924809155422249,-0.0025961772623415654,-0.04092797095926703,-0.011340000000000001,0.39186,-0.5306000000000001,19.5,0,1099,545,367,1908,29.423359375,174329,16.193310291082785,998.9102538911205,0
2024-03-17T15:59:42,-0.23569302609999998,0.18364913454999998,10.123434214949999,0.04123340357836604,-0.0024434609527920616,-0.04718933965079669,-0.007980000000000001,0.39970000000000006,-0.5472600000000001,19.5,0,1099,545,367,1908,29.423359375,174329,16.193310291082785,998.9102538911205,0
2024-03-17T15:59:42,-0.24346969954999997,0.2165504453,10.119246775399999,0.04627304179349966,-0.0012217304763960308,-0.048716502746291725,-0.00574,0.3960600000000001,-0.5317200000000001,19.5,0,1099,545,367,1908,29.423359375,174329,16.193310291082785,998.9102538911205,0
2024-03-17T15:59:42,-0.27098715944999996,0.20518453794999997,10.10668445675,0.04214970143566306,-0.0036651914291880926,-0.04566217655530165,-0.00574,0.3960600000000001,-0.5317200000000001,19.5,0,1099,545,367,1908,29.423359375,174329,16.193310291082785,998.9102538911205,0
2024-03-17T15:59:42,-0.24705893344999996,0.20338992099999997,10.092327521149999,0.039553524173321496,-0.005803219762881146,-0.04474587869800463,-0.015540000000000002,0.39354,-0.53508,19.5,0,1099,545,367,1908,29.423359375,174329,16.193310291082785,998.9102538911205,0
2024-03-17T15:59:42,-0.24406790519999996,0.2117648001,10.05882800475,0.041386119887915546,-0.004123340357836604,-0.0435241482216086,-0.006580000000000001,0.39494000000000007,-0.5338200000000001,19.5,0,1099,545,367,1908,29.423359375,174329,16.193310291082785,998.9102538911205,0
2024-03-17T15:59:42,-0.27098715944999996,0.20638094924999997,10.101300605899999,0.03756821214917795,-0.003054326190990077,-0.04123340357836604,-0.006580000000000001,0.39494000000000007,-0.5338200000000001,19.5,0,1099,545,367,1908,29.4337109375,174329,16.168509480710263,998.9090946137028,0
2024-03-17T15:59:43,-0.23389840915,0.20398812665,10.096514960699999,0.040622538340168025,-0.0018325957145940463,-0.04123340357836604,-0.00574,0.39746000000000004,-0.5425,19.5,0,1099,545,367,1908,29.4337109375,174329,16.168509480710263,998.9090946137028,0
2024-03-17T15:59:43,-0.22193429615000002,0.19381863059999999,10.066006472549999,0.039553524173321496,-0.0033597588100890844,-0.04581489286485116,-0.01862,0.3966200000000001,-0.54432,19.5,0,1099,545,367,1908,29.4337109375,174329,16.168509480710263,998.9090946137028,0
2024-03-17T15:59:43,-0.2560320182,0.2069791549,10.09352393245,0.04444044607890562,-0.00595593607243065,-0.04444044607890562,-0.007700000000000001,0.39578,-0.53788,19.5,0,1099,545,367,1908,29.4337109375,174329,16.168509480710263,998.9090946137028,0
2024-03-17T15:59:43,-0.23868405434999998,0.18424734019999997,10.106086251099997,0.038331793696925465,-0.005345070834232635,-0.04550946024575215,-0.00854,0.39158000000000004,-0.5383000000000001,19.5,0,1099,545,367,1908,29.4337109375,174329,16.168509480710263,998.9090946137028,0
2024-03-17T15:59:43,-0.25543381255,0.21236300575,10.09113110985,0.039858956792420505,-0.003054326190990077,-0.04428772976935611,-0.00854,0.39158000000000004,-0.5383000000000001,19.5,0,1099,545,367,1908,29.4337109375,174329,16.168509480710263,998.9090946137028,0
2024-03-17T15:59:43,-0.25543381255,0.20159530404999998,10.109675485,0.041844268816564056,0.0009162978572970231,-0.043982297150257116,-0.01386,0.39914000000000005,-0.5297600000000001,19.5,0,1099,545,367,1908,29.4337109375,174329,16.168509480710263,998.9090946137028,0
2024-03-17T15:59:43,-0.28175486115,0.19920248144999997,10.076774174250001,0.04382958084070761,-0.005192354524683131,-0.04627304179349966,-0.010780000000000001,0.3960600000000001,-0.5292,19.5,0,1099,545,367,1908,29.4450390625,175052,16.13363379751904,998.9077239687374,0
2024-03-17T15:59:43,-0.26739792554999997,0.19800607015,10.04985492,0.040317105721069016,-0.003207042500539581,-0.04489859500755413,-0.007700000000000001,0.39802000000000004,-0.52234,19.5,0,1100,545,367,1908,29.4450390625,175052,16.13363379751904,998.9077239687374,0
2024-03-17T15:59:43,-0.21834506225,0.215354034,10.096514960699999,0.041386119887915546,-0.0012217304763960308,-0.04627304179349966,-0.00266,0.39158000000000004,-0.52598,19.5,0,1100,545,367,1908,29.4450390625,175052,16.13363379751904,998.9077239687374,0
2024-03-17T15:59:43,-0.2548356069,0.19561324754999998,10.04925671435,0.04673119072214818,-0.003207042500539581,-0.04505131131710364,-0.00266,0.39158000000000004,-0.52598,19.5,0,1100,545,367,1908,29.4450390625,175052,16.13363379751904,998.9077239687374,0
2024-03-17T15:59:43,-0.25902304644999996,0.20279171534999998,10.089934698549998,0.04153883619746505,-0.0036651914291880926,-0.04596760917440065,-0.00602,0.39914000000000005,-0.5405400000000001,19.5,0,1100,545,367,1908,29.4450390625,175052,16.13363379751904,998.9077239687374,0
2024-03-17T15:59:43,-0.24765713909999998,0.20937197749999997,10.09352393245,0.041080687268816536,-0.0013744467859455349,-0.04153883619746505,-0.013300000000000001,0.3899,-0.5359200000000001,19.5,0,1100,545,367,1908,29.4450390625,175052,16.13363379751904,998.9077239687374,0
2024-03-17T15:59:43,-0.27696921594999996,0.19142580799999998,10.119844981049999,0.04016438941151951,-0.0054977871437821395,-0.043982297150257116,-0.013300000000000001,0.3899,-0.5359200000000001,19.5,0,1100,545,367,1908,29.4450390625,175052,16.13363379751904,998.9077239687374,0
2024-03-17T15:59:43,-0.25064816735,0.20458633229999998,10.109077279349998,0.041691552507014555,-0.0035124751196385882,-0.04688390703169768,-0.017220000000000003,0.39942,-0.5229000000000001,19.5,0,1100,545,367,1908,29.4548046875,174509,16.103749993058,998.9109900451413,0
2024-03-17T15:59:43,-0.2620140747,0.19561324754999998,10.10309522285,0.0433714319120591,0.0012217304763960308,-0.04245513405476207,-0.01022,0.39522,-0.5286400000000001,19.5,0,1100,545,367,1908,29.4548046875,174509,16.103749993058,998.9109900451413,0
2024-03-17T15:59:43,-0.2727817764,0.19920248144999997,10.091729315499999,0.039858956792420505,-0.003207042500539581,-0.04688390703169768,-0.01414,0.3941,-0.53368,19.5,0,1100,545,367,1908,29.4548046875,174509,16.103749993058,998.9109900451413,0
2024-03-17T15:59:43,-0.22492532440000002,0.20518453794999997,10.10668445675,0.04276056667386108,-0.0033597588100890844,-0.05009094953223726,-0.006580000000000001,0.3971800000000001,-0.53046,19.5,0,1100,545,367,1908,29.4548046875,174509,16.103749993058,998.9109900451413,0
2024-03-17T15:59:43,-0.23748764304999997,0.18484554585,10.18684401385,0.0435241482216086,-0.005345070834232635,-0.04291328298341058,-0.006580000000000001,0.3971800000000001,-0.53046,19.5,0,1100,545,367,1908,29.4548046875,174509,16.103749993058,998.9109900451413,0
2024-03-17T15:59:43,-0.26261228035,0.215354034,10.088140081599997,0.040622538340168025,-0.005345070834232635,-0.04505131131710364,-0.007700000000000001,0.4011,-0.518,19.5,0,1100,545,367,1908,29.4548046875,174509,16.103749993058,998.9109900451413,0
2024-03-17T15:59:43,-0.24227328824999997,0.21355941705,10.094720343749998,0.04077525464971753,-0.0016798794050445422,-0.04245513405476207,-0.014980000000000002,0.39886,-0.5254200000000001,19.5,0,1100,545,367,1908,29.4548046875,174509,16.103749993058,998.9109900451413,0
2024-03-17T15:59:43,-0.24885355039999998,0.18185451760000002,10.04925671435,0.040622538340168025,-0.002138028333693054,-0.04596760917440065,-0.014980000000000002,0.39886,-0.5254200000000001,19.5,0,1100,545,367,1908,29.464375,175598,16.068800835581868,998.9139396504698,0
2024-03-17T15:59:43,-0.25064816735,0.19860427579999998,10.101898811549999,0.04046982203061852,-0.0003054326190990077,-0.039553524173321496,-0.00966,0.39634,-0.52724,19.5,0,1100,545,367,1908,29.464375,175598,16.068800835581868,998.9139396504698,0
2024-03-17T15:59:43,-0.21355941705,0.21116659445,10.130612682750002,0.04428772976935611,-0.003970624048287101,-0.04505131131710364,-0.00966,0.39634,-0.52724,19.5,0,1100,545,367,1908,29.464375,175598,16.068800835581868,998.9139396504698,0
2024-03-17T15:59:43,-0.24406790519999996,0.18305092890000002,10.051649536949999,0.04016438941151951,-0.0018325957145940463,-0.04520402762665314,-0.0071400000000000005,0.39270000000000005,-0.5306000000000001,19.5,0,1100,545,367,1908,29.464375,175598,16.068800835581868,998.9139396504698,0
2024-03-17T15:59:43,-0.22193429615000002,0.22313070744999997,10.114461130199999,0.041386119887915546,0.0015271630954950385,-0.04444044607890562,-0.00882,0.39746000000000004,-0.5367600000000001,19.5,0,1100,545,367,1908,29.464375,175598,16.068800835581868,998.9139396504698,0
2024-03-17T15:59:43,-0.25423740125,0.19441683624999997,10.0749795573,0.04382958084070761,0.0003054326190990077,-0.0435241482216086,-0.00882,0.39746000000000004,-0.5367600000000001,19.5,0,1100,545,367,1908,29.464375,175598,16.068800835581868,998.9139396504698,0
2024-03-17T15:59:43,-0.2703889538,0.20638094924999997,10.067801089499998,0.04260785036431157,-0.004276056667386108,-0.04520402762665314,-0.008260000000000002,0.3901800000000001,-0.5195400000000001,19.5,0,1100,545,367,1908,29.464375,175598,16.068800835581868,998.9139396504698,0
2024-03-17T15:59:43,-0.25304098994999996,0.18185451760000002,10.06122082735,0.041691552507014555,-0.0009162978572970231,-0.04291328298341058,-0.00322,0.39634,-0.52514,19.5,0,1100,545,367,1908,29.47375,175416,16.04397144126611,998.9147811189415,0
2024-03-17T15:59:43,-0.22911276394999996,0.20817556619999997,10.1288180658,0.03726277953007894,-0.0027488935718910697,-0.04428772976935611,0.0035000000000000005,0.39494000000000007,-0.5360600000000001,19.5,0,1100,545,367,1908,29.47375,175416,16.04397144126611,998.9147811189415,0
2024-03-17T15:59:43,-0.24406790519999996,0.21834506225,10.097711372000001,0.041996985126113565,-0.0033597588100890844,-0.04520402762665314,-0.011340000000000001,0.39326000000000005,-0.53368,19.5,0,1100,545,367,1908,29.47375,175416,16.04397144126611,998.9147811189415,0
2024-03-17T15:59:43,-0.23928225999999997,0.18484554585,10.0749795573,0.039706240482871004,-0.0025961772623415654,-0.043676864531158106,-0.011340000000000001,0.39326000000000005,-0.53396,19.5,0,1100,545,367,1908,29.47375,175416,16.04397144126611,998.9147811189415,0
2024-03-17T15:59:43,-0.24526431649999997,0.21116659445,10.094720343749998,0.04474587869800463,-0.0025961772623415654,-0.04596760917440065,0.00042,0.39102000000000003,-0.53396,19.5,0,1100,545,367,1908,29.47375,175416,16.04397144126611,998.9147811189415,0
2024-03-17T15:59:43,-0.24107687694999996,0.19860427579999998,10.0510513313,0.04505131131710364,-0.0025961772623415654,-0.04459316238845512,-0.004900000000000001,0.39634,-0.5306000000000001,19.5,0,1100,545,367,1908,29.47375,175416,16.04397144126611,998.9147811189415,0
2024-03-17T15:59:43,-0.25304098994999996,0.2009970984,10.22393276415,0.04153883619746505,-0.0038179077387375964,-0.04260785036431157,-0.009940000000000001,0.40278,-0.52556,19.5,0,1099,545,367,1907,29.47375,175416,16.04397144126611,998.9147811189415,0
2024-03-17T15:59:43,-0.24526431649999997,0.20937197749999997,10.092327521149999,0.07712173632249944,-0.005345070834232635,-0.04413501345980661,-0.009940000000000001,0.40278,-0.52556,19.5,0,1099,545,367,1907,29.4841015625,175781,16.009076827634114,998.9225780058944,0
2024-03-17T15:59:43,-0.24646072779999997,0.19800607015,10.073783145999998,0.040622538340168025,-0.0027488935718910697,-0.04642575810304917,-0.005180000000000001,0.40278,-0.5257000000000001,19.5,0,1099,545,367,1907,29.4841015625,175781,16.009076827634114,998.9225780058944,0
2024-03-17T15:59:43,-0.24167508259999998,0.20458633229999998,10.114461130199999,0.04382958084070761,-0.004276056667386108,-0.04642575810304917,-0.005180000000000001,0.40278,-0.5257000000000001,19.5,0,1099,545,367,1907,29.4841015625,175781,16.009076827634114,998.9225780058944,0
2024-03-17T15:59:43,-0.23210379219999996,0.21595223965000002,10.097711372000001,0.04214970143566306,0.0006108652381980154,-0.04245513405476207,-0.009380000000000001,0.39690000000000003,-0.5426400000000001,19.5,0,1099,545,367,1907,29.4841015625,175781,16.009076827634114,998.9225780058944,0
2024-03-17T15:59:43,-0.2644068973,0.18424734019999997,10.04088183525,0.043676864531158106,0.0003054326190990077,-0.04581489286485116,-0.01666,0.39158000000000004,-0.51562,19.5,0,1099,545,367,1907,29.4841015625,175781,16.009076827634114,998.9225780058944,0
2024-03-17T15:59:43,-0.2560320182,0.20518453794999997,10.085747258999998,0.04245513405476207,-0.003054326190990077,-0.04963280060358875,-0.01666,0.39158000000000004,-0.51562,19.5,0,1099,545,367,1907,29.4841015625,175781,16.009076827634114,998.9225780058944,0
2024-03-17T15:59:44,-0.26979074815,0.20757736054999998,10.1001041946,0.038942658935123484,0.0006108652381980154,-0.04245513405476207,-0.009940000000000001,0.4011,-0.5241600000000001,19.5,0,1099,545,367,1907,29.4841015625,175781,16.009076827634114,998.9225780058944,0
2024-03-17T15:59:44,-0.25423740125,0.19980068709999999,10.080961613799998,0.040317105721069016,-0.0018325957145940463,-0.04260785036431157,-0.0009800000000000002,0.3966200000000001,-0.5334000000000001,19.5,0,1099,545,367,1907,29.4923046875,177445,15.979140238156956,998.9215219928926,0
2024-03-17T15:59:44,-0.2656033086,0.20578274359999998,10.253843046649997,0.04123340357836604,-0.0027488935718910697,-0.04230241774521256,-0.004340000000000001,0.3966200000000001,-0.5355,19.5,0,1099,545,367,1907,29.4923046875,177445,15.979140238156956,998.9215219928926,0
2024-03-17T15:59:44,-0.23150558654999998,0.21116659445,10.10668445675,0.03726277953007894,-0.004123340357836604,-0.04810563750809371,-0.004340000000000001,0.3966200000000001,-0.5355,19.5,0,1099,545,367,1907,29.4923046875,177445,15.979140238156956,998.9215219928926,0
2024-03-17T15:59:44,-0.23928225999999997,0.20279171534999998,10.068997500799998,0.04245513405476207,-0.005192354524683131,-0.04321871560250959,-0.013580000000000002,0.39242,-0.5345200000000001,19.5,0,1099,545,367,1907,29.4923046875,177445,15.979140238156956,998.9215219928926,0
2024-03-17T15:59:44,-0.26021945775,0.22971096959999998,10.12582703755,0.04306599929296009,0.00045814892864851157,-0.04535674393620265,-0.004900000000000001,0.39214000000000004,-0.5441800000000001,19.5,0,1099,545,367,1907,29.4923046875,177445,15.979140238156956,998.9215219928926,0
2024-03-17T15:59:44,-0.25782663515,0.2225325018,10.061819032999999,0.04291328298341058,-0.0013744467859455349,-0.047952921198544204,-0.004900000000000001,0.39214000000000004,-0.5441800000000001,19.5,0,1099,545,367,1907,29.4923046875,177445,15.979140238156956,998.9215219928926,0
2024-03-17T15:59:44,-0.24705893344999996,0.19262221929999998,10.1072826624,0.039553524173321496,-0.0009162978572970231,-0.048258353817643214,-0.014420000000000002,0.39494000000000007,-0.5364800000000001,19.5,0,1099,545,367,1907,29.4923046875,177445,15.979140238156956,998.9215219928926,0
2024-03-17T15:59:44,-0.27098715944999996,0.2165504453,10.09830957765,0.04260785036431157,-0.002138028333693054,-0.04566217655530165,-0.01022,0.39466,-0.52262,19.5,0,1099,545,367,1907,29.5005078125,176517,15.95426710716725,998.9150904101615,0
