Timestamp,Accel_X,Accel_Y,Accel_Z,Gyro_X,Gyro_Y,Gyro_Z,Mag_X,Mag_Y,Mag_Z,LSM9DS1_Temp,Proximity,Color_R,Color_G,Color_B,Color_C,BME680_Temp,Gas,Humidity,Pressure,Switch_Pressed,GPS_Latitude,GPS_Longitude,GPS_Speed,GPS_Timestamp,Pad_press
2024-03-31T09:28:16,-0.47437708045,-0.06879364974999999,9.9026963301,0.020463985479633514,0.021227567027381034,0.0872010127527667,-0.9580200000000001,0.04242,1.67958,11.5,0,878,390,280,1367,33.574921875,82462,100,695.662002676745,0,,,,N/A,False
2024-03-31T09:28:16,-0.45523449964999996,-0.05084748024999999,9.958329455549999,0.017256942979093935,0.02138028333693054,0.08613199858592017,-0.9580200000000001,0.039060000000000004,1.6885400000000002,11.5,0,878,390,280,1367,33.574921875,82462,100,695.662002676745,0,,,,N/A,False
2024-03-31T09:28:16,-0.48275195955,-0.046660040699999995,9.892526834049999,0.017715091907742446,0.019547687622336492,0.0872010127527667,-0.9599800000000002,0.040740000000000005,1.6877000000000002,11.5,0,878,390,280,1367,33.574921875,82462,100,695.662002676745,0,,,,N/A,False
2024-03-31T09:28:16,-0.4851447821499999,-0.06161518194999999,10.064211855599998,0.015424347264499889,0.018478673455489966,0.08811731061006371,-0.9515800000000001,0.03962,1.6860200000000003,11.5,0,878,390,280,1367,13.4985546875,2263,33.028979597316024,1010.8434159837657,0,,,,N/A,False
2024-03-31T09:28:17,-0.47437708045,-0.022133609050000003,9.945168931249999,0.020158552860534508,0.018478673455489966,0.08460483549042512,-0.9583,0.037380000000000004,1.6770600000000002,11.5,0,878,390,280,1367,13.4985546875,2263,33.028979597316024,1010.8434159837657,0,,,,N/A,False
2024-03-31T09:28:17,-0.48095734259999995,-0.060418770649999995,9.8069834261,0.018478673455489966,0.01756237559819294,0.08827002691961322,-0.9513,0.040740000000000005,1.6734200000000001,11.5,0,878,390,280,1367,13.4985546875,2263,33.028979597316024,1010.8434159837657,0,,,,N/A,False
2024-03-31T09:28:17,-0.5024927459999999,-0.062213387599999996,9.945767136899999,0.017256942979093935,0.02138028333693054,0.0867428638241182,-0.9613800000000001,0.03962,1.6774800000000003,11.5,0,878,390,280,1367,13.7376171875,2926,33.116100453538074,1010.82410459868,0,,,,N/A,False
2024-03-31T09:28:17,-0.48933222169999996,-0.035892338999999995,9.9469635482,0.01832595714594046,0.021227567027381034,0.08994990632465777,-0.9664200000000001,0.035980000000000005,1.6801400000000002,11.5,0,878,390,280,1367,13.7376171875,2926,33.116100453538074,1010.82410459868,0,,,,N/A,False
2024-03-31T09:28:17,-0.4899304273499999,-0.04366901245,9.94397251995,0.020769418098732523,0.02260201381332657,0.08552113334772216,-0.96418,0.032900000000000006,1.6892400000000003,11.5,0,878,390,280,1367,13.7376171875,2926,33.116100453538074,1010.82410459868,0,,,,N/A,False
2024-03-31T09:28:17,-0.5300102058999999,-0.05682953674999999,9.93320481825,0.016493361431346415,0.019853120241435502,0.0867428638241182,-0.9583,0.04438,1.67944,11.5,0,878,390,280,1367,14.1407421875,3481,33.19463549435527,1010.8154778212563,0,,,,N/A,False
2024-03-31T09:28:17,-0.47377887479999997,-0.0346959277,9.9349994352,0.017409659288643436,0.01832595714594046,0.08765916168141522,-0.9518600000000002,0.04102,1.6772000000000002,11.5,0,878,390,280,1367,14.1407421875,3481,33.19463549435527,1010.8154778212563,0,,,,N/A,False
2024-03-31T09:28:17,-0.48454657649999994,-0.05443671415,9.945168931249999,0.018020524526841455,0.019547687622336492,0.08582656596682116,-0.9583,0.04326000000000001,1.66362,11.5,0,878,390,280,1367,14.1407421875,3481,33.19463549435527,1010.8154778212563,0,,,,N/A,False
2024-03-31T09:28:17,-0.47736810869999996,-0.05084748024999999,9.932008406949999,0.02061670178918302,0.015577063574049392,0.0867428638241182,-0.9504600000000001,0.03626000000000001,1.6793000000000002,11.5,0,878,390,280,1367,14.5841015625,4026,33.2543260052736,1010.8065931095173,0,,,,N/A,False
2024-03-31T09:28:17,-0.49172504429999997,-0.058624153699999994,9.9649097177,0.016493361431346415,0.020769418098732523,0.08750644537186571,-0.9569000000000001,0.045500000000000006,1.6819600000000003,11.5,0,893,400,294,1404,14.5841015625,4026,33.2543260052736,1010.8065931095173,0,,,,N/A,False
2024-03-31T09:28:17,-0.4677968183,-0.08015955709999999,10.050453125649998,0.020769418098732523,0.016951510359994926,0.08475755179997463,-0.9529800000000002,0.037380000000000004,1.6793000000000002,11.5,0,893,400,294,1404,14.5841015625,4026,33.2543260052736,1010.8065931095173,0,,,,N/A,False
2024-03-31T09:28:17,-0.46719861264999996,-0.07118647234999999,9.91525864875,0.019547687622336492,0.018478673455489966,0.0910189204915043,-0.9597,0.028700000000000003,1.6458400000000002,11.5,0,893,400,294,1404,15.0122265625,4522,33.29046430612459,1010.8205393185127,0,,,,N/A,False
2024-03-31T09:28:17,-0.46660040699999994,-0.0191425808,9.967900745949999,0.020311269170084013,0.02138028333693054,0.08750644537186571,-0.96558,0.0427,1.6587200000000002,11.5,0,893,400,294,1404,15.0122265625,4522,33.29046430612459,1010.8205393185127,0,,,,N/A,False
2024-03-31T09:28:17,-0.4821537538999999,-0.057427742399999995,9.9960164115,0.019853120241435502,0.018784106074588976,0.08781187799096472,-0.96194,0.04438,1.6585800000000002,11.5,0,893,400,294,1404,15.0122265625,4522,33.29046430612459,1010.8205393185127,0,,,,N/A,False
2024-03-31T09:28:17,-0.48574298779999997,-0.06759723845,10.021141048799999,0.020158552860534508,0.018784106074588976,0.08857545953871222,-0.9616600000000001,0.04578,1.66544,11.5,0,893,400,294,1404,15.3993359375,5034,33.3345672172789,1010.830318260739,0,,,,N/A,False
2024-03-31T09:28:17,-0.49531427819999996,-0.06281159324999999,9.999007439749999,0.01863138976503947,0.02061670178918302,0.08597928227637067,-0.96418,0.0371,1.6793000000000002,11.5,0,893,400,294,1404,15.3993359375,5034,33.3345672172789,1010.830318260739,0,,,,N/A,False
2024-03-31T09:28:17,-0.47676990305,-0.04606183504999999,10.010971552749998,0.01710422666954443,0.019242255003237483,0.08903360846736075,-0.95382,0.04242,1.66012,11.5,0,893,400,294,1404,15.3993359375,5034,33.3345672172789,1010.830318260739,0,,,,N/A,False
2024-03-31T09:28:18,-0.46719861264999996,-0.0646062102,9.975079213749998,0.014049900478554353,0.019089538693687978,0.08735372906231621,-0.9546600000000001,0.041580000000000006,1.65508,11.5,0,893,400,294,1404,15.7399609375,5516,33.35232670767578,1010.835805876851,0,,,,N/A,False
2024-03-31T09:28:18,-0.4779663143499999,-0.053240302850000004,9.994221794549999,0.018784106074588976,0.01786780821729195,0.08827002691961322,-0.9639000000000001,0.03962,1.66362,11.5,0,893,400,294,1404,15.7399609375,5516,33.35232670767578,1010.835805876851,0,,,,N/A,False
2024-03-31T09:28:18,-0.50548377425,-0.07238288365,10.0175518149,0.01710422666954443,0.017715091907742446,0.08765916168141522,-0.9552200000000002,0.040740000000000005,1.6765000000000003,11.5,0,893,400,294,1404,15.7399609375,5516,33.35232670767578,1010.835805876851,0,,,,N/A,False
2024-03-31T09:28:18,-0.48454657649999994,-0.05563312545,10.019944637499998,0.05879577917655898,-0.10949759394699426,-0.05696318346196494,-0.9566200000000001,0.03402,1.67216,11.5,0,893,400,294,1404,16.03546875,5969,33.360685692048506,1010.8394786892849,0,,,,N/A,False
2024-03-31T09:28:18,-0.4815555482499999,-0.06101697629999999,10.12223780365,0.0433714319120591,-0.0238237442897226,-0.052534410485029326,-0.9627800000000001,0.03374,1.6504600000000003,11.5,0,893,400,294,1404,16.03546875,5969,33.360685692048506,1010.8394786892849,0,,,,N/A,False
2024-03-31T09:28:18,-0.4779663143499999,-0.04606183504999999,10.039685423949999,0.03512475119638588,0.0033597588100890844,-0.04734205596034619,-0.9591400000000001,0.039060000000000004,1.6535400000000002,11.5,0,893,400,294,1404,16.03546875,5969,33.360685692048506,1010.8394786892849,0,,,,N/A,False
2024-03-31T09:28:18,-0.50787659685,-0.06161518194999999,10.036096190049998,0.03344487179134134,0.01618792881224741,-0.050701814770435276,-0.95382,0.050820000000000004,1.65284,11.5,0,893,400,294,1404,16.2887890625,6500,33.376773713995995,1010.8323317720875,0,,,,N/A,False
2024-03-31T09:28:18,-0.4935196612499999,-0.06520441585,10.0773723799,0.03405573702953936,0.01863138976503947,-0.04917465167494024,-0.9636200000000001,0.04018000000000001,1.6580200000000003,11.5,0,893,400,294,1404,16.2887890625,6500,33.376773713995995,1010.8323317720875,0,,,,N/A,False
2024-03-31T09:28:18,-0.4959124838499999,-0.0334995164,10.0582297991,0.0355829001250344,0.02107485071783153,-0.0435241482216086,-0.9577400000000001,0.03514,1.67818,11.5,0,893,400,294,1404,16.2887890625,6500,33.376773713995995,1010.8323317720875,0,,,,N/A,False
2024-03-31T09:28:18,-0.34815568830000004,-0.07537391189999999,10.04566748045,0.036499197982331415,0.016798794050445424,-0.04550946024575215,-0.96082,0.038500000000000006,1.6660000000000001,11.5,0,893,400,294,1404,16.5059765625,7011,33.36159386110443,1010.835103530531,0,,,,N/A,False
2024-03-31T09:28:18,-0.48035913694999993,-0.05204389154999999,10.02772131095,0.03604104905368291,0.013439035240356337,-0.04260785036431157,-0.9591400000000001,0.038220000000000004,1.6693600000000002,11.5,0,893,400,294,1404,16.5059765625,7011,33.36159386110443,1010.835103530531,0,,,,N/A,False
2024-03-31T09:28:18,-0.46660040699999994,-0.051445685899999996,10.028917722249998,0.03588833274413341,0.014355333097653362,-0.03772092845872745,-0.95942,0.0413,1.6535400000000002,11.5,0,893,400,294,1404,16.5059765625,7011,33.36159386110443,1010.835103530531,0,,,,N/A,False
2024-03-31T09:28:18,-0.4935196612499999,-0.057427742399999995,10.04207824655,0.03527746750593539,0.011759155835311796,-0.03665191429188092,-0.9591400000000001,0.03962,1.64108,11.5,0,893,400,294,1404,16.691328125,7517,33.33240889549393,1010.8304460518375,0,,,,N/A,False
2024-03-31T09:28:18,-0.48454657649999994,-0.03409772205,10.02652489965,0.03420845333908886,0.006566801310628666,-0.03298672286269283,-0.9521400000000001,0.03794,1.6766400000000001,11.5,0,893,400,294,1404,16.691328125,7517,33.33240889549393,1010.8304460518375,0,,,,N/A,False
2024-03-31T09:28:18,-0.47258246349999994,-0.04127618984999999,10.06361364995,0.038942658935123484,0.0013744467859455349,-0.03543018381548489,-0.9485000000000001,0.04018000000000001,1.6725800000000002,11.5,0,893,400,294,1404,16.691328125,7517,33.33240889549393,1010.8304460518375,0,,,,N/A,False
2024-03-31T09:28:18,-0.4839483708499999,-0.0370887503,10.08634546465,0.038179077387375956,0.0054977871437821395,-0.03756821214917795,-0.9627800000000001,0.03318,1.6529800000000003,11.5,0,893,400,294,1403,16.8489453125,8033,33.30084642461734,1010.8287641844393,0,,,,N/A,False
2024-03-31T09:28:19,-0.5060819798999999,-0.037686955949999996,10.00498949625,0.039553524173321496,0.003054326190990077,-0.038179077387375956,-0.9543800000000001,0.04438,1.6588600000000002,11.5,0,893,400,294,1403,16.8489453125,8033,33.30084642461734,1010.8287641844393,0,,,,N/A,False
2024-03-31T09:28:19,-0.47258246349999994,-0.04486542375,10.02772131095,0.038179077387375956,0.002138028333693054,-0.038331793696925465,-0.9563400000000002,0.032900000000000006,1.64794,11.5,0,893,400,294,1403,16.8489453125,8033,33.30084642461734,1010.8287641844393,0,,,,N/A,False
2024-03-31T09:28:19,-0.48275195955,-0.059222359349999996,10.039087218299999,0.03466660226773738,0.005192354524683131,-0.03634648167278191,-0.95858,0.04522,1.6819600000000003,11.5,0,893,400,294,1403,16.985859375,8549,33.28443739456157,1010.8418020052048,0,,,,N/A,False
2024-03-31T09:28:19,-0.4911268386499999,-0.046660040699999995,10.030114133549999,0.03436116964863837,0.003207042500539581,-0.03741549583962844,-0.9605400000000001,0.03962,1.6688000000000003,11.5,0,893,400,294,1403,16.985859375,8549,33.28443739456157,1010.8418020052048,0,,,,N/A,False
2024-03-31T09:28:19,-0.48693939909999995,-0.049651068949999995,10.0462656861,0.03634648167278191,0.004581489286485115,-0.038789942625573975,-0.95494,0.033460000000000004,1.6720200000000003,11.5,0,893,400,294,1403,16.985859375,8549,33.28443739456157,1010.8418020052048,0,,,,N/A,False
2024-03-31T09:28:19,-0.4761716973999999,-0.049651068949999995,10.046863891749998,0.040317105721069016,0.0019853120241435504,-0.03741549583962844,-0.9686600000000001,0.04242,1.67636,11.5,0,893,400,294,1403,17.1034375,9056,33.243792641186424,1010.8542912698041,0,,,,N/A,False
2024-03-31T09:28:19,-0.4881358103999999,-0.05982056499999999,10.0319087505,0.03497203488683638,0.0038179077387375964,-0.03436116964863837,-0.9602600000000001,0.038220000000000004,1.6587200000000002,11.5,0,893,400,294,1403,17.1034375,9056,33.243792641186424,1010.8542912698041,0,,,,N/A,False
2024-03-31T09:28:19,-0.5012963347,-0.0502492746,10.037890806999998,0.039706240482871004,0.0038179077387375964,-0.03451388595818787,-0.96194,0.0413,1.6832200000000002,11.5,0,893,400,294,1403,17.1034375,9056,33.243792641186424,1010.8542912698041,0,,,,N/A,False
2024-03-31T09:28:19,-0.4701896408999999,-0.04247260115,10.03729260135,0.04077525464971753,0.005803219762881146,-0.03588833274413341,-0.9566200000000001,0.042140000000000004,1.6888200000000002,11.5,0,893,400,294,1403,17.2051953125,9575,33.196146964884555,1010.8457186934339,0,,,,N/A,False
2024-03-31T09:28:19,-0.48035913694999993,-0.0382851616,10.018150020550001,0.036193765363232405,0.002901609881440573,-0.036499197982331415,-0.95382,0.03934,1.65788,11.5,0,893,400,294,1403,17.2051953125,9575,33.196146964884555,1010.8457186934339,0,,,,N/A,False
2024-03-31T09:28:19,-0.4881358103999999,-0.04606183504999999,10.04925671435,0.038637226316024474,-0.0015271630954950385,-0.03756821214917795,-0.9599800000000002,0.035980000000000005,1.6630600000000002,11.5,0,893,400,294,1403,17.2051953125,9575,33.196146964884555,1010.8457186934339,0,,,,N/A,False
2024-03-31T09:28:19,-0.46600220135,-0.0538385085,10.0438728635,0.03665191429188092,0.0016798794050445422,-0.03313943917224234,-0.9569000000000001,0.04018000000000001,1.6650200000000002,11.5,0,893,400,294,1404,17.296015625,10060,33.164489945626784,1010.8523524011903,0,,,,N/A,False
2024-03-31T09:28:19,-0.47856451999999994,-0.041874395499999995,10.015757197949998,0.04001167310197001,0.0036651914291880926,-0.03726277953007894,-0.9566200000000001,0.0371,1.6800000000000002,11.5,0,893,400,294,1404,17.296015625,10060,33.164489945626784,1010.8523524011903,0,,,,N/A,False
2024-03-31T09:28:19,-0.47676990305,-0.057427742399999995,10.07916699685,0.03207042500539581,0.001069014166846527,-0.03344487179134134,-0.9597,0.037380000000000004,1.69456,11.5,0,893,400,294,1404,17.296015625,10060,33.164489945626784,1010.8523524011903,0,,,,N/A,False
2024-03-31T09:28:19,-0.4755734917499999,-0.0538385085,10.03250695615,0.03481931857728687,0.0044287729769356115,-0.0355829001250344,-0.9583,0.04102,1.6905000000000003,11.5,0,893,400,294,1404,17.3755078125,10640,33.10929696665548,1010.8594884348345,0,,,,N/A,False
2024-03-31T09:28:19,-0.4821537538999999,-0.05682953674999999,10.078568791199999,0.03772092845872745,0.0054977871437821395,-0.040317105721069016,-0.95606,0.04662,1.66992,11.5,0,893,400,294,1404,17.3755078125,10640,33.10929696665548,1010.8594884348345,0,,,,N/A,False
2024-03-31T09:28:19,-0.47856451999999994,-0.0538385085,10.0438728635,0.038484510006474966,0.003970624048287101,-0.038179077387375956,-0.9515800000000001,0.040740000000000005,1.6697800000000003,11.5,0,893,400,294,1404,17.3755078125,10640,33.10929696665548,1010.8594884348345,0,,,,N/A,False
2024-03-31T09:28:20,-0.47198425785,-0.05204389154999999,10.045069274799998,0.04046982203061852,0.002138028333693054,-0.039706240482871004,-0.9541000000000002,0.038220000000000004,1.6738400000000002,11.5,0,893,400,294,1404,17.4454296875,11135,33.058930058307595,1010.8471846161654,0,,,,N/A,False
2024-03-31T09:28:20,-0.47258246349999994,-0.0634097989,10.04566748045,0.038789942625573975,0.0038179077387375964,-0.03634648167278191,-0.9653,0.03234,1.67958,11.5,0,893,400,294,1404,17.4454296875,11135,33.058930058307595,1010.8471846161654,0,,,,N/A,False
2024-03-31T09:28:20,-0.4701896408999999,-0.04307080679999999,10.0414800409,0.03588833274413341,0.0016798794050445422,-0.039858956792420505,-0.9625000000000001,0.045500000000000006,1.68504,11.5,0,893,400,294,1404,17.4454296875,11135,33.058930058307595,1010.8471846161654,0,,,,N/A,False
2024-03-31T09:28:20,-0.48035913694999993,-0.04007977854999999,10.048658508699999,0.03634648167278191,0.0044287729769356115,-0.039858956792420505,-0.96194,0.04494000000000001,1.64864,11.5,0,893,400,294,1404,17.5075390625,11653,32.99098960159474,1010.8359598475578,0,,,,N/A,False
2024-03-31T09:28:20,-0.48275195955,-0.0526420972,10.052247742599999,0.041080687268816536,0.0,-0.038179077387375956,-0.9625000000000001,0.041580000000000006,1.6522800000000002,11.5,0,893,400,294,1404,17.5075390625,11653,32.99098960159474,1010.8359598475578,0,,,,N/A,False
2024-03-31T09:28:20,-0.48335016519999996,-0.047856451999999994,10.034899778749999,0.03344487179134134,0.0018325957145940463,-0.03604104905368291,-0.9555000000000001,0.04102,1.6626400000000001,11.5,0,894,400,294,1405,17.5075390625,11653,32.99098960159474,1010.8359598475578,0,,,,N/A,False
2024-03-31T09:28:20,-0.46121655614999996,-0.059222359349999996,10.07916699685,0.03772092845872745,0.006261368691529657,-0.03802636107782646,-0.9597,0.034300000000000004,1.6675400000000002,11.5,0,894,400,294,1405,17.563203125,12102,32.94505625607322,1010.8368906755677,0,,,,N/A,False
2024-03-31T09:28:20,-0.4821537538999999,-0.035892338999999995,10.05643518215,0.03726277953007894,0.0038179077387375964,-0.03634648167278191,-0.9577400000000001,0.043820000000000005,1.6531200000000001,11.5,0,894,400,294,1405,17.563203125,12102,32.94505625607322,1010.8368906755677,0,,,,N/A,False
2024-03-31T09:28:20,-0.47198425785,-0.058624153699999994,10.089934698549998,0.03772092845872745,0.0033597588100890844,-0.03481931857728687,-0.9513,0.039060000000000004,1.6466800000000001,11.5,0,894,400,294,1405,17.563203125,12102,32.94505625607322,1010.8368906755677,0,,,,N/A,False
2024-03-31T09:28:20,-0.46480579005,-0.06520441585,10.039087218299999,0.04092797095926703,0.0016798794050445422,-0.03802636107782646,-0.9510200000000001,0.039900000000000005,1.6382800000000002,11.5,0,894,400,294,1405,17.6133984375,12692,32.876127783217086,1010.8322471134209,0,,,,N/A,False
2024-03-31T09:28:20,-0.47138605219999996,-0.04127618984999999,10.096514960699999,0.039095375244672985,0.002138028333693054,-0.038179077387375956,-0.9580200000000001,0.04662,1.6594200000000001,11.5,0,894,400,294,1405,17.6133984375,12692,32.876127783217086,1010.8322471134209,0,,,,N/A,False
2024-03-31T09:28:20,-0.4731806691499999,-0.056231331100000004,10.04207824655,0.03588833274413341,0.003054326190990077,-0.03924809155422249,-0.9599800000000002,0.04438,1.6468200000000002,11.5,0,894,400,294,1405,17.6133984375,12692,32.876127783217086,1010.8322471134209,0,,,,N/A,False
2024-03-31T09:28:20,-0.5946164160999999,-0.09032905315,10.061819032999999,0.03695734691097993,0.0070249502392771765,-0.04016438941151951,-0.9577400000000001,0.03486000000000001,1.67538,11.5,0,894,400,294,1405,17.6575390625,13217,32.81796576326334,1010.8280990448281,0,,,,N/A,False
2024-03-31T09:28:20,-0.4731806691499999,-0.05204389154999999,10.06122082735,0.03634648167278191,0.0054977871437821395,-0.038331793696925465,-0.9496200000000001,0.038220000000000004,1.65718,11.5,0,894,400,294,1405,17.6575390625,13217,32.81796576326334,1010.8280990448281,0,,,,N/A,False
2024-03-31T09:28:20,-0.44805603185,-0.06999006104999998,10.052247742599999,0.0003054326190990077,0.0012217304763960308,-0.03359758810089085,-0.9532600000000001,0.03402,1.6423400000000001,11.5,0,894,400,294,1405,17.6575390625,13217,32.81796576326334,1010.8280990448281,0,,,,N/A,False
2024-03-31T09:28:20,-0.5551348432,-0.06281159324999999,9.991230766299998,0.03741549583962844,0.001069014166846527,-0.04016438941151951,-0.9507400000000001,0.03542,1.6507400000000003,11.5,0,894,400,294,1405,17.6993359375,13688,32.759619814380486,1010.8235708136278,0,,,,N/A,False
2024-03-31T09:28:20,-0.50309095165,-0.0693918554,10.0187482262,0.03543018381548489,0.0012217304763960308,-0.03451388595818787,-0.9529800000000002,0.0371,1.6844800000000002,11.5,0,894,400,294,1405,17.6993359375,13688,32.759619814380486,1010.8235708136278,0,,,,N/A,False
2024-03-31T09:28:21,-0.45463629399999994,-0.05563312545,10.0558369765,0.038179077387375956,0.0007635815477475193,-0.037110063220529434,-0.9507400000000001,0.03878,1.6742600000000003,11.5,0,894,400,294,1405,17.6993359375,13688,32.759619814380486,1010.8235708136278,0,,,,N/A,False
2024-03-31T09:28:21,-0.4881358103999999,-0.058624153699999994,10.052247742599999,0.03787364476827696,0.0025961772623415654,-0.03390302071998985,-0.9473800000000001,0.03682,1.67006,11.5,0,894,400,294,1405,17.7387890625,14243,32.68420990206995,1010.827465157844,0,,,,N/A,False
2024-03-31T09:28:21,-0.4821537538999999,-0.0634097989,10.027123105299998,0.038942658935123484,0.004886921905584123,-0.03451388595818787,-0.9577400000000001,0.0427,1.6650200000000002,11.5,0,894,400,294,1405,17.7387890625,14243,32.68420990206995,1010.827465157844,0,,,,N/A,False
2024-03-31T09:28:21,-0.49292145559999995,-0.05204389154999999,10.055238770849998,0.03695734691097993,0.004123340357836604,-0.03543018381548489,-0.96082,0.04494000000000001,1.6774800000000003,11.5,0,894,400,294,1405,17.7387890625,14243,32.68420990206995,1010.827465157844,0,,,,N/A,False
2024-03-31T09:28:21,-0.4911268386499999,-0.0669990328,10.0462656861,0.041691552507014555,0.00473420559603462,-0.039858956792420505,-0.9541000000000002,0.043820000000000005,1.6814,11.5,0,894,400,294,1405,17.7753125,14741,32.61420521540903,1010.8317704820045,0,,,,N/A,False
2024-03-31T09:28:21,-0.5335994398,-0.07058826669999999,9.986445121099997,0.03604104905368291,0.004123340357836604,-0.0355829001250344,-0.9625000000000001,0.042980000000000004,1.67636,11.5,0,894,400,294,1405,17.7753125,14741,32.61420521540903,1010.8317704820045,0,,,,N/A,False
2024-03-31T09:28:21,-0.47437708045,-0.01256231865,10.085149053349998,0.03787364476827696,0.0036651914291880926,-0.037110063220529434,-0.9625000000000001,0.03374,1.6830800000000001,11.5,0,894,400,294,1405,17.7753125,14741,32.61420521540903,1010.8317704820045,0,,,,N/A,False
2024-03-31T09:28:21,-0.48873401604999994,-0.015553346899999999,10.03250695615,0.038484510006474966,0.00015271630954950385,-0.03588833274413341,-0.95354,0.037660000000000006,1.6604,11.5,0,894,400,294,1405,17.8096875,15352,32.55528816249163,1010.8254617928438,0,,,,N/A,False
2024-03-31T09:28:21,-0.48035913694999993,-0.035892338999999995,10.040283629599998,0.03481931857728687,0.004581489286485115,-0.03695734691097993,-0.9527,0.04326000000000001,1.6521400000000002,11.5,0,894,400,294,1405,17.8096875,15352,32.55528816249163,1010.8254617928438,0,,,,N/A,False
2024-03-31T09:28:21,-0.46660040699999994,-0.04307080679999999,10.067801089499998,0.03726277953007894,0.0009162978572970231,-0.03588833274413341,-0.9591400000000001,0.04354000000000001,1.6639000000000002,11.5,0,894,400,294,1405,17.8096875,15352,32.55528816249163,1010.8254617928438,0,,,,N/A,False
2024-03-31T09:28:21,-0.4899304273499999,-0.04606183504999999,10.039087218299999,0.041996985126113565,0.0025961772623415654,-0.03772092845872745,-0.9518600000000002,0.0427,1.67636,11.5,0,894,400,294,1405,17.8411328125,15753,32.48490046533989,1010.8213261261585,0,,,,N/A,False
2024-03-31T09:28:21,-0.48693939909999995,-0.06640082715,10.04207824655,0.03787364476827696,0.0013744467859455349,-0.04001167310197001,-0.9588600000000002,0.041580000000000006,1.68364,11.5,0,893,400,294,1404,17.8411328125,15753,32.48490046533989,1010.8213261261585,0,,,,N/A,False
2024-03-31T09:28:21,-0.4677968183,-0.05084748024999999,10.04207824655,0.038331793696925465,0.0015271630954950385,-0.03375030441044035,-0.9515800000000001,0.0427,1.6823800000000002,11.5,0,893,400,294,1404,17.8411328125,15753,32.48490046533989,1010.8213261261585,0,,,,N/A,False
2024-03-31T09:28:21,-0.46899322959999995,-0.0334995164,10.110871896299999,0.039553524173321496,0.0033597588100890844,-0.03772092845872745,-0.9622200000000002,0.04438,1.6618000000000002,11.5,0,893,400,294,1404,17.870234375,16314,32.419958948233386,1010.816816424437,0,,,,N/A,False
2024-03-31T09:28:21,-0.44446679795,-0.05503491979999999,10.028319516599998,0.04016438941151951,0.0024434609527920616,-0.036193765363232405,-0.95858,0.0413,1.67216,11.5,0,893,400,294,1404,17.870234375,16314,32.419958948233386,1010.816816424437,0,,,,N/A,False
2024-03-31T09:28:21,-0.48454657649999994,-0.0263210486,10.055238770849998,0.038484510006474966,-0.0015271630954950385,-0.03756821214917795,-0.9583,0.03878,1.6910600000000002,11.5,0,893,400,294,1404,17.870234375,16314,32.419958948233386,1010.816816424437,0,,,,N/A,False
2024-03-31T09:28:21,-0.4941178668999999,-0.04247260115,10.0462656861,0.03756821214917795,0.005345070834232635,-0.03634648167278191,-0.9611000000000002,0.038220000000000004,1.6835000000000002,11.5,0,893,400,294,1404,17.899140625,16848,32.35502513063097,1010.8225427226754,0,,,,N/A,False
2024-03-31T09:28:22,-0.48933222169999996,-0.06580262149999999,9.981061270249999,0.036499197982331415,0.002138028333693054,-0.03512475119638588,-0.95494,0.039900000000000005,1.6783200000000003,11.5,0,893,400,294,1404,17.899140625,16848,32.35502513063097,1010.8225427226754,0,,,,N/A,False
2024-03-31T09:28:22,-0.49471607254999994,-0.029910282499999996,10.0558369765,0.0355829001250344,0.0015271630954950385,-0.03451388595818787,-0.95942,0.04186000000000001,1.6563400000000001,11.5,0,893,400,294,1404,17.899140625,16848,32.35502513063097,1010.8225427226754,0,,,,N/A,False
2024-03-31T09:28:22,-0.49830530645,-0.06879364974999999,10.076774174250001,0.03756821214917795,-0.0006108652381980154,-0.037110063220529434,-0.9625000000000001,0.03458000000000001,1.6637600000000001,11.5,0,893,400,294,1404,17.927265625,17361,32.278824489121085,1010.8269690433943,0,,,,N/A,False
2024-03-31T09:28:22,-0.50907300815,-0.0646062102,10.0187482262,0.03543018381548489,0.005039638215133627,-0.03497203488683638,-0.9580200000000001,0.043820000000000005,1.6835000000000002,11.5,0,893,400,294,1404,17.927265625,17361,32.278824489121085,1010.8269690433943,0,,,,N/A,False
2024-03-31T09:28:22,-0.46061835049999994,-0.059222359349999996,10.039685423949999,0.041996985126113565,0.003207042500539581,-0.0357356164345839,-0.9569000000000001,0.04102,1.6766400000000001,11.5,0,893,400,294,1404,17.927265625,17361,32.278824489121085,1010.8269690433943,0,,,,N/A,False
2024-03-31T09:28:22,-0.45643091095,-0.0646062102,10.071390323399998,0.037110063220529434,-0.0003054326190990077,-0.03390302071998985,-0.9650200000000001,0.0497,1.7070200000000002,11.5,0,893,400,294,1404,17.953046875,17846,32.21928913129345,1010.8310237569746,0,,,,N/A,False
2024-03-31T09:28:22,-0.46839502395,-0.05503491979999999,10.04088183525,0.03466660226773738,0.0044287729769356115,-0.03802636107782646,-0.95858,0.041580000000000006,1.65158,11.5,0,893,400,294,1404,17.953046875,17846,32.21928913129345,1010.8310237569746,0,,,,N/A,False
2024-03-31T09:28:22,-0.4815555482499999,-0.0693918554,10.042676452199998,0.03741549583962844,0.0012217304763960308,-0.036193765363232405,-0.9557800000000001,0.04242,1.6643200000000002,11.5,0,893,400,294,1404,17.953046875,17846,32.21928913129345,1010.8310237569746,0,,,,N/A,False
2024-03-31T09:28:22,-0.48574298779999997,-0.06281159324999999,10.0175518149,0.03695734691097993,0.006261368691529657,-0.040622538340168025,-0.9566200000000001,0.046900000000000004,1.6675400000000002,11.5,0,893,400,294,1404,17.9770703125,18406,32.14841015556162,1010.8321582364223,0,,,,N/A,False
2024-03-31T09:28:22,-0.47736810869999996,-0.04905286329999999,10.060024416049998,0.039858956792420505,0.003207042500539581,-0.038484510006474966,-0.9613800000000001,0.03682,1.68714,11.5,0,893,400,294,1404,17.9770703125,18406,32.14841015556162,1010.8321582364223,0,,,,N/A,False
2024-03-31T09:28:22,-0.5036891573,-0.04366901245,10.09113110985,0.07452555906015788,-0.00045814892864851157,-0.03756821214917795,-0.9563400000000002,0.03934,1.6643200000000002,11.5,0,893,400,294,1404,17.9770703125,18406,32.14841015556162,1010.8321582364223,0,,,,N/A,False
2024-03-31T09:28:22,-0.46480579005,-0.046660040699999995,10.052247742599999,0.03665191429188092,0.0025961772623415654,-0.03436116964863837,-0.9602600000000001,0.041580000000000006,1.6583,11.5,0,893,400,294,1404,17.9993359375,18935,32.08301807021326,1010.8303727094157,0,,,,N/A,False
2024-03-31T09:28:22,-0.5371886737,-0.005982056499999999,10.09830957765,0.03466660226773738,0.0022907446432425577,-0.03787364476827696,-0.96082,0.035980000000000005,1.6671200000000002,11.5,0,893,400,294,1404,17.9993359375,18935,32.08301807021326,1010.8303727094157,0,,,,N/A,False
2024-03-31T09:28:22,-0.48275195955,-0.040677984199999996,10.08155981945,0.0357356164345839,0.0003054326190990077,-0.036193765363232405,-0.9686600000000001,0.03458000000000001,1.68812,11.5,0,893,400,294,1404,17.9993359375,18935,32.08301807021326,1010.8303727094157,0,,,,N/A,False
2024-03-31T09:28:22,-0.50907300815,-0.06879364974999999,10.0115697584,0.04153883619746505,0.0006108652381980154,-0.03924809155422249,-0.96082,0.042980000000000004,1.67958,11.5,0,893,400,294,1404,18.020234375,19459,32.01753653872951,1010.8386431393621,0,,,,N/A,False
2024-03-31T09:28:22,-0.49172504429999997,-0.04366901245,10.04925671435,0.038789942625573975,0.0022907446432425577,-0.03787364476827696,-0.9667,0.04186000000000001,1.6840600000000001,11.5,0,893,400,294,1404,18.020234375,19459,32.01753653872951,1010.8386431393621,0,,,,N/A,False
2024-03-31T09:28:23,-0.47138605219999996,-0.03409772205,10.0546405652,0.03405573702953936,0.0024434609527920616,-0.0355829001250344,-0.96082,0.038220000000000004,1.6497600000000001,11.5,0,893,400,294,1404,18.020234375,19459,32.01753653872951,1010.8386431393621,0,,,,N/A,False
2024-03-31T09:28:23,-0.48095734259999995,-0.031106693799999998,10.039685423949999,0.037110063220529434,0.0007635815477475193,-0.03665191429188092,-0.95494,0.038220000000000004,1.6632,11.5,0,893,400,294,1404,18.041328125,20032,31.946497585364618,1010.8366696289845,0,,,,N/A,False
2024-03-31T09:28:23,-0.49471607254999994,-0.03529413334999999,10.0187482262,0.03726277953007894,0.005192354524683131,-0.038789942625573975,-0.9577400000000001,0.03654,1.6583,11.5,0,894,400,294,1406,18.041328125,20032,31.946497585364618,1010.8366696289845,0,,,,N/A,False
2024-03-31T09:28:23,-0.4755734917499999,-0.03529413334999999,10.0175518149,0.038789942625573975,0.00045814892864851157,-0.03588833274413341,-0.96082,0.0413,1.6690800000000001,11.5,0,894,400,294,1406,18.041328125,20032,31.946497585364618,1010.8366696289845,0,,,,N/A,False
2024-03-31T09:28:23,-0.51146583075,-0.0083748791,10.063015444300001,0.040317105721069016,0.001069014166846527,-0.03695734691097993,-0.95494,0.04186000000000001,1.6672600000000002,11.5,0,894,400,294,1406,18.060859375,20499,31.875358458279088,1010.8303396632551,0,,,,N/A,False
2024-03-31T09:28:23,-0.47377887479999997,-0.0263210486,10.02532848835,0.038331793696925465,0.0003054326190990077,-0.03924809155422249,-0.9527,0.04046,1.6620800000000002,11.5,0,894,400,294,1406,18.060859375,20499,31.875358458279088,1010.8303396632551,0,,,,N/A,False
2024-03-31T09:28:23,-0.48335016519999996,-0.05682953674999999,10.0905329042,0.03283400655314333,0.0007635815477475193,-0.038484510006474966,-0.9521400000000001,0.0371,1.6611000000000002,11.5,0,894,400,294,1406,18.060859375,20499,31.875358458279088,1010.8303396632551,0,,,,N/A,False
2024-03-31T09:28:23,-0.4755734917499999,-0.04486542375,10.036096190049998,0.039095375244672985,0.00015271630954950385,-0.03237585762449482,-0.9493400000000002,0.03654,1.6599800000000002,11.5,0,894,400,294,1406,18.08078125,21073,31.80428381846211,1010.8317007891576,0,,,,N/A,False
2024-03-31T09:28:23,-0.48095734259999995,-0.05682953674999999,9.98345409285,0.037110063220529434,0.003207042500539581,-0.03756821214917795,-0.9577400000000001,0.042140000000000004,1.6865800000000002,11.5,0,894,400,294,1406,18.08078125,21073,31.80428381846211,1010.8317007891576,0,,,,N/A,False
2024-03-31T09:28:23,-0.34337004309999997,-0.05503491979999999,10.04447106915,0.039095375244672985,0.0025961772623415654,-0.038331793696925465,-0.9616600000000001,0.04186000000000001,1.6802800000000002,11.5,0,894,400,294,1406,18.08078125,21073,31.80428381846211,1010.8317007891576,0,,,,N/A,False
2024-03-31T09:28:23,-0.4474578262,-0.051445685899999996,10.034899778749999,0.03772092845872745,0.0044287729769356115,-0.036499197982331415,-0.9588600000000002,0.03458000000000001,1.6832200000000002,11.5,0,894,400,294,1406,18.09953125,21590,31.727550524818167,1010.831115436767,0,,,,N/A,False
2024-03-31T09:28:23,-0.48035913694999993,-0.05802594804999999,10.0474620974,0.03772092845872745,0.0018325957145940463,-0.03512475119638588,-0.9613800000000001,0.0441,1.6647400000000003,11.5,0,894,400,294,1406,18.09953125,21590,31.727550524818167,1010.831115436767,0,,,,N/A,False
2024-03-31T09:28:23,-0.46899322959999995,-0.044267218100000005,10.079765202499999,0.03451388595818787,0.004123340357836604,-0.03588833274413341,-0.9580200000000001,0.045500000000000006,1.6805600000000003,11.5,0,894,400,294,1406,18.09953125,21590,31.727550524818167,1010.831115436767,0,,,,N/A,False
2024-03-31T09:28:23,-0.5084748025,-0.03409772205,10.012167964049999,0.03802636107782646,0.004581489286485115,-0.03375030441044035,-0.9611000000000002,0.04438,1.6800000000000002,11.5,0,894,400,294,1406,18.117890625,22111,31.656411080574262,1010.8386868573239,0,,,,N/A,False
2024-03-31T09:28:23,-0.47497528609999995,-0.015553346899999999,10.0666046782,0.03726277953007894,0.005192354524683131,-0.04001167310197001,-0.9664200000000001,0.04578,1.6837800000000003,11.5,0,895,400,294,1407,18.117890625,22111,31.656411080574262,1010.8386868573239,0,,,,N/A,False
2024-03-31T09:28:23,-0.5024927459999999,-0.05682953674999999,10.030114133549999,0.03497203488683638,0.0013744467859455349,-0.03802636107782646,-0.9602600000000001,0.0441,1.6730000000000003,11.5,0,895,400,294,1407,18.117890625,22111,31.656411080574262,1010.8386868573239,0,,,,N/A,False
2024-03-31T09:28:23,-0.48693939909999995,-0.04127618984999999,10.080961613799998,0.03543018381548489,0.0018325957145940463,-0.0355829001250344,-0.96194,0.045500000000000006,1.6758000000000002,11.5,0,895,400,294,1407,18.137421875,22560,31.596575106857983,1010.8446792031546,0,,,,N/A,False
2024-03-31T09:28:24,-0.46540399569999996,-0.05443671415,10.052845948249999,0.03527746750593539,0.0016798794050445422,-0.038637226316024474,-0.9591400000000001,0.027300000000000005,1.6630600000000002,11.5,0,895,400,294,1407,18.137421875,22560,31.596575106857983,1010.8446792031546,0,,,,N/A,False
2024-03-31T09:28:24,-0.48933222169999996,-0.059222359349999996,10.08634546465,0.03924809155422249,0.004123340357836604,-0.0357356164345839,-0.9675400000000001,0.04494000000000001,1.67692,11.5,0,895,400,294,1407,18.137421875,22560,31.596575106857983,1010.8446792031546,0,,,,N/A,False
2024-03-31T09:28:24,-0.49471607254999994,-0.05563312545,10.085149053349998,0.03665191429188092,0.002138028333693054,-0.038179077387375956,-0.9658600000000002,0.03934,1.68168,11.5,0,895,400,294,1407,18.15578125,23129,31.547833337577504,1010.8434412250866,0,,,,N/A,False
2024-03-31T09:28:24,-0.51864429855,-0.05563312545,10.0558369765,0.03252857393404432,0.0027488935718910697,-0.038484510006474966,-0.96894,0.040740000000000005,1.6723000000000001,11.5,0,895,400,294,1407,18.15578125,23129,31.547833337577504,1010.8434412250866,0,,,,N/A,False
2024-03-31T09:28:24,-0.4791627256499999,-0.014955141249999998,10.0654082669,0.03451388595818787,0.004886921905584123,-0.03772092845872745,-0.96306,0.039060000000000004,1.6535400000000002,11.5,0,895,400,294,1407,18.15578125,23129,31.547833337577504,1010.8434412250866,0,,,,N/A,False
2024-03-31T09:28:24,-0.46540399569999996,-0.04606183504999999,10.06361364995,0.039400807863771994,-0.001069014166846527,-0.040622538340168025,-0.9599800000000002,0.04326000000000001,1.67118,11.5,0,895,400,294,1407,18.173359375,23698,31.471126204700187,1010.8426667182613,0,,,,N/A,False
2024-03-31T09:28:24,-0.4755734917499999,-0.06161518194999999,10.0654082669,0.041386119887915546,0.002138028333693054,-0.038484510006474966,-0.9597,0.039060000000000004,1.6767800000000002,11.5,0,895,400,294,1407,18.173359375,23698,31.471126204700187,1010.8426667182613,0,,,,N/A,False
2024-03-31T09:28:24,-0.4779663143499999,-0.0394815729,10.071988529050001,0.038179077387375956,0.007635815477475193,-0.0357356164345839,-0.95606,0.041580000000000006,1.6629200000000002,11.5,0,895,400,294,1407,18.173359375,23698,31.471126204700187,1010.8426667182613,0,,,,N/A,False
2024-03-31T09:28:24,-0.49531427819999996,-0.0681954441,10.0558369765,0.038179077387375956,0.0015271630954950385,-0.03604104905368291,-0.9499000000000001,0.04018000000000001,1.6480800000000002,11.5,0,895,400,294,1407,18.1899609375,24173,31.394375637829498,1010.8420318028507,0,,,,N/A,False
2024-03-31T09:28:24,-0.46301117309999995,-0.057427742399999995,10.051649536949999,0.04245513405476207,0.003207042500539581,-0.03756821214917795,-0.9613800000000001,0.039060000000000004,1.6522800000000002,11.5,0,895,400,294,1405,18.1899609375,24173,31.394375637829498,1010.8420318028507,0,,,,N/A,False
2024-03-31T09:28:24,-0.46839502395,-0.04905286329999999,10.05763159345,0.03924809155422249,0.0013744467859455349,-0.03604104905368291,-0.95718,0.03934,1.6545200000000002,11.5,0,895,400,294,1405,18.1899609375,24173,31.394375637829498,1010.8420318028507,0,,,,N/A,False
2024-03-31T09:28:24,-0.46002014485,-0.04905286329999999,10.019944637499998,0.03772092845872745,0.003207042500539581,-0.03634648167278191,-0.9633400000000002,0.037660000000000006,1.6590000000000003,11.5,0,895,400,294,1405,18.2063671875,24638,31.33995483315084,1010.8410715333862,0,,,,N/A,False
2024-03-31T09:28:24,-0.4677968183,-0.059222359349999996,10.051649536949999,0.040317105721069016,0.0044287729769356115,-0.038942658935123484,-0.97118,0.04662,1.6744,11.5,0,895,400,294,1405,18.2063671875,24638,31.33995483315084,1010.8410715333862,0,,,,N/A,False
2024-03-31T09:28:24,-0.47976093129999997,-0.047856451999999994,10.05882800475,0.0357356164345839,0.003207042500539581,-0.03512475119638588,-0.9546600000000001,0.04242,1.65816,11.5,0,895,400,294,1405,18.2063671875,24638,31.33995483315084,1010.8410715333862,0,,,,N/A,False
2024-03-31T09:28:24,-0.47198425785,-0.0634097989,10.050453125649998,0.038637226316024474,0.0036651914291880926,-0.038637226316024474,-0.96194,0.03962,1.6608200000000002,11.5,0,895,400,294,1405,18.2216015625,25137,31.27987998502977,1010.8399270821916,0,,,,N/A,False
2024-03-31T09:28:24,-0.49172504429999997,-0.06759723845,9.97388280245,0.03604104905368291,0.003970624048287101,-0.03527746750593539,-0.95858,0.039060000000000004,1.65508,11.5,0,895,400,294,1405,18.2216015625,25137,31.27987998502977,1010.8399270821916,0,,,,N/A,False
2024-03-31T09:28:24,-0.48933222169999996,-0.04366901245,10.025926693999999,0.03481931857728687,0.007177666548826681,-0.03481931857728687,-0.9580200000000001,0.0371,1.6609600000000002,11.5,0,895,400,294,1405,18.2216015625,25137,31.27987998502977,1010.8399270821916,0,,,,N/A,False
2024-03-31T09:28:25,-0.4959124838499999,-0.0334995164,10.08155981945,0.03726277953007894,0.00473420559603462,-0.03772092845872745,-0.9588600000000002,0.03318,1.6723000000000001,11.5,0,895,400,294,1405,18.236640625,25750,31.208666566174394,1010.8349341658248,0,,,,N/A,False
2024-03-31T09:28:25,-0.48095734259999995,-0.0370887503,10.073783145999998,0.0016798794050445422,-0.0016798794050445422,-0.03634648167278191,-0.9611000000000002,0.03514,1.6774800000000003,11.5,0,895,400,294,1405,18.236640625,25750,31.208666566174394,1010.8349341658248,0,,,,N/A,False
2024-03-31T09:28:25,-0.46540399569999996,-0.0538385085,10.0295159279,0.038942658935123484,0.006108652381980154,-0.03344487179134134,-0.95354,0.03654,1.6644600000000003,11.5,0,895,400,294,1405,18.236640625,25750,31.208666566174394,1010.8349341658248,0,,,,N/A,False
2024-03-31T09:28:25,-0.5060819798999999,-0.06640082715,10.04566748045,0.03451388595818787,0.005192354524683131,-0.03665191429188092,-0.9611000000000002,0.03962,1.6592800000000003,11.5,0,895,400,294,1406,18.25109375,26262,31.131868015001537,1010.8360145291185,0,,,,N/A,False
2024-03-31T09:28:25,-0.47976093129999997,-0.06101697629999999,10.025926693999999,0.03375030441044035,0.0003054326190990077,-0.038789942625573975,-0.9588600000000002,0.03934,1.6465400000000001,11.5,0,895,400,294,1406,18.25109375,26262,31.131868015001537,1010.8360145291185,0,,,,N/A,False
2024-03-31T09:28:25,-0.47198425785,-0.06640082715,10.064211855599998,0.03772092845872745,0.003207042500539581,-0.03527746750593539,-0.9692200000000002,0.042980000000000004,1.68686,11.5,0,895,400,294,1406,18.25109375,26262,31.131868015001537,1010.8360145291185,0,,,,N/A,False
2024-03-31T09:28:25,-0.4791627256499999,-0.05503491979999999,10.064211855599998,0.036499197982331415,0.0044287729769356115,-0.03527746750593539,-0.9639000000000001,0.030660000000000003,1.6734200000000001,11.5,0,895,400,294,1406,18.26671875,26694,31.077473087143822,1010.8372767283804,0,,,,N/A,False
2024-03-31T09:28:25,-0.4731806691499999,-0.047856451999999994,10.039087218299999,0.039706240482871004,0.0033597588100890844,-0.039400807863771994,-0.96306,0.03626000000000001,1.6630600000000002,11.5,0,895,400,294,1406,18.26671875,26694,31.077473087143822,1010.8372767283804,0,,,,N/A,False
2024-03-31T09:28:25,-0.47198425785,-0.04247260115,10.06720288385,0.03741549583962844,-0.0015271630954950385,-0.03787364476827696,-0.96194,0.04242,1.6552200000000004,11.5,0,895,400,294,1406,18.26671875,26694,31.077473087143822,1010.8372767283804,0,,,,N/A,False
2024-03-31T09:28:25,-0.48095734259999995,-0.0538385085,10.03729260135,0.03313943917224234,0.002901609881440573,-0.036193765363232405,-0.96558,0.04018000000000001,1.6685200000000002,11.5,0,895,400,294,1406,18.28078125,27333,31.000707932759475,1010.8324218224606,0,,,,N/A,False
2024-03-31T09:28:25,-0.4899304273499999,-0.049651068949999995,10.045069274799998,0.038789942625573975,0.003970624048287101,-0.03390302071998985,-0.9622200000000002,0.038500000000000006,1.6920400000000002,11.5,0,895,400,294,1406,18.28078125,27333,31.000707932759475,1010.8324218224606,0,,,,N/A,False
2024-03-31T09:28:25,-0.4677968183,-0.059222359349999996,10.045069274799998,0.04016438941151951,0.0022907446432425577,-0.03756821214917795,-0.9647400000000002,0.04102,1.68812,11.5,0,895,400,294,1406,18.28078125,27333,31.000707932759475,1010.8324218224606,0,,,,N/A,False
2024-03-31T09:28:25,-0.4450650036,-0.059222359349999996,10.008578730149999,0.03802636107782646,0.0007635815477475193,-0.038484510006474966,-0.9653,0.034300000000000004,1.6725800000000002,11.5,0,895,400,294,1406,18.2962109375,27764,30.94634240150644,1010.8368814893073,0,,,,N/A,False
2024-03-31T09:28:25,-0.49830530645,-0.07776673449999999,10.07438135165,0.0355829001250344,0.0022907446432425577,-0.036193765363232405,-0.96782,0.04102,1.6669800000000004,11.5,0,895,400,294,1406,18.2962109375,27764,30.94634240150644,1010.8368814893073,0,,,,N/A,False
2024-03-31T09:28:25,-0.4851447821499999,-0.035892338999999995,10.0534441539,0.03756821214917795,0.005039638215133627,-0.038179077387375956,-0.9613800000000001,0.03934,1.6779000000000002,11.5,0,895,400,294,1406,18.2962109375,27764,30.94634240150644,1010.8368814893073,0,,,,N/A,False
2024-03-31T09:28:25,-0.46241296745,-0.04247260115,10.045069274799998,0.03420845333908886,0.004123340357836604,-0.03420845333908886,-0.9669800000000002,0.03878,1.6738400000000002,11.5,0,898,402,295,1411,18.310078125,28266,30.880746614671757,1010.8352241493482,0,,,,N/A,False
2024-03-31T09:28:26,-0.5144568589999999,-0.04606183504999999,10.101898811549999,0.038789942625573975,0.0027488935718910697,-0.03772092845872745,-0.9664200000000001,0.039900000000000005,1.68994,12.5,0,898,402,295,1411,18.310078125,28266,30.880746614671757,1010.8352241493482,0,,,,N/A,False
2024-03-31T09:28:26,-0.4815555482499999,-0.038883367249999995,10.0510513313,0.04077525464971753,0.0012217304763960308,-0.04092797095926703,-0.9692200000000002,0.04242,1.6557800000000003,11.5,0,898,402,295,1411,18.310078125,28266,30.880746614671757,1010.8352241493482,0,,,,N/A,False
2024-03-31T09:28:26,-0.4989035121,-0.0502492746,10.0558369765,0.038179077387375956,0.006566801310628666,-0.038331793696925465,-0.9683800000000001,0.0483,1.6766400000000001,11.5,0,898,402,295,1411,18.3243359375,28747,30.820768574795363,1010.8394996461623,0,,,,N/A,False
2024-03-31T09:28:26,-0.4941178668999999,-0.058624153699999994,10.034899778749999,0.039095375244672985,0.002138028333693054,-0.038179077387375956,-0.9703400000000001,0.04354000000000001,1.66866,11.5,0,898,402,295,1411,18.3243359375,28747,30.820768574795363,1010.8394996461623,0,,,,N/A,False
2024-03-31T09:28:26,-0.48275195955,-0.0382851616,10.067801089499998,0.038637226316024474,0.0007635815477475193,-0.03237585762449482,-0.97006,0.045500000000000006,1.6746800000000002,11.5,0,898,402,295,1411,18.3243359375,28747,30.820768574795363,1010.8394996461623,0,,,,N/A,False
2024-03-31T09:28:26,-0.4935196612499999,-0.07597211755,10.030712339199999,0.038789942625573975,0.0024434609527920616,-0.037110063220529434,-0.9709000000000001,0.0427,1.6849,11.5,0,898,402,295,1411,18.3376171875,29245,30.755178381379256,1010.8439161048581,0,,,,N/A,False
2024-03-31T09:28:26,-0.4899304273499999,-0.046660040699999995,10.066006472549999,0.03695734691097993,0.003054326190990077,-0.03756821214917795,-0.9695000000000001,0.045500000000000006,1.6843400000000002,11.5,0,898,402,295,1411,18.3376171875,29245,30.755178381379256,1010.8439161048581,0,,,,N/A,False
2024-03-31T09:28:26,-0.4779663143499999,-0.04486542375,10.0366943957,0.03787364476827696,0.002138028333693054,-0.07712173632249944,-0.9627800000000001,0.046060000000000004,1.6844800000000002,12.5,0,898,402,295,1411,18.3376171875,29245,30.755178381379256,1010.8439161048581,0,,,,N/A,False
2024-03-31T09:28:26,-0.4821537538999999,-0.04007977854999999,10.0594262104,0.0357356164345839,0.0044287729769356115,-0.038637226316024474,-0.9577400000000001,0.04438,1.6646,11.5,0,898,402,295,1411,18.3501171875,29950,30.70621184905402,1010.8435118627857,0,,,,N/A,False
2024-03-31T09:28:26,-0.49471607254999994,-0.0370887503,10.015757197949998,0.037110063220529434,0.0038179077387375964,-0.03726277953007894,-0.9650200000000001,0.039060000000000004,1.6745400000000001,12.5,0,898,402,295,1411,18.3501171875,29950,30.70621184905402,1010.8435118627857,0,,,,N/A,False
2024-03-31T09:28:26,-0.46480579005,-0.04247260115,10.101300605899999,0.036499197982331415,0.0022907446432425577,-0.03695734691097993,-0.96558,0.045500000000000006,1.6685200000000002,11.5,0,898,402,295,1411,18.3501171875,29950,30.70621184905402,1010.8435118627857,0,,,,N/A,False
2024-03-31T09:28:26,-0.46600220135,-0.060418770649999995,10.060024416049998,0.03512475119638588,0.0009162978572970231,-0.03604104905368291,-0.9591400000000001,0.04494000000000001,1.6564800000000002,11.5,0,896,401,295,1407,18.3630078125,30337,30.640638788463647,1010.8508029602054,0,,,,N/A,False
2024-03-31T09:28:26,-0.46480579005,-0.04127618984999999,10.0366943957,0.036193765363232405,-0.001069014166846527,-0.038789942625573975,-0.9580200000000001,0.042140000000000004,1.65508,11.5,0,896,401,295,1407,18.3630078125,30337,30.640638788463647,1010.8508029602054,0,,,,N/A,False
2024-03-31T09:28:26,-0.49770710079999997,-0.04247260115,10.10309522285,0.03481931857728687,0.0019853120241435504,-0.03726277953007894,-0.9574600000000001,0.037380000000000004,1.6525600000000003,11.5,0,896,401,295,1407,18.3630078125,30337,30.640638788463647,1010.8508029602054,0,,,,N/A,False
2024-03-31T09:28:26,-0.4839483708499999,-0.047856451999999994,10.08395264205,0.03634648167278191,0.002138028333693054,-0.036193765363232405,-0.9599800000000002,0.040740000000000005,1.6573200000000001,11.5,0,896,401,295,1407,18.374140625,30780,30.58049930376662,1010.8463671377926,0,,,,N/A,False
2024-03-31T09:28:26,-0.4941178668999999,-0.04366901245,10.07557776295,0.030848694528999777,-0.0015271630954950385,-0.03543018381548489,-0.9597,0.04326000000000001,1.66768,11.5,0,896,401,295,1407,18.374140625,30780,30.58049930376662,1010.8463671377926,0,,,,N/A,False
2024-03-31T09:28:26,-0.46839502395,-0.056231331100000004,10.12463062625,0.039553524173321496,0.0068722339297276735,-0.03329215548179184,-0.9602600000000001,0.04802,1.66138,11.5,0,896,401,295,1407,18.374140625,30780,30.58049930376662,1010.8463671377926,0,,,,N/A,False
2024-03-31T09:28:26,-0.47078784655,-0.022133609050000003,10.0187482262,0.03527746750593539,0.004581489286485115,-0.03451388595818787,-0.9597,0.04718000000000001,1.6737000000000002,11.5,0,896,401,295,1407,18.3856640625,31281,30.51486935123154,1010.8461027833931,0,,,,N/A,False
2024-03-31T09:28:27,-0.45044885445,-0.06520441585,10.048060303049999,0.03420845333908886,0.0003054326190990077,-0.03588833274413341,-0.9639000000000001,0.040740000000000005,1.6612400000000003,11.5,0,896,401,295,1407,18.3856640625,31281,30.51486935123154,1010.8461027833931,0,,,,N/A,False
2024-03-31T09:28:27,-0.48454657649999994,-0.0394815729,10.104291634149998,0.039400807863771994,0.0015271630954950385,-0.039095375244672985,-0.9647400000000002,0.04494000000000001,1.6657200000000003,11.5,0,896,401,295,1407,18.3856640625,31281,30.51486935123154,1010.8461027833931,0,,,,N/A,False
2024-03-31T09:28:27,-0.47198425785,-0.059222359349999996,10.046863891749998,0.0355829001250344,0.005039638215133627,-0.0355829001250344,-0.9633400000000002,0.0413,1.6762200000000003,11.5,0,896,401,295,1407,18.3973828125,31799,30.443740470780472,1010.8461618580288,0,,,,N/A,False
2024-03-31T09:28:27,-0.43848474145,-0.06759723845,10.052247742599999,0.039706240482871004,0.0016798794050445422,-0.038331793696925465,-0.9622200000000002,0.030380000000000004,1.6749600000000002,12.5,0,896,401,295,1407,18.3973828125,31799,30.443740470780472,1010.8461618580288,0,,,,N/A,False
2024-03-31T09:28:27,-0.4701896408999999,-0.05802594804999999,10.0654082669,0.03604104905368291,0.004581489286485115,-0.040317105721069016,-0.95858,0.04242,1.6661400000000002,11.5,1,896,401,294,1407,18.3973828125,31799,30.443740470780472,1010.8461618580288,0,,,,N/A,False
2024-03-31T09:28:27,-0.4815555482499999,-0.05682953674999999,10.05643518215,0.03695734691097993,0.004581489286485115,-0.0355829001250344,-0.9507400000000001,0.04046,1.6492,11.5,1,896,401,294,1407,18.4087109375,32236,30.394778046351174,1010.845572276054,0,,,,N/A,False
2024-03-31T09:28:27,-0.5377868793499999,-0.05503491979999999,10.003793084949999,0.038942658935123484,0.003054326190990077,-0.0357356164345839,-0.9599800000000002,0.03654,1.6485000000000003,12.5,1,896,401,294,1407,18.4087109375,32236,30.394778046351174,1010.845572276054,0,,,,N/A,False
2024-03-31T09:28:27,-0.49172504429999997,-0.046660040699999995,10.085149053349998,0.036193765363232405,0.003054326190990077,-0.038179077387375956,-0.9599800000000002,0.0441,1.6679600000000003,11.5,1,896,401,294,1407,18.4087109375,32236,30.394778046351174,1010.845572276054,0,,,,N/A,False
2024-03-31T09:28:27,-0.5503491979999999,-0.041874395499999995,10.043274657849999,0.040317105721069016,0.004276056667386108,-0.03512475119638588,-0.9650200000000001,0.042980000000000004,1.69904,11.5,1,896,401,294,1407,18.41984375,32915,30.351355136959683,1010.8428959366045,0,,,,N/A,False
2024-03-31T09:28:27,-0.46719861264999996,-0.045463629400000004,10.08155981945,0.03390302071998985,0.0013744467859455349,-0.03283400655314333,-0.9667,0.03682,1.6814,11.5,1,896,401,294,1407,18.41984375,32915,30.351355136959683,1010.8428959366045,0,,,,N/A,False
2024-03-31T09:28:27,-0.46540399569999996,-0.025722842949999998,10.04566748045,0.03741549583962844,0.005039638215133627,-0.04123340357836604,-0.9661400000000001,0.0427,1.6737000000000002,11.5,1,896,401,294,1407,18.41984375,32915,30.351355136959683,1010.8428959366045,0,,,,N/A,9
2024-03-31T09:28:27,-0.49172504429999997,-0.0538385085,10.067801089499998,0.039400807863771994,0.0044287729769356115,-0.0357356164345839,-0.9574600000000001,0.03878,1.6625000000000003,11.5,1,896,401,294,1407,18.4301953125,33199,30.29126746478239,1010.8424472467658,0,,,,N/A,9
2024-03-31T09:28:27,-0.46839502395,-0.04606183504999999,10.0462656861,0.03802636107782646,0.0027488935718910697,-0.038179077387375956,-0.9599800000000002,0.05222,1.66894,11.5,1,896,401,294,1407,18.4301953125,33199,30.29126746478239,1010.8424472467658,0,,,,N/A,9
2024-03-31T09:28:27,-0.48693939909999995,-0.04007977854999999,10.021141048799999,0.04230241774521256,0.0038179077387375964,-0.03588833274413341,-0.9597,0.042140000000000004,1.68294,11.5,1,896,401,294,1407,18.4301953125,33199,30.29126746478239,1010.8424472467658,0,,,,N/A,9
2024-03-31T09:28:27,-0.5000999234,-0.04007977854999999,10.133603711,0.04550946024575215,0.004123340357836604,-0.03695734691097993,-0.9661400000000001,0.046340000000000006,1.6914800000000003,11.5,1,896,401,294,1407,18.4411328125,33676,30.231251269589357,1010.8429701007102,0,,,,N/A,9
2024-03-31T09:28:27,-0.5024927459999999,-0.05084748024999999,10.009176935799998,0.040317105721069016,0.005039638215133627,-0.03466660226773738,-0.9658600000000002,0.03682,1.6776200000000001,11.5,1,896,401,294,1407,18.4411328125,33676,30.231251269589357,1010.8429701007102,0,,,,N/A,9
2024-03-31T09:28:28,-0.4935196612499999,-0.0538385085,10.04925671435,0.03420845333908886,0.0012217304763960308,-0.038179077387375956,-0.97006,0.03654,1.67006,11.5,0,895,399,293,1402,18.4411328125,33676,30.231251269589357,1010.8429701007102,0,,,,N/A,9
2024-03-31T09:28:28,-0.48335016519999996,-0.04725824635,10.042676452199998,0.039858956792420505,0.00595593607243065,-0.03420845333908886,-0.9686600000000001,0.04354000000000001,1.6725800000000002,11.5,0,895,399,293,1402,18.4512890625,34222,30.17672910372448,1010.8474831075706,0,,,,N/A,9
2024-03-31T09:28:28,-0.46002014485,-0.05084748024999999,10.05643518215,0.00045814892864851157,0.005039638215133627,-0.038331793696925465,-0.9625000000000001,0.0357,1.6765000000000003,12.5,0,895,399,293,1402,18.4512890625,34222,30.17672910372448,1010.8474831075706,0,,,,N/A,9
2024-03-31T09:28:28,-0.5156532703,-0.04127618984999999,10.0821580251,0.04016438941151951,0.0036651914291880926,-0.03634648167278191,-0.9667,0.03626000000000001,1.6875600000000002,11.5,0,895,399,293,1402,18.4512890625,34222,30.17672910372448,1010.8474831075706,0,,,,N/A,9
2024-03-31T09:28:28,-0.5036891573,-0.062213387599999996,10.052247742599999,0.03756821214917795,0.0007635815477475193,-0.040317105721069016,-0.9639000000000001,0.04242,1.6815400000000003,11.5,0,895,399,293,1402,18.46203125,34814,30.122273918078488,1010.8512055568868,0,,,,N/A,9
2024-03-31T09:28:28,-0.45523449964999996,-0.058624153699999994,10.078568791199999,0.03268129024359383,0.0009162978572970231,-0.03252857393404432,-0.9658600000000002,0.03458000000000001,1.67328,11.5,0,895,399,293,1402,18.46203125,34814,30.122273918078488,1010.8512055568868,0,,,,N/A,9
2024-03-31T09:28:28,-0.50309095165,-0.048454657649999996,10.0654082669,0.03420845333908886,0.004123340357836604,-0.03604104905368291,-0.9672600000000001,0.0413,1.67104,11.5,0,895,399,293,1402,18.46203125,34814,30.122273918078488,1010.8512055568868,0,,,,N/A,9
2024-03-31T09:28:28,-0.45463629399999994,-0.04606183504999999,10.040283629599998,0.03527746750593539,0.0025961772623415654,-0.03543018381548489,-0.9681000000000002,0.03654,1.66362,11.5,0,895,399,293,1402,18.4727734375,35045,30.05678087208726,1010.8514030346619,0,,,,N/A,9
2024-03-31T09:28:28,-0.46121655614999996,-0.00418743955,10.085149053349998,0.04046982203061852,0.0025961772623415654,-0.03726277953007894,-0.96446,0.03934,1.6767800000000002,11.5,0,895,399,293,1402,18.4727734375,35045,30.05678087208726,1010.8514030346619,0,,,,N/A,-1
2024-03-31T09:28:28,-0.5539384318999999,-0.056231331100000004,10.182656574299997,0.03802636107782646,0.004123340357836604,-0.036193765363232405,-0.96306,0.046900000000000004,1.6870000000000003,11.5,0,895,399,293,1402,18.482734375,35758,30.013359741749937,1010.855590967289,0,,,,N/A,-1
2024-03-31T09:28:28,-0.5084748025,-0.028713871199999998,10.082756230749998,0.038637226316024474,0.0044287729769356115,-0.03726277953007894,-0.9681000000000002,0.04746000000000001,1.6714600000000002,11.5,0,895,399,293,1401,18.482734375,35758,30.013359741749937,1010.855590967289,0,,,,N/A,-1
2024-03-31T09:28:28,-0.46899322959999995,-0.04127618984999999,10.110273690649999,0.04291328298341058,0.005192354524683131,-0.03543018381548489,-0.9625000000000001,0.04746000000000001,1.68686,11.5,0,894,399,292,1401,18.482734375,35758,30.013359741749937,1010.855590967289,0,,,,N/A,-1
2024-03-31T09:28:28,-0.4941178668999999,-0.0502492746,10.052247742599999,0.03726277953007894,0.0019853120241435504,-0.03268129024359383,-0.9636200000000001,0.04354000000000001,1.6801400000000002,11.5,0,894,399,292,1401,18.492890625,36094,29.953391917140443,1010.8618649327015,0,,,,N/A,-1
2024-03-31T09:28:28,-0.46899322959999995,-0.053240302850000004,10.060622621699999,0.038789942625573975,0.0056505034533316425,-0.038789942625573975,-1.0011400000000001,0.042140000000000004,1.6879800000000003,12.5,0,894,399,292,1401,18.492890625,36094,29.953391917140443,1010.8618649327015,0,,,,N/A,-1
2024-03-31T09:28:28,-0.48634119344999993,-0.04606183504999999,10.067801089499998,0.03695734691097993,0.002901609881440573,-0.03298672286269283,-0.9605400000000001,0.04802,1.6534,11.5,0,894,399,292,1401,18.492890625,36094,29.953391917140443,1010.8618649327015,0,,,,N/A,-1
2024-03-31T09:28:28,-0.5096712138,-0.06999006104999998,10.0953185494,0.038789942625573975,0.0019853120241435504,-0.038484510006474966,-0.9613800000000001,0.051660000000000005,1.6522800000000002,12.5,0,894,399,292,1401,18.503046875,36722,29.904493222416416,1010.8699010123687,0,,,,N/A,-1
2024-03-31T09:28:29,-0.49232324994999993,-0.057427742399999995,10.13300550535,0.03588833274413341,0.0038179077387375964,-0.03497203488683638,-0.96418,0.042140000000000004,1.66194,11.5,0,894,399,292,1401,18.503046875,36722,29.904493222416416,1010.8699010123687,0,,,,N/A,-1
2024-03-31T09:28:29,-0.5647061335999999,-0.08195417405,9.98345409285,0.04001167310197001,0.004886921905584123,-0.03512475119638588,-0.9681000000000002,0.04522,1.6616600000000001,11.5,0,894,399,292,1401,18.503046875,36722,29.904493222416416,1010.8699010123687,0,,,,N/A,-1
2024-03-31T09:28:29,-0.48873401604999994,-0.06580262149999999,10.050453125649998,0.03665191429188092,0.0015271630954950385,-0.03756821214917795,-0.9653,0.046060000000000004,1.6606800000000002,11.5,0,894,399,292,1401,18.5130078125,37109,29.844553524915508,1010.8635136772635,0,,,,N/A,-1
2024-03-31T09:28:29,0.05503491979999999,0.07956135144999998,10.288538974349997,0.036804630601430424,0.00045814892864851157,-0.03543018381548489,-0.96194,0.04578,1.64514,11.5,0,894,399,292,1401,18.5130078125,37109,29.844553524915508,1010.8635136772635,0,,,,N/A,-1
2024-03-31T09:28:29,-0.4701896408999999,-0.05802594804999999,9.77049288145,0.038637226316024474,0.005039638215133627,-0.03375030441044035,-0.9739800000000002,0.050820000000000004,1.67636,11.5,0,894,399,292,1401,18.5221875,37471,29.795612226187362,1010.8664043205815,0,,,,N/A,13
2024-03-31T09:28:29,-0.44925244314999996,-0.04007977854999999,10.105488045449999,0.03787364476827696,0.002138028333693054,-0.038331793696925465,-0.9658600000000002,0.050820000000000004,1.6497600000000001,12.5,0,893,398,291,1398,18.5221875,37471,29.795612226187362,1010.8664043205815,0,,,,N/A,13
2024-03-31T09:28:29,-0.4959124838499999,-0.05084748024999999,10.055238770849998,0.038637226316024474,0.003207042500539581,-0.038789942625573975,-0.9650200000000001,0.04438,1.66012,12.5,0,893,398,291,1398,18.5309765625,37874,29.741139291581238,1010.925045167483,0,,,,N/A,13
2024-03-31T09:28:29,-0.46660040699999994,-0.057427742399999995,10.11625574715,0.039095375244672985,0.0038179077387375964,-0.03665191429188092,-0.9577400000000001,0.04802,1.6611000000000002,11.5,0,893,398,291,1398,18.5309765625,37874,29.741139291581238,1010.925045167483,0,,,,N/A,13
2024-03-31T09:28:29,-0.46660040699999994,-0.0023928226,10.1288180658,0.038331793696925465,-0.0016798794050445422,-0.03604104905368291,-0.9611000000000002,0.039900000000000005,1.67412,12.5,0,893,398,291,1398,18.5395703125,38601,29.686670893830104,1010.9146266935244,0,,,,N/A,-1
2024-03-31T09:28:29,-0.4235296002,-0.09032905315,10.112666513249998,0.03924809155422249,-0.00473420559603462,-0.03634648167278191,-0.9653,0.047740000000000005,1.6797200000000003,12.5,0,893,398,291,1398,18.5395703125,38601,29.686670893830104,1010.9146266935244,0,,,,N/A,-1
2024-03-31T09:28:29,-0.49950171774999996,-0.07058826669999999,10.073783145999998,0.03512475119638588,0.0013744467859455349,-0.039706240482871004,-0.97146,0.04746000000000001,1.6805600000000003,11.5,0,893,398,291,1398,18.4313671875,36280,29.567845634192608,1010.9236894503377,0,,,,N/A,-1
2024-03-31T09:28:30,-0.48035913694999993,-0.06161518194999999,10.043274657849999,0.03665191429188092,0.0015271630954950385,-0.04092797095926703,-0.9616600000000001,0.05222,1.6504600000000003,12.5,0,893,398,291,1398,18.4313671875,36280,29.567845634192608,1010.9236894503377,0,,,,N/A,-1
2024-03-31T09:28:30,-0.45822552789999993,-0.051445685899999996,10.04088183525,0.040317105721069016,0.005345070834232635,-0.03726277953007894,-0.9616600000000001,0.050260000000000006,1.67538,11.5,0,893,398,291,1398,18.4313671875,36280,29.567845634192608,1010.9236894503377,0,,,,N/A,-1
2024-03-31T09:28:30,-0.47676990305,-0.04725824635,10.030712339199999,0.03772092845872745,0.00045814892864851157,-0.03634648167278191,-0.9664200000000001,0.046340000000000006,1.6742600000000003,12.5,0,892,396,288,1391,18.332734375,37504,29.510473342982422,1010.8992436582187,0,,,,N/A,-1
2024-03-31T09:28:30,-0.49651068949999994,-0.041874395499999995,10.071390323399998,0.04077525464971753,0.0006108652381980154,-0.0355829001250344,-0.9664200000000001,0.046900000000000004,1.6787400000000003,12.5,0,892,396,288,1391,18.332734375,37504,29.510473342982422,1010.8992436582187,0,,,,N/A,-1
2024-03-31T09:28:30,-0.5036891573,-0.059222359349999996,10.07916699685,0.04046982203061852,0.0007635815477475193,-0.03527746750593539,-0.9633400000000002,0.04354000000000001,1.6734200000000001,12.5,0,892,396,288,1391,18.332734375,37504,29.510473342982422,1010.8992436582187,0,,,,N/A,-1
2024-03-31T09:28:30,-0.4677968183,-0.056231331100000004,10.1084790737,0.03695734691097993,-0.0003054326190990077,-0.038179077387375956,-0.96082,0.044660000000000005,1.6665600000000003,12.5,0,892,396,288,1391,17.6915234375,32212,29.135989045919057,1010.9021283087964,0,,,,N/A,-1
2024-03-31T09:28:31,-0.45403808835,-0.051445685899999996,10.067801089499998,0.038484510006474966,0.001069014166846527,-0.03604104905368291,-0.9580200000000001,0.053340000000000005,1.6564800000000002,11.5,0,892,396,288,1391,17.6915234375,32212,29.135989045919057,1010.9021283087964,0,,,,N/A,-1
2024-03-31T09:28:31,-0.4791627256499999,-0.0346959277,10.092327521149999,0.036499197982331415,0.0016798794050445422,-0.0357356164345839,-0.96446,0.050260000000000006,1.6688000000000003,12.5,0,896,396,288,1389,17.39015625,34389,29.12355036179919,1010.8750222937689,0,,,,N/A,-1
2024-03-31T09:28:31,-0.44087756405,-0.06580262149999999,10.0510513313,0.03695734691097993,0.0018325957145940463,-0.03481931857728687,-0.96418,0.0427,1.6808400000000001,12.5,0,896,396,288,1389,17.39015625,34389,29.12355036179919,1010.8750222937689,0,,,,N/A,-1
2024-03-31T09:28:31,-0.47736810869999996,-0.056231331100000004,10.088738287249999,0.03741549583962844,0.005039638215133627,-0.03756821214917795,-0.9658600000000002,0.04746000000000001,1.6840600000000001,12.5,0,896,396,288,1389,17.39015625,34389,29.12355036179919,1010.8750222937689,0,,,,N/A,-1
2024-03-31T09:28:31,-0.45643091095,-0.03170489945,10.0654082669,0.038942658935123484,0.004276056667386108,-0.03772092845872745,-0.9566200000000001,0.04942,1.6563400000000001,12.5,0,896,396,288,1389,16.883125,31120,28.887401797585696,1010.8785358311917,0,,,,N/A,-1
2024-03-31T09:28:32,-0.4791627256499999,-0.053240302850000004,10.09113110985,0.03543018381548489,0.003207042500539581,-0.03420845333908886,-0.9639000000000001,0.046060000000000004,1.6762200000000003,12.5,0,896,396,288,1389,16.883125,31120,28.887401797585696,1010.8785358311917,0,,,,N/A,-1
2024-03-31T09:28:32,-0.48933222169999996,-0.04247260115,10.034899778749999,0.03588833274413341,0.0009162978572970231,-0.038331793696925465,-0.9751000000000002,0.04438,1.6714600000000002,12.5,0,896,394,285,1379,16.702265625,33357,28.92821290420284,1010.8486263102527,0,,,,N/A,-1
2024-03-31T09:28:32,-0.4971088951499999,-0.0394815729,10.209575828550001,0.036804630601430424,0.0038179077387375964,-0.037110063220529434,-0.9681000000000002,0.04578,1.6872800000000001,12.5,0,887,391,282,1372,16.702265625,33357,28.92821290420284,1010.8486263102527,0,,,,N/A,-1
2024-03-31T09:28:32,-0.45403808835,-0.058624153699999994,10.0701939121,0.038789942625573975,0.004886921905584123,-0.03390302071998985,-0.9650200000000001,0.043820000000000005,1.6371600000000002,12.5,0,887,391,282,1372,16.702265625,33357,28.92821290420284,1010.8486263102527,0,,,,N/A,-1
2024-03-31T09:28:33,-0.4235296002,-0.03649054465,10.121639597999998,0.036193765363232405,0.002901609881440573,-0.07727445263204895,-0.97146,0.039900000000000005,1.63884,12.5,0,887,391,282,1372,16.3137890625,30668,28.762037938385877,1010.8510721377195,0,,,,N/A,-1
2024-03-31T09:28:33,-0.38344982164999997,-0.09212367009999999,9.92363352785,0.04001167310197001,-0.0006108652381980154,-0.038637226316024474,-0.9675400000000001,0.042140000000000004,1.6539600000000003,12.5,0,887,391,282,1372,16.3137890625,30668,28.762037938385877,1010.8510721377195,0,,,,N/A,5
2024-03-31T09:28:33,-0.5258227663499999,-0.053240302850000004,10.0354979844,0.03588833274413341,0.0025961772623415654,-0.038331793696925465,-0.96418,0.050820000000000004,1.6627800000000001,12.5,0,886,391,282,1371,16.23,33173,28.79387223188179,1010.8311605453761,0,,,,N/A,5
2024-03-31T09:28:33,-0.47976093129999997,-0.031106693799999998,10.122836009299998,0.038331793696925465,0.0036651914291880926,-0.03726277953007894,-0.9532600000000001,0.04578,1.65914,12.5,0,886,391,282,1371,16.23,33173,28.79387223188179,1010.8311605453761,0,,,,N/A,5
2024-03-31T09:28:33,-0.49471607254999994,-0.04127618984999999,10.004391290600001,0.041080687268816536,0.0018325957145940463,-0.03787364476827696,-0.96558,0.0441,1.6423400000000001,12.5,0,886,391,282,1371,16.23,33173,28.79387223188179,1010.8311605453761,0,,,,N/A,5
2024-03-31T09:28:33,-0.46899322959999995,-0.051445685899999996,10.0534441539,0.03405573702953936,0.0016798794050445422,-0.03481931857728687,-0.9672600000000001,0.05138,1.68266,12.5,0,886,391,282,1371,15.956171875,31006,28.707675913172757,1010.835724123959,0,,,,N/A,5
2024-03-31T09:28:34,-0.39960137419999997,-0.0502492746,9.919446088299999,0.03497203488683638,0.0033597588100890844,-0.03497203488683638,-0.96306,0.04326000000000001,1.6644600000000003,12.5,0,886,391,282,1371,15.956171875,31006,28.707675913172757,1010.835724123959,0,,,,N/A,-1
2024-03-31T09:28:34,-0.4618147618,-0.0502492746,10.1156575415,0.038331793696925465,0.0019853120241435504,-0.04001167310197001,-0.9605400000000001,0.04186000000000001,1.6566200000000002,12.5,0,886,391,282,1371,15.956171875,31006,28.707675913172757,1010.835724123959,0,,,,N/A,-1
2024-03-31T09:28:34,-0.4779663143499999,-0.04725824635,10.079765202499999,0.03756821214917795,0.002901609881440573,-0.03604104905368291,-0.9622200000000002,0.049980000000000004,1.6765000000000003,12.5,0,886,391,282,1371,15.9551953125,33596,28.762125305777605,1010.8147897244911,0,,,,N/A,4
2024-03-31T09:28:34,-0.4911268386499999,-0.0526420972,10.08155981945,0.03772092845872745,0.0019853120241435504,-0.036193765363232405,-0.9742600000000001,0.049980000000000004,1.6620800000000002,12.5,0,892,393,285,1378,16.1520703125,35517,28.804325312484693,1010.8157002800133,0,,,,N/A,4
2024-03-31T09:28:34,-0.5084748025,-0.0634097989,10.127023448849998,0.036193765363232405,0.00015271630954950385,-0.03436116964863837,-0.9597,0.05698,1.6784600000000003,12.5,0,892,393,285,1378,16.1520703125,35517,28.804325312484693,1010.8157002800133,0,,,,N/A,4
2024-03-31T09:28:34,-0.4959124838499999,-0.0131605243,10.054042359550001,0.041386119887915546,0.0006108652381980154,-0.03497203488683638,-0.9661400000000001,0.05362000000000001,1.6774800000000003,12.5,0,892,393,285,1378,16.1520703125,35517,28.804325312484693,1010.8157002800133,0,,,,N/A,4
2024-03-31T09:28:34,-0.4911268386499999,-0.044267218100000005,10.11505933585,0.038484510006474966,0.003054326190990077,-0.036804630601430424,-0.97006,0.0511,1.6798600000000001,12.5,0,892,393,285,1378,16.001484375,33278,28.722004947515078,1010.8285934696637,0,,,,N/A,-1
2024-03-31T09:28:35,-0.4911268386499999,-0.045463629400000004,10.050453125649998,0.03665191429188092,0.0024434609527920616,-0.039553524173321496,-0.97006,0.05278000000000001,1.6508800000000001,12.5,0,898,395,285,1380,16.001484375,33278,28.722004947515078,1010.8285934696637,0,,,,N/A,5
2024-03-31T09:28:35,-0.5216353268,-0.06879364974999999,10.09352393245,0.031459559767197796,0.0013744467859455349,-0.03665191429188092,-0.9731400000000001,0.05642000000000001,1.6520000000000001,12.5,0,903,395,284,1378,16.05734375,35788,28.764406714472845,1010.8109046779133,0,,,,N/A,5
2024-03-31T09:28:35,-0.46301117309999995,-0.056231331100000004,10.0582297991,0.036499197982331415,0.0044287729769356115,-0.03695734691097993,-0.9765000000000001,0.050260000000000006,1.6996000000000002,12.5,0,903,395,284,1378,16.05734375,35788,28.764406714472845,1010.8109046779133,0,,,,N/A,5
2024-03-31T09:28:35,-0.49172504429999997,-0.045463629400000004,10.04088183525,0.03787364476827696,0.002901609881440573,-0.036499197982331415,-0.97146,0.051660000000000005,1.65508,12.5,0,903,395,284,1378,16.05734375,35788,28.764406714472845,1010.8109046779133,0,,,,N/A,5
2024-03-31T09:28:35,-0.45882373355,-0.049651068949999995,10.070792117749999,0.03924809155422249,0.0013744467859455349,-0.03634648167278191,-0.97006,0.054180000000000006,1.6520000000000001,12.5,0,903,395,284,1378,15.8329296875,33226,28.676572499829575,1010.8307907827027,0,,,,N/A,-1
2024-03-31T09:28:36,-0.49292145559999995,-0.044267218100000005,10.034899778749999,0.038484510006474966,0.003970624048287101,-0.038179077387375956,-0.9599800000000002,0.05222,1.6503200000000002,12.5,0,903,395,284,1378,15.8329296875,33226,28.676572499829575,1010.8307907827027,0,,,,N/A,8
2024-03-31T09:28:36,-0.5264209719999999,-0.06161518194999999,10.060622621699999,0.04321871560250959,0.0018325957145940463,-0.03466660226773738,-0.9697800000000001,0.04578,1.6634800000000003,12.5,0,906,396,284,1379,15.8669140625,35727,28.760899602532945,1010.810105052837,0,,,,N/A,-1
2024-03-31T09:28:36,-0.47377887479999997,-0.0538385085,10.0534441539,0.036804630601430424,0.004276056667386108,-0.03420845333908886,-0.9723,0.042980000000000004,1.6784600000000003,12.5,0,906,396,284,1379,15.8669140625,35727,28.760899602532945,1010.810105052837,0,,,,N/A,-1
2024-03-31T09:28:36,-0.4761716973999999,-0.07058826669999999,10.034899778749999,0.03772092845872745,0.003207042500539581,-0.03695734691097993,-0.9686600000000001,0.047740000000000005,1.6797200000000003,12.5,0,906,396,284,1379,15.8669140625,35727,28.760899602532945,1010.810105052837,0,,,,N/A,-1
2024-03-31T09:28:37,-0.49292145559999995,-0.04247260115,10.0821580251,0.03497203488683638,0.0019853120241435504,-0.038942658935123484,-0.97258,0.050260000000000006,1.6555000000000002,12.5,0,906,396,284,1379,15.6708203125,33569,28.68614933059137,1010.8242855475893,0,,,,N/A,-1
2024-03-31T09:28:37,-0.50069812905,-0.03409772205,10.0462656861,0.03588833274413341,0.0035124751196385882,-0.039706240482871004,-0.9703400000000001,0.05614000000000001,1.6650200000000002,12.5,0,906,396,284,1379,15.6708203125,33569,28.68614933059137,1010.8242855475893,0,,,,N/A,-1
2024-03-31T09:28:37,-0.47138605219999996,-0.035892338999999995,10.06839929515,0.04077525464971753,0.007635815477475193,-0.0355829001250344,-0.9762200000000001,0.04886000000000001,1.66418,12.5,0,908,397,285,1381,15.7286328125,36001,28.76135386437442,1010.8081822478422,0,,,,N/A,-1
2024-03-31T09:28:37,-0.48873401604999994,-0.058624153699999994,10.071390323399998,0.03802636107782646,0.0016798794050445422,-0.039400807863771994,-0.9751000000000002,0.04914000000000001,1.6748200000000002,12.5,0,908,397,285,1381,15.7286328125,36001,28.76135386437442,1010.8081822478422,0,,,,N/A,-1
2024-03-31T09:28:37,-0.47736810869999996,-0.04905286329999999,10.07318494035,0.036499197982331415,0.0007635815477475193,-0.039095375244672985,-0.9686600000000001,0.04494000000000001,1.64738,12.5,0,908,397,285,1381,15.7286328125,36001,28.76135386437442,1010.8081822478422,0,,,,N/A,-1
2024-03-31T09:28:37,-0.47377887479999997,-0.05084748024999999,10.085747258999998,0.03543018381548489,0.00045814892864851157,-0.03451388595818787,-0.9597,0.0427,1.65158,12.5,0,908,397,285,1381,15.5551953125,33919,28.721026024048875,1010.8283695212085,0,,,,N/A,-1
2024-03-31T09:28:38,-0.48933222169999996,-0.031106693799999998,10.076774174250001,0.03604104905368291,-0.0009162978572970231,-0.04001167310197001,-0.9742600000000001,0.04354000000000001,1.6525600000000003,12.5,0,908,397,285,1381,15.5551953125,33919,28.721026024048875,1010.8283695212085,0,,,,N/A,8
2024-03-31T09:28:38,-0.50189454035,-0.06759723845,10.052247742599999,0.03741549583962844,0.0035124751196385882,-0.03772092845872745,-0.9658600000000002,0.04942,1.6828,12.5,0,909,397,286,1381,15.6346875,36563,28.792420518423064,1010.8150408988753,0,,,,N/A,8
2024-03-31T09:28:38,-0.48693939909999995,-0.045463629400000004,10.119246775399999,0.036499197982331415,-0.003970624048287101,-0.03772092845872745,-0.9669800000000002,0.046900000000000004,1.6667,12.5,0,909,397,286,1381,15.6346875,36563,28.792420518423064,1010.8150408988753,0,,,,N/A,8
2024-03-31T09:28:38,-0.46660040699999994,-0.06580262149999999,10.050453125649998,0.04016438941151951,0.003207042500539581,-0.0355829001250344,-0.9622200000000002,0.044660000000000005,1.6611000000000002,12.5,0,909,397,286,1381,15.6346875,36563,28.792420518423064,1010.8150408988753,0,,,,N/A,8
2024-03-31T09:28:38,-0.46899322959999995,-0.053240302850000004,10.067801089499998,0.037110063220529434,0.004123340357836604,-0.03390302071998985,-0.9577400000000001,0.05138,1.6513000000000002,12.5,0,909,397,286,1381,15.4852734375,34501,28.770247697042095,1010.8260214292673,0,,,,N/A,8
2024-03-31T09:28:39,-0.45882373355,-0.0538385085,10.103693428499998,0.07742716894159844,0.0018325957145940463,-0.0355829001250344,-0.96418,0.04886000000000001,1.6402400000000001,12.5,0,909,397,286,1381,15.4852734375,34501,28.770247697042095,1010.8260214292673,0,,,,N/A,8
2024-03-31T09:28:39,-0.4851447821499999,-0.06580262149999999,10.062417238649997,0.036804630601430424,0.00015271630954950385,-0.03726277953007894,-0.9672600000000001,0.044660000000000005,1.6427600000000002,12.5,0,909,397,286,1381,15.4852734375,34501,28.770247697042095,1010.8260214292673,0,,,,N/A,8
2024-03-31T09:28:39,-0.46241296745,-0.05204389154999999,10.0725867347,0.04001167310197001,0.0038179077387375964,-0.03772092845872745,-0.97118,0.04942,1.6800000000000002,12.5,0,909,397,286,1381,15.5798046875,37272,28.848253484679837,1010.8166943670291,0,,,,N/A,-1
2024-03-31T09:28:39,-0.46360937874999997,-0.05084748024999999,10.0725867347,0.04077525464971753,0.0012217304763960308,-0.03756821214917795,-0.9745400000000001,0.04494000000000001,1.6808400000000001,12.5,0,909,397,285,1380,15.849921875,39393,28.912368914049736,1010.8169385229749,0,,,,N/A,-1
2024-03-31T09:28:39,-0.44386859230000003,-0.04366901245,10.085149053349998,0.038789942625573975,0.0054977871437821395,-0.03512475119638588,-0.9667,0.050820000000000004,1.6807000000000003,12.5,0,909,397,285,1380,15.849921875,39393,28.912368914049736,1010.8169385229749,0,,,,N/A,-1
2024-03-31T09:28:39,-0.4450650036,-0.025722842949999998,10.06720288385,0.03604104905368291,0.004123340357836604,-0.03756821214917795,-0.9633400000000002,0.0483,1.6765000000000003,12.5,0,909,397,285,1381,15.849921875,39393,28.912368914049736,1010.8169385229749,0,,,,N/A,-1
2024-03-31T09:28:39,-0.49052863299999994,-0.059222359349999996,10.033105161799998,0.03634648167278191,0.006414085001079162,-0.03420845333908886,-0.9667,0.05306,1.6707600000000002,12.5,0,909,397,285,1381,15.76046875,37174,28.87283824835545,1010.8383418758758,0,,,,N/A,-1
2024-03-31T09:28:40,-0.47976093129999997,-0.05982056499999999,10.071988529050001,0.03405573702953936,0.0025961772623415654,-0.03588833274413341,-0.9681000000000002,0.0497,1.65018,12.5,0,909,397,285,1381,15.76046875,37174,28.87283824835545,1010.8383418758758,0,,,,N/A,9
2024-03-31T09:28:40,-0.49292145559999995,-0.06580262149999999,10.097113166349997,0.03756821214917795,0.002138028333693054,-0.03481931857728687,-0.9720200000000001,0.05614000000000001,1.6860200000000003,12.5,0,909,397,285,1380,15.862421875,39877,28.93515507995672,1010.8219385145444,0,,,,N/A,9
2024-03-31T09:28:40,-0.46959143524999997,-0.047856451999999994,10.104291634149998,0.038331793696925465,0.004581489286485115,-0.039400807863771994,-0.9756600000000001,0.04662,1.6774800000000003,12.5,0,909,397,285,1380,15.862421875,39877,28.93515507995672,1010.8219385145444,0,,,,N/A,9
2024-03-31T09:28:40,-0.5012963347,-0.04486542375,10.107880868049998,0.039095375244672985,0.004123340357836604,-0.03497203488683638,-0.9703400000000001,0.0483,1.6793000000000002,12.5,0,909,397,285,1380,15.862421875,39877,28.93515507995672,1010.8219385145444,0,,,,N/A,9
2024-03-31T09:28:40,-0.50548377425,-0.03649054465,10.078568791199999,0.03543018381548489,0.0007635815477475193,-0.03726277953007894,-0.9667,0.05446000000000001,1.68042,12.5,0,909,397,285,1380,15.6753125,37109,28.882754417120093,1010.8247421647056,0,,,,N/A,9
2024-03-31T09:28:41,-0.44386859230000003,-0.057427742399999995,10.09830957765,0.036193765363232405,0.004276056667386108,-0.0319177086958463,-0.9767800000000001,0.046060000000000004,1.67636,12.5,0,909,397,285,1380,15.6753125,37109,28.882754417120093,1010.8247421647056,0,,,,N/A,4
2024-03-31T09:28:41,-0.3529413335,-0.05084748024999999,10.07557776295,0.038179077387375956,0.0,-0.03756821214917795,-0.9697800000000001,0.046060000000000004,1.6648800000000001,12.5,0,909,397,285,1380,15.7415234375,39802,28.936890445213105,1010.8015538104987,0,,,,N/A,4
2024-03-31T09:28:41,-0.4677968183,-0.0538385085,10.1240324206,0.041080687268816536,0.0018325957145940463,-0.0357356164345839,-0.9695000000000001,0.042980000000000004,1.67104,12.5,0,909,397,285,1380,15.7415234375,39802,28.936890445213105,1010.8015538104987,0,,,,N/A,4
2024-03-31T09:28:41,-0.45643091095,-0.058624153699999994,10.067801089499998,0.040622538340168025,0.002138028333693054,-0.037110063220529434,-0.96418,0.040740000000000005,1.6692200000000001,12.5,0,909,397,285,1380,15.7415234375,39802,28.936890445213105,1010.8015538104987,0,,,,N/A,4
2024-03-31T09:28:41,-0.46301117309999995,-0.0538385085,10.052845948249999,0.038789942625573975,0.0015271630954950385,-0.03512475119638588,-0.97146,0.050260000000000006,1.6867200000000002,12.5,0,909,397,285,1380,15.571015625,37438,28.89122419484387,1010.8213657297194,0,,,,N/A,4
2024-03-31T09:28:42,-0.49770710079999997,-0.04725824635,10.06720288385,0.03405573702953936,0.0015271630954950385,-0.036499197982331415,-0.9672600000000001,0.050260000000000006,1.6745400000000001,12.5,0,909,398,285,1381,15.571015625,37438,28.89122419484387,1010.8213657297194,0,,,,N/A,-1
2024-03-31T09:28:42,-0.45822552789999993,-0.032901310749999996,10.034301573099999,0.03543018381548489,0.0025961772623415654,-0.03695734691097993,-0.9616600000000001,0.04914000000000001,1.6487800000000001,12.5,0,909,397,285,1381,15.65109375,40066,28.962778803366568,1010.8054961826145,0,,,,N/A,-1
2024-03-31T09:28:42,-0.49950171774999996,-0.060418770649999995,10.070792117749999,0.038484510006474966,0.0038179077387375964,-0.03802636107782646,-0.9664200000000001,0.04522,1.6532600000000002,12.5,0,909,397,285,1381,15.65109375,40066,28.962778803366568,1010.8054961826145,0,,,,N/A,-1
2024-03-31T09:28:42,-0.46959143524999997,-0.045463629400000004,10.048658508699999,0.03451388595818787,-0.00015271630954950385,-0.039553524173321496,-0.96894,0.052500000000000005,1.66194,12.5,0,909,397,285,1381,15.65109375,40066,28.962778803366568,1010.8054961826145,0,,,,N/A,-1
2024-03-31T09:28:42,-0.48454657649999994,-0.03409772205,10.039685423949999,0.041996985126113565,0.0033597588100890844,-0.03772092845872745,-0.9683800000000001,0.04718000000000001,1.6564800000000002,12.5,0,909,397,285,1381,15.50265625,37908,28.918783218173715,1010.8233780301042,0,,,,N/A,-1
2024-03-31T09:28:43,-0.50548377425,-0.060418770649999995,10.09591675505,0.03741549583962844,0.003970624048287101,-0.036499197982331415,-0.9728600000000002,0.04942,1.65018,12.5,0,909,397,285,1381,15.50265625,37908,28.918783218173715,1010.8233780301042,0,,,,N/A,0
2024-03-31T09:28:43,-0.5036891573,-0.059222359349999996,10.04985492,0.03924809155422249,0.004276056667386108,-0.036499197982331415,-0.9703400000000001,0.046900000000000004,1.6577400000000002,12.5,0,908,397,285,1380,15.596796875,40645,29.002332048048892,1010.8098840579937,0,,,,N/A,0
2024-03-31T09:28:43,-0.47497528609999995,-0.037686955949999996,10.08155981945,0.0357356164345839,0.003207042500539581,-0.03481931857728687,-0.9675400000000001,0.05194000000000001,1.6602600000000003,12.5,0,908,397,285,1380,15.596796875,40645,29.002332048048892,1010.8098840579937,0,,,,N/A,0
2024-03-31T09:28:43,-0.48035913694999993,-0.037686955949999996,10.04088183525,0.03512475119638588,0.002138028333693054,-0.0357356164345839,-0.96894,0.052500000000000005,1.6807000000000003,12.5,0,908,397,285,1380,15.596796875,40645,29.002332048048892,1010.8098840579937,0,,,,N/A,0
2024-03-31T09:28:43,-0.34576286570000003,-0.0646062102,10.04447106915,0.039095375244672985,0.003054326190990077,-0.038484510006474966,-0.9686600000000001,0.0511,1.68392,12.5,0,908,397,285,1380,15.4555859375,38356,28.9643273291693,1010.8239695590305,0,,,,N/A,0
2024-03-31T09:28:44,-0.3212364340499999,-0.04725824635,10.073783145999998,0.04214970143566306,0.003207042500539581,-0.03604104905368291,-0.9616600000000001,0.04942,1.6756600000000001,12.5,0,908,397,285,1380,15.4555859375,38356,28.9643273291693,1010.8239695590305,0,,,,N/A,-1
2024-03-31T09:28:44,-0.5012963347,-0.062213387599999996,10.055238770849998,0.04092797095926703,0.0044287729769356115,-0.039095375244672985,-0.9703400000000001,0.045500000000000006,1.6779000000000002,12.5,0,908,397,284,1377,15.4555859375,38356,28.9643273291693,1010.8239695590305,0,,,,N/A,-1
2024-03-31T09:28:44,-0.4881358103999999,-0.06161518194999999,10.064211855599998,0.03741549583962844,0.0016798794050445422,-0.03497203488683638,-0.9681000000000002,0.04746000000000001,1.6513000000000002,12.5,0,908,397,284,1377,15.5587109375,41483,29.048585380402052,1010.8096595028378,0,,,,N/A,4
2024-03-31T09:28:44,-0.4875376047499999,-0.05443671415,10.062417238649997,0.036804630601430424,0.0019853120241435504,-0.03436116964863837,-0.96306,0.054740000000000004,1.6595600000000001,12.5,0,906,396,283,1374,15.8372265625,43491,29.0971213381138,1010.8081028498049,0,,,,N/A,4
2024-03-31T09:28:44,-0.48035913694999993,-0.0681954441,10.033703367449998,0.039400807863771994,0.005039638215133627,-0.036499197982331415,-0.96418,0.05782000000000001,1.6506,12.5,0,906,396,283,1374,15.8372265625,43491,29.0971213381138,1010.8081028498049,0,,,,N/A,4
2024-03-31T09:28:44,-0.53539405675,-0.058624153699999994,10.0953185494,0.038331793696925465,0.003207042500539581,-0.039095375244672985,-0.9709000000000001,0.05698,1.6814,12.5,0,906,396,283,1374,15.8372265625,43491,29.0971213381138,1010.8081028498049,0,,,,N/A,4
2024-03-31T09:28:44,-0.6113661743,-0.0334995164,10.0701939121,0.039553524173321496,0.0044287729769356115,-0.03787364476827696,-0.9661400000000001,0.0567,1.68812,12.5,0,906,396,283,1374,15.7555859375,40960,29.058105997132166,1010.8196878594846,0,,,,N/A,4
2024-03-31T09:28:45,-0.48095734259999995,-0.047856451999999994,10.069595706449999,0.038942658935123484,0.0025961772623415654,-0.03756821214917795,-0.9633400000000002,0.05446000000000001,1.6685200000000002,12.5,0,906,396,283,1374,15.7555859375,40960,29.058105997132166,1010.8196878594846,0,,,,N/A,-1
2024-03-31T09:28:45,-0.46839502395,-0.011365907350000001,10.027123105299998,0.04291328298341058,0.004123340357836604,-0.039706240482871004,-0.9683800000000001,0.047740000000000005,1.67314,12.5,0,907,396,283,1376,15.8675,43671,29.121300040332322,1010.8005486730802,0,,,,N/A,-1
2024-03-31T09:28:45,-0.49292145559999995,-0.023330020349999998,10.101300605899999,0.041386119887915546,0.0033597588100890844,-0.03313943917224234,-0.9756600000000001,0.0511,1.6748200000000002,12.5,0,907,396,283,1376,15.8675,43671,29.121300040332322,1010.8005486730802,0,,,,N/A,-1
2024-03-31T09:28:45,-0.5204389155,-0.0945164927,10.2628161314,0.03756821214917795,0.003970624048287101,-0.036193765363232405,-0.9720200000000001,0.047740000000000005,1.6667,12.5,0,907,396,283,1376,15.8675,43671,29.121300040332322,1010.8005486730802,0,,,,N/A,-1
2024-03-31T09:28:45,-0.26739792554999997,0.10408778309999998,9.6394858441,0.036499197982331415,-0.0018325957145940463,-0.03787364476827696,-0.9672600000000001,0.050820000000000004,1.6788800000000001,12.5,0,907,396,283,1376,15.69171875,40881,29.06416821557126,1010.825722474763,0,,,,N/A,-1
