Timestamp,Accel_X,Accel_Y,Accel_Z,Gyro_X,Gyro_Y,Gyro_Z,Mag_X,Mag_Y,Mag_Z,LSM9DS1_Temp,Proximity,Color_R,Color_G,Color_B,Color_C,BME680_Temp,Gas,Humidity,Pressure,Switch_Pressed
2024-03-17T10:05:05,-0.20817556619999997,-0.020338992099999998,10.030114133549999,0.04627304179349966,-0.01786780821729195,-0.0435241482216086,0.10682000000000001,0.48538000000000003,-0.45682000000000006,20.5,0,0,0,0,0,33.574921875,76691,100,695.662002676745,0
2024-03-17T10:05:05,-0.24705893344999996,0.0167497582,10.09591675505,0.04001167310197001,-0.002138028333693054,-0.04444044607890562,0.11130000000000001,0.4949,-0.45458000000000004,20.5,0,0,0,0,0,33.574921875,76691,100,695.662002676745,0
2024-03-17T10:05:05,-0.23629123174999997,0.0023928226,10.0845508477,0.04245513405476207,-0.0003054326190990077,-0.047952921198544204,0.10738,0.49602,-0.45052000000000003,21.5,0,0,0,0,0,33.574921875,76691,100,695.662002676745,0
2024-03-17T10:05:05,-0.21894326790000002,-0.0095712904,10.0773723799,0.04505131131710364,-0.0009162978572970231,-0.04505131131710364,0.10738,0.49602,-0.45052000000000003,20.5,0,0,0,0,0,33.574921875,76691,100,695.662002676745,0
2024-03-17T10:05:05,-0.27517459899999996,0.0,10.119844981049999,0.04153883619746505,-0.0003054326190990077,-0.0476474885794452,0.11354,0.48622000000000004,-0.45640000000000003,20.5,0,0,0,0,0,33.574921875,76691,100,695.662002676745,0
2024-03-17T10:05:05,-0.25184457865,-0.0023928226,10.080961613799998,0.04596760917440065,0.0018325957145940463,-0.04734205596034619,0.10318000000000001,0.49462000000000006,-0.4537400000000001,21.5,0,0,0,0,0,33.574921875,76691,100,695.662002676745,0
2024-03-17T10:05:05,-0.24885355039999998,-0.1519442351,10.109675485,0.039553524173321496,0.0007635815477475193,-0.04520402762665314,0.10318000000000001,0.49462000000000006,-0.4537400000000001,21.5,0,0,0,0,0,33.574921875,76691,100,695.662002676745,0
2024-03-17T10:05:05,-0.2500499617,-0.0077766734499999995,10.11386292455,0.038789942625573975,-0.0009162978572970231,-0.04703662334124718,0.10066000000000001,0.4907,-0.46354,20.5,0,0,0,0,0,27.5493359375,25470,26.82082224902018,1000.8402857445507,0
2024-03-17T10:05:05,-0.23449661479999998,-0.0023928226,10.079765202499999,0.04306599929296009,-0.006719517620178169,-0.043676864531158106,0.09618,0.48930000000000007,-0.45150000000000007,20.5,0,0,0,0,0,27.5493359375,25470,26.82082224902018,1000.8402857445507,0
2024-03-17T10:05:05,-0.20937197749999997,0.023330020349999998,10.134800122299998,0.04001167310197001,-0.0035124751196385882,-0.04291328298341058,0.10906000000000002,0.49182000000000003,-0.4529,20.5,0,0,0,0,0,27.5493359375,25470,26.82082224902018,1000.8402857445507,0
2024-03-17T10:05:05,-0.23449661479999998,0.0095712904,10.119844981049999,0.04321871560250959,0.0009162978572970231,-0.041996985126113565,0.09982,0.48174000000000006,-0.4529,20.5,0,0,0,0,0,27.5493359375,25470,26.82082224902018,1000.8402857445507,0
2024-03-17T10:05:05,-0.23389840915,0.0083748791,10.0701939121,0.0433714319120591,-0.0003054326190990077,-0.04612032548395016,0.09982,0.48174000000000006,-0.4529,20.5,0,0,0,0,0,27.5493359375,25470,26.82082224902018,1000.8402857445507,0
2024-03-17T10:05:05,-0.24765713909999998,-0.007178467799999999,10.08634546465,0.038179077387375956,-0.002901609881440573,-0.041844268816564056,0.09926,0.48790000000000006,-0.44856000000000007,21.5,0,0,0,0,0,27.5493359375,25470,26.82082224902018,1000.8402857445507,0
2024-03-17T10:05:05,-0.2141576227,0.027517459899999996,10.0594262104,0.04505131131710364,-0.00473420559603462,-0.04489859500755413,0.10066000000000001,0.49266000000000004,-0.45458000000000004,20.5,0,0,0,0,0,27.5493359375,25470,26.82082224902018,1000.8402857445507,0
2024-03-17T10:05:05,-0.25124637299999997,-0.023330020349999998,10.146764235300001,0.04382958084070761,-0.002901609881440573,-0.048411070127192715,0.10066000000000001,0.49266000000000004,-0.45458000000000004,20.5,0,0,0,0,0,27.795234375,37438,26.862154983275666,1000.8611234602743,0
2024-03-17T10:05:05,-0.2608176634,0.0017946169499999999,10.0546405652,0.039858956792420505,-0.003970624048287101,-0.04566217655530165,0.10598,0.48930000000000007,-0.45738000000000006,20.5,0,0,0,0,0,27.795234375,37438,26.862154983275666,1000.8611234602743,0
2024-03-17T10:05:05,-0.24646072779999997,0.0023928226,10.07438135165,0.039553524173321496,-0.0006108652381980154,-0.04276056667386108,0.10598,0.48930000000000007,-0.45738000000000006,20.5,0,0,0,0,0,27.795234375,37438,26.862154983275666,1000.8611234602743,0
2024-03-17T10:05:05,-0.21355941705,-0.0083748791,10.138987561849998,0.04306599929296009,-0.004886921905584123,-0.04459316238845512,0.10346000000000001,0.49518000000000006,-0.4548600000000001,20.5,0,0,0,0,0,27.795234375,37438,26.862154983275666,1000.8611234602743,0
2024-03-17T10:05:05,-0.27337998204999997,0.0011964113,10.0893364929,0.041386119887915546,-0.0015271630954950385,-0.04642575810304917,0.10794000000000001,0.48594000000000004,-0.46074000000000004,21.5,0,0,0,0,0,27.795234375,37438,26.862154983275666,1000.8611234602743,0
2024-03-17T10:05:05,-0.2524427843,-0.14656038424999998,10.10668445675,0.043982297150257116,-0.002901609881440573,-0.04612032548395016,0.10794000000000001,0.48594000000000004,-0.46074000000000004,20.5,0,0,0,0,0,27.795234375,37438,26.862154983275666,1000.8611234602743,0
2024-03-17T10:05:05,-0.2584248408,0.14057832774999998,10.087541875949999,0.04321871560250959,-0.002901609881440573,-0.04505131131710364,0.10178000000000001,0.49434000000000006,-0.44408000000000003,21.5,0,0,0,0,0,27.795234375,37438,26.862154983275666,1000.8611234602743,0
2024-03-17T10:05:05,-0.22432711874999997,-0.010767701699999998,10.08395264205,0.04153883619746505,-0.00473420559603462,-0.048258353817643214,0.10094000000000002,0.48594000000000004,-0.4555600000000001,20.5,0,0,0,0,0,28.1534375,47237,26.912458030730946,1000.8710360104938,0
2024-03-17T10:05:05,-0.24646072779999997,0.010767701699999998,10.080961613799998,0.040317105721069016,-0.0012217304763960308,-0.04535674393620265,0.10486000000000001,0.49154000000000003,-0.45164000000000004,20.5,0,0,0,0,0,28.1534375,47237,26.912458030730946,1000.8710360104938,0
2024-03-17T10:05:05,-0.23928225999999997,0.0083748791,10.0929257268,0.041996985126113565,-0.0033597588100890844,-0.04596760917440065,0.10430000000000002,0.49602,-0.44744000000000006,21.5,0,116,63,57,209,28.1534375,47237,26.912458030730946,1000.8710360104938,0
2024-03-17T10:05:05,-0.2608176634,-0.01615155255,10.061819032999999,0.04306599929296009,-0.007788531787024696,-0.0435241482216086,0.10430000000000002,0.49602,-0.44744000000000006,20.5,0,116,63,57,209,28.1534375,47237,26.912458030730946,1000.8710360104938,0
2024-03-17T10:05:05,-0.26979074815,0.005383850849999999,10.060622621699999,0.038942658935123484,-0.0070249502392771765,-0.04627304179349966,0.10178000000000001,0.48846000000000006,-0.45752000000000004,20.5,0,116,63,57,209,28.1534375,47237,26.912458030730946,1000.8710360104938,0
2024-03-17T10:05:05,-0.24705893344999996,-0.0083748791,10.118050364099998,0.04688390703169768,-0.0035124751196385882,-0.04810563750809371,0.10430000000000002,0.48846000000000006,-0.45864000000000005,20.5,0,116,63,57,209,28.1534375,47237,26.912458030730946,1000.8710360104938,0
2024-03-17T10:05:05,-0.24107687694999996,-0.00418743955,10.0821580251,0.04001167310197001,-0.0036651914291880926,-0.04489859500755413,0.10430000000000002,0.48846000000000006,-0.45864000000000005,21.5,0,116,63,57,209,28.1534375,47237,26.912458030730946,1000.8710360104938,0
2024-03-17T10:05:05,-0.24107687694999996,0.0035892338999999997,10.1001041946,0.03924809155422249,0.0003054326190990077,-0.04459316238845512,0.10262,0.4968600000000001,-0.45738000000000006,21.5,0,116,63,57,209,28.5378125,55140,26.95397678061069,1000.879938538341,0
2024-03-17T10:05:06,-0.26500510294999996,-0.0017946169499999999,10.10668445675,0.04046982203061852,-0.004123340357836604,-0.04077525464971753,0.10262,0.48678000000000005,-0.43428000000000005,20.5,0,116,63,57,209,28.5378125,55140,26.95397678061069,1000.879938538341,0
2024-03-17T10:05:06,-0.2620140747,-0.0167497582,10.048658508699999,0.04214970143566306,-0.0019853120241435504,-0.04520402762665314,0.10094000000000002,0.49406000000000005,-0.4631200000000001,21.5,0,116,63,57,209,28.5378125,55140,26.95397678061069,1000.879938538341,0
2024-03-17T10:05:06,-0.20877377184999998,-0.005982056499999999,10.209575828550001,0.0435241482216086,-0.00015271630954950385,-0.04657847441259867,0.10766,0.49014,-0.44954,21.5,0,116,63,57,209,28.5378125,55140,26.95397678061069,1000.879938538341,0
2024-03-17T10:05:06,-0.24705893344999996,-0.01734796385,10.077970585549998,0.039095375244672985,-0.0024434609527920616,-0.04444044607890562,0.10766,0.49014,-0.44954,20.5,0,116,63,57,209,28.5378125,55140,26.95397678061069,1000.879938538341,0
2024-03-17T10:05:06,-0.2584248408,-0.0095712904,10.07916699685,0.04306599929296009,-0.002138028333693054,-0.04382958084070761,0.10542000000000001,0.49154000000000003,-0.45598,21.5,0,116,63,57,209,28.5378125,55140,26.95397678061069,1000.879938538341,0
2024-03-17T10:05:06,-0.24406790519999996,-0.00658026215,10.1359965336,0.04291328298341058,0.00015271630954950385,-0.04260785036431157,0.10850000000000001,0.4963000000000001,-0.4467400000000001,20.5,0,116,63,57,209,28.5378125,55140,26.95397678061069,1000.879938538341,0
2024-03-17T10:05:06,-0.23688943739999999,-0.021535403399999997,10.127621654499999,0.043982297150257116,-0.002138028333693054,-0.048411070127192715,0.10850000000000001,0.4963000000000001,-0.4467400000000001,20.5,0,116,63,57,209,28.90421875,61624,26.955634853695948,1000.8876737514161,0
2024-03-17T10:05:06,-0.24705893344999996,0.0017946169499999999,10.137192944899999,0.04444044607890562,-0.0022907446432425577,-0.0433714319120591,0.10262,0.4907,-0.45836000000000005,21.5,0,116,63,57,209,28.90421875,61624,26.955634853695948,1000.8876737514161,0
2024-03-17T10:05:06,-0.24885355039999998,-0.008973084749999999,10.100702400249999,0.04886921905584123,-0.0007635815477475193,-0.04444044607890562,0.10262,0.4907,-0.45836000000000005,21.5,0,116,63,57,209,28.90421875,61624,26.955634853695948,1000.8876737514161,0
2024-03-17T10:05:06,-0.23808584869999996,-0.005383850849999999,10.078568791199999,0.04535674393620265,0.0,-0.04734205596034619,0.10878000000000002,0.4904200000000001,-0.44716,21.5,0,116,63,57,209,28.90421875,61624,26.955634853695948,1000.8876737514161,0
2024-03-17T10:05:06,-0.27218357075,-0.023928225999999997,10.09830957765,0.04612032548395016,0.0019853120241435504,-0.04428772976935611,0.10374000000000001,0.48846000000000006,-0.45122,20.5,0,116,63,57,209,28.90421875,61624,26.955634853695948,1000.8876737514161,0
2024-03-17T10:05:06,-0.24526431649999997,-0.013758729949999998,10.107880868049998,0.04046982203061852,-0.0022907446432425577,-0.04520402762665314,0.10374000000000001,0.48846000000000006,-0.45122,21.5,0,116,63,57,209,28.90421875,61624,26.955634853695948,1000.8876737514161,0
2024-03-17T10:05:06,-0.2667997199,0.005383850849999999,10.073783145999998,0.04245513405476207,-0.0044287729769356115,-0.04444044607890562,0.09982,0.49714,-0.46242,20.5,0,116,63,57,209,28.90421875,61624,26.955634853695948,1000.8876737514161,0
2024-03-17T10:05:06,-0.24646072779999997,-0.0023928226,10.091729315499999,0.040317105721069016,-0.0007635815477475193,-0.047952921198544204,0.09730000000000001,0.49658,-0.45654,21.5,0,116,63,57,209,29.2348828125,66901,26.954491828258053,1000.9049003987851,0
2024-03-17T10:05:06,-0.24945175605,-0.008973084749999999,10.085747258999998,0.04382958084070761,0.001069014166846527,-0.04886921905584123,0.10794000000000001,0.48454,-0.45976000000000006,20.5,0,116,63,57,209,29.2348828125,66901,26.954491828258053,1000.9049003987851,0
2024-03-17T10:05:06,-0.24646072779999997,-0.01615155255,10.08155981945,0.04230241774521256,-0.0013744467859455349,-0.04688390703169768,0.10178000000000001,0.48650000000000004,-0.46452000000000004,21.5,0,116,63,57,209,29.2348828125,66901,26.954491828258053,1000.9049003987851,0
2024-03-17T10:05:06,-0.22133609049999997,-0.0083748791,10.0582297991,0.04077525464971753,-0.0019853120241435504,-0.04245513405476207,0.10906000000000002,0.48734000000000005,-0.46816,21.5,0,116,63,57,209,29.2348828125,66901,26.954491828258053,1000.9049003987851,0
2024-03-17T10:05:06,-0.24586252214999998,0.011365907350000001,10.085747258999998,0.041691552507014555,-0.0024434609527920616,-0.04550946024575215,0.10906000000000002,0.48734000000000005,-0.46816,20.5,0,116,63,57,209,29.2348828125,66901,26.954491828258053,1000.9049003987851,0
2024-03-17T10:05:06,-0.2536391956,0.01615155255,10.088738287249999,0.04092797095926703,-0.0025961772623415654,-0.04673119072214818,0.10822000000000001,0.48230000000000006,-0.4555600000000001,21.5,0,116,63,57,209,29.2348828125,66901,26.954491828258053,1000.9049003987851,0
2024-03-17T10:05:06,-0.23748764304999997,-0.005982056499999999,10.105488045449999,0.04550946024575215,-0.005803219762881146,-0.0476474885794452,0.10150000000000002,0.4907,-0.45444000000000007,21.5,0,116,63,57,209,29.2348828125,66901,26.954491828258053,1000.9049003987851,0
2024-03-17T10:05:06,-0.2500499617,0.01854437515,10.05643518215,0.041080687268816536,-0.002901609881440573,-0.04413501345980661,0.10150000000000002,0.4907,-0.45444000000000007,20.5,0,116,63,57,209,29.5282421875,71130,26.93937425371833,1000.913127539017,0
2024-03-17T10:05:06,-0.24167508259999998,0.0017946169499999999,10.103693428499998,0.041386119887915546,-0.0016798794050445422,-0.04046982203061852,0.10234,0.48958,-0.44982000000000005,21.5,0,122,66,61,221,29.5282421875,71130,26.93937425371833,1000.913127539017,0
2024-03-17T10:05:06,-0.23210379219999996,0.010767701699999998,10.080961613799998,0.04016438941151951,-0.006719517620178169,-0.04489859500755413,0.09842000000000002,0.48734000000000005,-0.45444000000000007,20.5,0,122,66,61,221,29.5282421875,71130,26.93937425371833,1000.913127539017,0
2024-03-17T10:05:06,-0.2620140747,0.008973084749999999,10.064211855599998,0.04123340357836604,-0.00473420559603462,-0.04444044607890562,0.11242000000000002,0.48762000000000005,-0.44982000000000005,21.5,0,122,66,61,221,29.5282421875,71130,26.93937425371833,1000.913127539017,0
2024-03-17T10:05:06,-0.23928225999999997,0.13938191645,10.033105161799998,0.04230241774521256,-0.0019853120241435504,-0.04520402762665314,0.11242000000000002,0.48762000000000005,-0.44982000000000005,20.5,0,122,66,61,221,29.5282421875,71130,26.93937425371833,1000.913127539017,0
2024-03-17T10:05:06,-0.26859433685,-0.0167497582,10.076774174250001,0.043982297150257116,-0.0022907446432425577,-0.04291328298341058,0.10374000000000001,0.49154000000000003,-0.45332000000000006,21.5,0,122,66,61,221,29.5282421875,71130,26.93937425371833,1000.913127539017,0
2024-03-17T10:05:06,-0.24287149389999999,-0.013758729949999998,10.0725867347,0.04214970143566306,-0.0007635815477475193,-0.04566217655530165,0.10654000000000001,0.49518000000000006,-0.4543000000000001,20.5,0,122,66,61,221,29.5282421875,71130,26.93937425371833,1000.913127539017,0
2024-03-17T10:05:06,-0.23928225999999997,-0.013758729949999998,10.09591675505,0.03741549583962844,-0.0012217304763960308,-0.048411070127192715,0.10654000000000001,0.49518000000000006,-0.4543000000000001,21.5,0,122,66,61,221,29.785078125,74987,26.89376925738267,1000.9316815840523,0
2024-03-17T10:05:06,-0.21954147355,-0.005383850849999999,10.071390323399998,0.0027488935718910697,-0.0038179077387375964,-0.04321871560250959,0.10038000000000001,0.48818000000000006,-0.45346000000000003,21.5,0,122,66,61,221,29.785078125,74987,26.89376925738267,1000.9316815840523,0
2024-03-17T10:05:06,-0.26321048599999997,0.022731814700000002,10.130612682750002,0.04612032548395016,-0.0007635815477475193,-0.048411070127192715,0.10150000000000002,0.48930000000000007,-0.46284000000000003,20.5,0,122,66,61,221,29.785078125,74987,26.89376925738267,1000.9316815840523,0
2024-03-17T10:05:06,-0.24526431649999997,-0.020338992099999998,10.0295159279,0.03726277953007894,0.0009162978572970231,-0.04612032548395016,0.10150000000000002,0.48930000000000007,-0.46284000000000003,21.5,0,122,66,61,221,29.785078125,74987,26.89376925738267,1000.9316815840523,0
2024-03-17T10:05:06,-0.26380869165,0.007178467799999999,10.1024970172,0.038331793696925465,0.0006108652381980154,-0.04077525464971753,0.09674,0.48790000000000006,-0.45738000000000006,21.5,0,122,66,61,221,29.785078125,74987,26.89376925738267,1000.9316815840523,0
2024-03-17T10:05:06,-0.2524427843,-0.017946169499999998,10.1204431867,0.04214970143566306,-0.001069014166846527,-0.04260785036431157,0.10626000000000001,0.48678000000000005,-0.45164000000000004,21.5,0,122,66,61,221,29.785078125,74987,26.89376925738267,1000.9316815840523,0
2024-03-17T10:05:06,-0.22731814699999997,-0.0017946169499999999,10.088738287249999,0.04566217655530165,-0.0009162978572970231,-0.04642575810304917,0.10626000000000001,0.48678000000000005,-0.45164000000000004,21.5,0,122,66,61,221,29.785078125,74987,26.89376925738267,1000.9316815840523,0
2024-03-17T10:05:06,-0.23449661479999998,-0.0011964113,10.132407299699999,0.04550946024575215,-0.0027488935718910697,-0.04627304179349966,0.11018,0.49014,-0.45500000000000007,21.5,0,122,66,61,221,30.00734375,78111,26.861937055003203,1000.9387579058634,0
2024-03-17T10:05:06,-0.24945175605,-0.15134602945,10.009176935799998,0.04428772976935611,-0.002901609881440573,-0.0474947722698957,0.10486000000000001,0.49238000000000004,-0.45822,21.5,0,122,66,61,221,30.00734375,78111,26.861937055003203,1000.9387579058634,0
2024-03-17T10:05:06,-0.2584248408,0.0035892338999999997,10.07916699685,0.04230241774521256,-0.0015271630954950385,-0.04780020488899471,0.11074,0.48818000000000006,-0.45416,21.5,0,122,66,61,221,30.00734375,78111,26.861937055003203,1000.9387579058634,0
2024-03-17T10:05:07,-0.23449661479999998,0.00059820565,10.088738287249999,0.04382958084070761,-0.00473420559603462,-0.0435241482216086,0.10710000000000001,0.49462000000000006,-0.45304,21.5,0,122,66,61,221,30.00734375,78111,26.861937055003203,1000.9387579058634,0
2024-03-17T10:05:07,-0.24167508259999998,-0.00059820565,10.12582703755,0.04001167310197001,-0.0044287729769356115,-0.040317105721069016,0.10710000000000001,0.49462000000000006,-0.45304,20.5,0,122,66,61,221,30.00734375,78111,26.861937055003203,1000.9387579058634,0
2024-03-17T10:05:07,-0.2500499617,0.0023928226,10.094720343749998,0.04230241774521256,-0.006414085001079162,-0.04627304179349966,0.09674,0.49126000000000003,-0.4478600000000001,21.5,0,122,66,61,221,30.00734375,78111,26.861937055003203,1000.9387579058634,0
2024-03-17T10:05:07,-0.2656033086,-0.0011964113,10.09113110985,0.04535674393620265,-0.0019853120241435504,-0.0474947722698957,0.10234,0.49266000000000004,-0.46340000000000003,20.5,0,122,66,61,221,30.00734375,78111,26.861937055003203,1000.9387579058634,0
2024-03-17T10:05:07,-0.2656033086,-0.013758729949999998,10.110273690649999,0.04780020488899471,-0.0015271630954950385,-0.0476474885794452,0.10234,0.49266000000000004,-0.46340000000000003,21.5,0,122,66,61,221,30.1993359375,81192,26.80561116947886,1000.9485845983601,0
2024-03-17T10:05:07,-0.25124637299999997,0.011964112999999998,10.06122082735,0.04657847441259867,-0.0009162978572970231,-0.04413501345980661,0.10094000000000002,0.49322000000000005,-0.4548600000000001,20.5,0,122,66,61,221,30.1993359375,81192,26.80561116947886,1000.9485845983601,0
2024-03-17T10:05:07,-0.25124637299999997,-0.010169496049999999,10.0821580251,0.04566217655530165,-0.0027488935718910697,-0.04550946024575215,0.10094000000000002,0.49322000000000005,-0.4548600000000001,21.5,0,122,66,61,221,30.1993359375,81192,26.80561116947886,1000.9485845983601,0
2024-03-17T10:05:07,-0.2727817764,-0.0047856452,10.0666046782,0.043676864531158106,0.001069014166846527,-0.04214970143566306,0.10206000000000001,0.49378000000000005,-0.45752000000000004,20.5,0,122,66,61,221,30.1993359375,81192,26.80561116947886,1000.9485845983601,0
2024-03-17T10:05:07,-0.26141586904999997,-0.01615155255,10.071988529050001,0.03924809155422249,0.0,-0.041844268816564056,0.10150000000000002,0.49574000000000007,-0.45654,20.5,0,122,66,61,221,30.1993359375,81192,26.80561116947886,1000.9485845983601,0
2024-03-17T10:05:07,-0.24765713909999998,0.022731814700000002,10.018150020550001,0.039706240482871004,-0.005345070834232635,-0.04505131131710364,0.10150000000000002,0.49574000000000007,-0.45654,21.5,0,122,66,61,221,30.1993359375,81192,26.80561116947886,1000.9485845983601,0
2024-03-17T10:05:07,-0.24287149389999999,0.00658026215,10.08036340815,0.04581489286485116,-0.0027488935718910697,-0.04230241774521256,0.09954,0.49602,-0.47040000000000004,21.5,0,122,66,61,221,30.1993359375,81192,26.80561116947886,1000.9485845983601,0
2024-03-17T10:05:07,-0.25722842949999997,-0.01615155255,10.0654082669,0.038637226316024474,-0.003054326190990077,-0.04535674393620265,0.10514000000000001,0.48762000000000005,-0.45640000000000003,20.5,0,122,66,61,221,30.36359375,83276,26.741544315735975,1000.9527948479252,0
2024-03-17T10:05:07,-0.22552353004999998,-0.011964112999999998,10.05882800475,0.04474587869800463,-0.00045814892864851157,-0.04444044607890562,0.10066000000000001,0.49378000000000005,-0.4537400000000001,20.5,0,135,73,67,242,30.36359375,83276,26.741544315735975,1000.9527948479252,0
2024-03-17T10:05:07,-0.24646072779999997,0.005383850849999999,10.08155981945,0.038331793696925465,-0.004123340357836604,-0.04382958084070761,0.10710000000000001,0.49210000000000004,-0.46088000000000007,20.5,0,135,73,67,242,30.36359375,83276,26.741544315735975,1000.9527948479252,0
2024-03-17T10:05:07,-0.25184457865,-0.00658026215,10.1120683076,0.04306599929296009,-0.001069014166846527,-0.043676864531158106,0.10710000000000001,0.49210000000000004,-0.46088000000000007,20.5,0,135,73,67,242,30.36359375,83276,26.741544315735975,1000.9527948479252,0
2024-03-17T10:05:07,-0.27098715944999996,0.0131605243,10.04447106915,0.039553524173321496,-0.0022907446432425577,-0.04276056667386108,0.10514000000000001,0.49182000000000003,-0.45444000000000007,21.5,0,135,73,67,242,30.36359375,83276,26.741544315735975,1000.9527948479252,0
2024-03-17T10:05:07,-0.2524427843,-0.005982056499999999,10.104291634149998,0.039400807863771994,-0.0016798794050445422,-0.0433714319120591,0.10598,0.49378000000000005,-0.46172,20.5,0,135,73,67,242,30.36359375,83276,26.741544315735975,1000.9527948479252,0
2024-03-17T10:05:07,-0.2500499617,-0.015553346899999999,10.08155981945,0.04291328298341058,0.00015271630954950385,-0.04428772976935611,0.10598,0.49378000000000005,-0.46172,21.5,0,135,73,67,242,30.36359375,83276,26.741544315735975,1000.9527948479252,0
2024-03-17T10:05:07,-0.24346969954999997,0.005383850849999999,10.078568791199999,0.047952921198544204,-0.004123340357836604,-0.04718933965079669,0.11242000000000002,0.48958,-0.44828,20.5,0,135,73,67,242,30.5071484375,85383,26.68133493807585,1000.9592450336157,0
2024-03-17T10:05:07,-0.22133609049999997,-0.010169496049999999,10.1024970172,0.04550946024575215,-0.0019853120241435504,-0.049021935365390734,0.10262,0.49658,-0.45934,21.5,0,135,73,67,242,30.5071484375,85383,26.68133493807585,1000.9592450336157,0
2024-03-17T10:05:07,-0.25124637299999997,0.01854437515,10.110871896299999,0.043982297150257116,-0.00595593607243065,-0.04642575810304917,0.10010000000000001,0.49714,-0.44954,20.5,0,135,73,67,242,30.5071484375,85383,26.68133493807585,1000.9592450336157,0
2024-03-17T10:05:07,-0.24526431649999997,0.008973084749999999,10.069595706449999,0.04306599929296009,-0.003207042500539581,-0.048258353817643214,0.11018,0.4909800000000001,-0.4526200000000001,21.5,0,135,73,67,242,30.5071484375,85383,26.68133493807585,1000.9592450336157,0
2024-03-17T10:05:07,-0.25722842949999997,-0.028713871199999998,10.0941221381,0.04688390703169768,-0.0007635815477475193,-0.04245513405476207,0.11018,0.4909800000000001,-0.4526200000000001,20.5,0,135,73,67,242,30.5071484375,85383,26.68133493807585,1000.9592450336157,0
2024-03-17T10:05:07,-0.23449661479999998,0.0,10.051649536949999,0.040622538340168025,-0.0022907446432425577,-0.047952921198544204,0.10374000000000001,0.49770000000000003,-0.4531800000000001,21.5,0,135,73,67,242,30.5071484375,85383,26.68133493807585,1000.9592450336157,0
2024-03-17T10:05:07,-0.2644068973,-0.0011964113,10.06839929515,0.04016438941151951,-0.0033597588100890844,-0.04734205596034619,0.10038000000000001,0.49658,-0.4571,20.5,0,135,73,67,242,30.5071484375,85383,26.68133493807585,1000.9592450336157,0
2024-03-17T10:05:07,-0.24167508259999998,0.015553346899999999,10.03729260135,0.04596760917440065,-0.004581489286485115,-0.04474587869800463,0.10038000000000001,0.49658,-0.4571,21.5,0,135,73,67,242,30.631171875,87236,26.603026676344058,1000.9555143197944,0
2024-03-17T10:05:07,-0.24885355039999998,0.008973084749999999,10.097711372000001,0.04291328298341058,-0.0007635815477475193,-0.04230241774521256,0.10094000000000002,0.49518000000000006,-0.4555600000000001,21.5,0,135,73,67,242,30.631171875,87236,26.603026676344058,1000.9555143197944,0
2024-03-17T10:05:07,-0.23688943739999999,0.015553346899999999,10.09591675505,0.03665191429188092,-0.0027488935718910697,-0.0433714319120591,0.10094000000000002,0.49518000000000006,-0.4555600000000001,21.5,0,135,73,67,242,30.631171875,87236,26.603026676344058,1000.9555143197944,0
2024-03-17T10:05:07,-0.24346969954999997,0.0,10.119844981049999,0.04153883619746505,-0.0033597588100890844,-0.049021935365390734,0.09198,0.49434000000000006,-0.45794000000000007,21.5,0,135,73,67,242,30.631171875,87236,26.603026676344058,1000.9555143197944,0
2024-03-17T10:05:07,-0.23449661479999998,-0.020338992099999998,10.060024416049998,0.040317105721069016,-0.0038179077387375964,-0.04535674393620265,0.09254000000000001,0.49406000000000005,-0.46130000000000004,21.5,0,135,73,67,242,30.631171875,87236,26.603026676344058,1000.9555143197944,0
2024-03-17T10:05:07,-0.25902304644999996,0.0077766734499999995,10.1048898398,0.04459316238845512,-0.0036651914291880926,-0.04627304179349966,0.09254000000000001,0.49406000000000005,-0.46130000000000004,20.5,0,135,73,67,242,30.631171875,87236,26.603026676344058,1000.9555143197944,0
2024-03-17T10:05:07,-0.26620151425,-0.0095712904,10.097711372000001,0.04153883619746505,-0.0003054326190990077,-0.04245513405476207,0.09758000000000001,0.49378000000000005,-0.46088000000000007,20.5,0,135,73,67,242,30.631171875,87236,26.603026676344058,1000.9555143197944,0
2024-03-17T10:05:07,-0.24047867129999997,0.0167497582,10.05882800475,0.04413501345980661,-0.005192354524683131,-0.04596760917440065,0.09646,0.4907,-0.45178,21.5,0,135,73,67,242,30.738203125,89742,26.52888672933691,1000.9511270630868,0
2024-03-17T10:05:07,-0.24167508259999998,0.007178467799999999,10.078568791199999,0.041386119887915546,-0.0022907446432425577,-0.043982297150257116,0.10346000000000001,0.4968600000000001,-0.4572400000000001,21.5,0,135,73,67,242,30.738203125,89742,26.52888672933691,1000.9511270630868,0
2024-03-17T10:05:07,-0.23868405434999998,-0.022731814700000002,10.079765202499999,0.04581489286485116,0.00045814892864851157,-0.04291328298341058,0.09562000000000001,0.49574000000000007,-0.45794000000000007,21.5,0,135,73,67,242,30.738203125,89742,26.52888672933691,1000.9511270630868,0
2024-03-17T10:05:07,-0.23629123174999997,-0.0191425808,10.042676452199998,0.041844268816564056,-0.0015271630954950385,-0.04810563750809371,0.09562000000000001,0.49574000000000007,-0.45794000000000007,21.5,0,135,73,67,242,30.738203125,89742,26.52888672933691,1000.9511270630868,0
2024-03-17T10:05:07,-0.26321048599999997,0.0011964113,9.95593663295,0.04123340357836604,-0.005039638215133627,-0.04459316238845512,0.10458,0.48678000000000005,-0.44954,21.5,0,135,73,67,242,30.738203125,89742,26.52888672933691,1000.9511270630868,0
2024-03-17T10:05:07,-0.25782663515,0.007178467799999999,10.0749795573,0.04092797095926703,-0.00473420559603462,-0.040622538340168025,0.09730000000000001,0.49546,-0.45108000000000004,20.5,0,135,73,67,242,30.738203125,89742,26.52888672933691,1000.9511270630868,0
2024-03-17T10:05:07,-0.25184457865,-0.0035892338999999997,10.083354436399997,0.04230241774521256,-0.0012217304763960308,-0.04016438941151951,0.09730000000000001,0.49546,-0.45108000000000004,21.5,0,135,73,67,242,30.738203125,89742,26.52888672933691,1000.9511270630868,0
2024-03-17T10:05:07,-0.24885355039999998,0.028713871199999998,10.0462656861,0.039400807863771994,-0.0007635815477475193,-0.0433714319120591,0.11074,0.49938000000000005,-0.4596200000000001,20.5,0,135,73,67,242,30.8337109375,90804,26.442825224995136,1000.9639397694658,0
2024-03-17T10:05:08,-0.2703889538,0.0011964113,10.0654082669,0.04214970143566306,-0.0025961772623415654,-0.04550946024575215,0.10094000000000002,0.49518000000000006,-0.46382000000000007,21.5,0,144,78,71,258,30.8337109375,90804,26.442825224995136,1000.9639397694658,0
2024-03-17T10:05:08,-0.26500510294999996,-0.14237294469999998,10.10668445675,0.04291328298341058,-0.0036651914291880926,-0.04657847441259867,0.10094000000000002,0.49518000000000006,-0.46382000000000007,21.5,0,144,78,71,258,30.8337109375,90804,26.442825224995136,1000.9639397694658,0
2024-03-17T10:05:08,-0.25184457865,0.0047856452,10.09113110985,0.043982297150257116,-0.0044287729769356115,-0.04505131131710364,0.09982,0.50022,-0.46130000000000004,21.5,0,144,78,71,258,30.8337109375,90804,26.442825224995136,1000.9639397694658,0
2024-03-17T10:05:08,-0.24107687694999996,-0.008973084749999999,10.078568791199999,0.04489859500755413,-0.0019853120241435504,-0.04550946024575215,0.10038000000000001,0.49602,-0.45920000000000005,21.5,0,144,78,71,258,30.8337109375,90804,26.442825224995136,1000.9639397694658,0
2024-03-17T10:05:08,-0.23030917524999997,-0.025722842949999998,10.121639597999998,0.04001167310197001,-0.00473420559603462,-0.04245513405476207,0.10038000000000001,0.49602,-0.45920000000000005,21.5,0,144,78,71,258,30.8337109375,90804,26.442825224995136,1000.9639397694658,0
2024-03-17T10:05:08,-0.2560320182,0.1483550012,10.106086251099997,0.041996985126113565,-0.0013744467859455349,-0.04535674393620265,0.10514000000000001,0.48818000000000006,-0.45514000000000004,21.5,0,144,78,71,258,30.8337109375,90804,26.442825224995136,1000.9639397694658,0
2024-03-17T10:05:08,-0.25902304644999996,-0.0083748791,10.02532848835,0.038789942625573975,-0.0003054326190990077,-0.0433714319120591,0.10682000000000001,0.48818000000000006,-0.4501,21.5,0,144,78,71,258,30.9157421875,92092,26.36122461530757,1000.9602846283087,0
2024-03-17T10:05:08,-0.24825534474999997,0.007178467799999999,10.0666046782,0.04306599929296009,-0.003054326190990077,-0.047952921198544204,0.10402000000000002,0.49658,-0.46452000000000004,21.5,0,144,78,71,258,30.9157421875,92092,26.36122461530757,1000.9602846283087,0
2024-03-17T10:05:08,-0.27218357075,0.01256231865,10.0594262104,0.04230241774521256,-0.0024434609527920616,-0.04581489286485116,0.10318000000000001,0.49574000000000007,-0.45878,20.5,0,144,78,71,258,30.9157421875,92092,26.36122461530757,1000.9602846283087,0
2024-03-17T10:05:08,-0.23569302609999998,-0.01734796385,10.0773723799,0.041844268816564056,-0.0027488935718910697,-0.04382958084070761,0.10318000000000001,0.49574000000000007,-0.45878,21.5,0,144,78,71,258,30.9157421875,92092,26.36122461530757,1000.9602846283087,0
2024-03-17T10:05:08,-0.24526431649999997,0.01615155255,10.097711372000001,0.04596760917440065,0.00015271630954950385,-0.043982297150257116,0.10262,0.49238000000000004,-0.45570000000000005,21.5,0,144,78,71,258,30.9157421875,92092,26.36122461530757,1000.9602846283087,0
2024-03-17T10:05:08,-0.23629123174999997,0.0011964113,10.089934698549998,0.04153883619746505,-0.0022907446432425577,-0.04581489286485116,0.10066000000000001,0.49518000000000006,-0.45892,20.5,0,144,78,71,258,30.9157421875,92092,26.36122461530757,1000.9602846283087,0
2024-03-17T10:05:08,-0.27517459899999996,-0.024526431649999996,10.06720288385,0.04459316238845512,0.0013744467859455349,-0.04535674393620265,0.10066000000000001,0.49518000000000006,-0.45892,21.5,0,144,78,71,258,30.9157421875,92092,26.36122461530757,1000.9602846283087,0
2024-03-17T10:05:08,-0.24705893344999996,0.0011964113,10.0666046782,0.043982297150257116,0.0018325957145940463,-0.041080687268816536,0.10598,0.4949,-0.45178,20.5,0,144,78,71,258,30.98859375,93109,26.273417558610653,1000.9614936913075,0
2024-03-17T10:05:08,-0.24705893344999996,-0.005982056499999999,10.05643518215,0.04780020488899471,-0.002901609881440573,-0.04459316238845512,0.10990000000000001,0.4898600000000001,-0.45640000000000003,20.5,0,144,78,71,258,30.98859375,93109,26.273417558610653,1000.9614936913075,0
2024-03-17T10:05:08,-0.21236300575,-0.0035892338999999997,10.094720343749998,0.038331793696925465,-0.0018325957145940463,-0.04428772976935611,0.09926,0.49266000000000004,-0.45220000000000005,21.5,0,144,78,71,258,30.98859375,93109,26.273417558610653,1000.9614936913075,0
2024-03-17T10:05:08,-0.2548356069,-0.0017946169499999999,10.070792117749999,0.04291328298341058,-0.0022907446432425577,-0.04001167310197001,0.10738,0.49546,-0.44450000000000006,21.5,0,144,78,71,258,30.98859375,93109,26.273417558610653,1000.9614936913075,0
2024-03-17T10:05:08,-0.2787638329,0.010169496049999999,10.1024970172,0.04230241774521256,-0.0007635815477475193,-0.048258353817643214,0.10738,0.49546,-0.44450000000000006,20.5,0,144,78,71,258,30.98859375,93109,26.273417558610653,1000.9614936913075,0
2024-03-17T10:05:08,-0.24047867129999997,-0.0083748791,10.1024970172,0.0433714319120591,-0.002138028333693054,-0.0435241482216086,0.10150000000000002,0.4979800000000001,-0.4466,20.5,0,144,78,71,258,30.98859375,93109,26.273417558610653,1000.9614936913075,0
2024-03-17T10:05:08,-0.24227328824999997,0.00658026215,10.08036340815,0.0433714319120591,-0.0003054326190990077,-0.04657847441259867,0.10206000000000001,0.49266000000000004,-0.46578,20.5,0,144,78,71,258,30.98859375,93109,26.273417558610653,1000.9614936913075,0
2024-03-17T10:05:08,-0.21834506225,0.0023928226,10.097711372000001,0.04428772976935611,0.00015271630954950385,-0.0435241482216086,0.10206000000000001,0.49266000000000004,-0.46578,21.5,0,144,78,71,258,31.0524609375,94253,26.173932445126123,1000.9660975816705,0
2024-03-17T10:05:08,-0.23688943739999999,0.0083748791,10.097711372000001,0.04535674393620265,-0.0027488935718910697,-0.043982297150257116,0.10514000000000001,0.49322000000000005,-0.45598,21.5,0,144,78,71,258,31.0524609375,94253,26.173932445126123,1000.9660975816705,0
2024-03-17T10:05:08,-0.24586252214999998,0.14775679555,10.067801089499998,0.041996985126113565,-0.0016798794050445422,-0.048411070127192715,0.10514000000000001,0.49322000000000005,-0.45598,21.5,0,144,78,71,258,31.0524609375,94253,26.173932445126123,1000.9660975816705,0
2024-03-17T10:05:08,-0.25064816735,0.015553346899999999,10.085149053349998,0.04627304179349966,0.0,-0.04642575810304917,0.10878000000000002,0.48678000000000005,-0.4543000000000001,21.5,0,144,78,71,258,31.0524609375,94253,26.173932445126123,1000.9660975816705,0
2024-03-17T10:05:08,-0.25782663515,-0.017946169499999998,10.09113110985,0.039858956792420505,-0.00045814892864851157,-0.038789942625573975,0.10542000000000001,0.49994000000000005,-0.44856000000000007,20.5,0,144,78,71,258,31.0524609375,94253,26.173932445126123,1000.9660975816705,0
2024-03-17T10:05:08,-0.23270199784999998,0.010169496049999999,10.139585767500002,0.04214970143566306,-0.0013744467859455349,-0.043982297150257116,0.10542000000000001,0.49994000000000005,-0.44856000000000007,21.5,0,144,78,71,258,31.0524609375,94253,26.173932445126123,1000.9660975816705,0
2024-03-17T10:05:08,-0.24227328824999997,0.005383850849999999,10.025926693999999,0.04321871560250959,-0.0015271630954950385,-0.043676864531158106,0.10598,0.49602,-0.45248,21.5,0,144,78,71,258,31.0524609375,94253,26.173932445126123,1000.9660975816705,0
2024-03-17T10:05:08,-0.23688943739999999,0.0017946169499999999,10.0953185494,0.03924809155422249,-0.003054326190990077,-0.04612032548395016,0.10038000000000001,0.48790000000000006,-0.45570000000000005,21.5,0,144,78,71,258,31.110078125,93907,26.101489721937412,1000.9659568349292,0
2024-03-17T10:05:08,-0.25423740125,-0.01974078645,10.09591675505,0.04444044607890562,-0.0018325957145940463,-0.04489859500755413,0.10598,0.49462000000000006,-0.45150000000000007,20.5,0,147,80,73,263,31.110078125,93907,26.101489721937412,1000.9659568349292,0
2024-03-17T10:05:08,-0.24167508259999998,-0.0083748791,10.100702400249999,0.04077525464971753,-0.0025961772623415654,-0.04535674393620265,0.10458,0.4909800000000001,-0.4631200000000001,21.5,0,147,80,73,263,31.110078125,93907,26.101489721937412,1000.9659568349292,0
2024-03-17T10:05:08,-0.2763710103,-0.01256231865,10.131809094049999,0.04016438941151951,-0.0033597588100890844,-0.04046982203061852,0.10458,0.4909800000000001,-0.4631200000000001,20.5,0,147,80,73,263,31.110078125,93907,26.101489721937412,1000.9659568349292,0
2024-03-17T10:05:08,-0.24705893344999996,-0.0263210486,10.030114133549999,0.04276056667386108,-0.0015271630954950385,-0.04245513405476207,0.10178000000000001,0.4904200000000001,-0.47082000000000007,21.5,0,147,80,73,263,31.110078125,93907,26.101489721937412,1000.9659568349292,0
2024-03-17T10:05:08,-0.25304098994999996,0.0017946169499999999,10.103693428499998,0.04459316238845512,-0.006261368691529657,-0.04535674393620265,0.10654000000000001,0.49910000000000004,-0.4536,21.5,0,147,80,73,263,31.110078125,93907,26.101489721937412,1000.9659568349292,0
2024-03-17T10:05:08,-0.24287149389999999,0.00059820565,10.083354436399997,0.040317105721069016,-0.003970624048287101,-0.04581489286485116,0.10654000000000001,0.49910000000000004,-0.4536,20.5,0,147,80,73,263,31.110078125,93907,26.101489721937412,1000.9659568349292,0
2024-03-17T10:05:08,-0.2644068973,0.005383850849999999,10.109675485,0.03756821214917795,-0.0007635815477475193,-0.04673119072214818,0.09758000000000001,0.49434000000000006,-0.46046000000000004,20.5,0,147,80,73,263,31.16125,95124,26.006582347108562,1000.9697409462952,0
2024-03-17T10:05:08,-0.24646072779999997,0.00658026215,10.088738287249999,0.039095375244672985,0.0012217304763960308,-0.041996985126113565,0.09814000000000002,0.49518000000000006,-0.45640000000000003,20.5,0,147,80,73,263,31.16125,95124,26.006582347108562,1000.9697409462952,0
2024-03-17T10:05:08,-0.2500499617,0.0017946169499999999,10.094720343749998,0.04428772976935611,-0.001069014166846527,-0.04657847441259867,0.10822000000000001,0.49826000000000004,-0.46340000000000003,20.5,0,147,80,73,263,31.16125,95124,26.006582347108562,1000.9697409462952,0
2024-03-17T10:05:08,-0.2644068973,-0.011365907350000001,10.0929257268,0.041080687268816536,-0.004581489286485115,-0.04459316238845512,0.10010000000000001,0.49406000000000005,-0.4526200000000001,21.5,0,147,80,73,263,31.16125,95124,26.006582347108562,1000.9697409462952,0
2024-03-17T10:05:09,-0.24047867129999997,0.01615155255,10.06839929515,0.0435241482216086,-0.00045814892864851157,-0.043676864531158106,0.10010000000000001,0.49406000000000005,-0.4526200000000001,21.5,0,147,80,73,263,31.16125,95124,26.006582347108562,1000.9697409462952,0
2024-03-17T10:05:09,-0.23629123174999997,-0.007178467799999999,10.09591675505,0.04382958084070761,-0.0012217304763960308,-0.048411070127192715,0.09702000000000001,0.49854000000000004,-0.46648,21.5,0,147,80,73,263,31.16125,95124,26.006582347108562,1000.9697409462952,0
2024-03-17T10:05:09,-0.24885355039999998,0.007178467799999999,10.0773723799,0.04535674393620265,-0.003207042500539581,-0.04948008429403925,0.09982,0.4979800000000001,-0.45472,20.5,0,147,80,73,263,31.16125,95124,26.006582347108562,1000.9697409462952,0
2024-03-17T10:05:09,-0.25184457865,-0.0047856452,10.073783145999998,0.04688390703169768,-0.002138028333693054,-0.04581489286485116,0.09982,0.4979800000000001,-0.45472,21.5,0,147,80,73,263,31.206953125,95826,25.92776838064557,1000.9646634306572,0
2024-03-17T10:05:09,-0.24885355039999998,-0.01615155255,10.09950598895,0.04001167310197001,-0.002901609881440573,-0.0476474885794452,0.10542000000000001,0.49434000000000006,-0.45346000000000003,20.5,0,147,80,73,263,31.206953125,95826,25.92776838064557,1000.9646634306572,0
2024-03-17T10:05:09,-0.26321048599999997,-0.0251246373,10.122836009299998,0.039400807863771994,-0.0019853120241435504,-0.04581489286485116,0.10542000000000001,0.49434000000000006,-0.45346000000000003,20.5,0,147,80,73,263,31.206953125,95826,25.92776838064557,1000.9646634306572,0
2024-03-17T10:05:09,-0.24646072779999997,0.0167497582,10.100702400249999,0.04276056667386108,-0.001069014166846527,-0.04321871560250959,0.10122000000000002,0.5038600000000001,-0.46382000000000007,21.5,0,147,80,73,263,31.206953125,95826,25.92776838064557,1000.9646634306572,0
2024-03-17T10:05:09,-0.25064816735,0.0,10.14018397315,0.0433714319120591,0.0012217304763960308,-0.04001167310197001,0.09926,0.49714,-0.4561200000000001,21.5,0,147,80,73,263,31.206953125,95826,25.92776838064557,1000.9646634306572,0
2024-03-17T10:05:09,-0.22911276394999996,-0.0077766734499999995,10.068997500799998,0.04596760917440065,-0.00015271630954950385,-0.04810563750809371,0.09702000000000001,0.49434000000000006,-0.4537400000000001,21.5,0,147,80,73,263,31.206953125,95826,25.92776838064557,1000.9646634306572,0
2024-03-17T10:05:09,-0.25543381255,-0.0047856452,10.097113166349997,0.0019853120241435504,-0.00015271630954950385,-0.03772092845872745,0.09702000000000001,0.49434000000000006,-0.4537400000000001,21.5,0,147,80,73,263,31.206953125,95826,25.92776838064557,1000.9646634306572,0
2024-03-17T10:05:09,-0.25543381255,-0.008973084749999999,10.063015444300001,0.04413501345980661,-0.00045814892864851157,-0.04276056667386108,0.10374000000000001,0.49350000000000005,-0.4494,21.5,0,147,80,73,263,31.2481640625,96705,25.83216750138188,1000.9612894539544,0
2024-03-17T10:05:09,-0.26021945775,-0.007178467799999999,10.080961613799998,0.04382958084070761,-0.00045814892864851157,-0.04123340357836604,0.10122000000000002,0.49406000000000005,-0.46340000000000003,21.5,0,147,80,73,263,31.2481640625,96705,25.83216750138188,1000.9612894539544,0
2024-03-17T10:05:09,-0.28175486115,-0.00059820565,10.054042359550001,0.04306599929296009,-0.0025961772623415654,-0.0435241482216086,0.10570000000000002,0.49182000000000003,-0.46326000000000006,20.5,0,147,80,73,263,31.2481640625,96705,25.83216750138188,1000.9612894539544,0
2024-03-17T10:05:09,-0.25782663515,0.007178467799999999,10.085747258999998,0.040622538340168025,-0.0022907446432425577,-0.04382958084070761,0.10570000000000002,0.49182000000000003,-0.45990000000000003,20.5,0,147,80,73,263,31.2481640625,96705,25.83216750138188,1000.9612894539544,0
2024-03-17T10:05:09,-0.2679961312,-0.014955141249999998,10.089934698549998,0.041691552507014555,-0.0019853120241435504,-0.04535674393620265,0.10738,0.49518000000000006,-0.45990000000000003,21.5,0,147,80,73,263,31.2481640625,96705,25.83216750138188,1000.9612894539544,0
2024-03-17T10:05:09,-0.21894326790000002,0.0047856452,10.125228831899998,0.040317105721069016,-0.0027488935718910697,-0.041691552507014555,0.10878000000000002,0.49714,-0.46830000000000005,21.5,0,147,80,73,263,31.2481640625,96705,25.83216750138188,1000.9612894539544,0
2024-03-17T10:05:09,-0.24586252214999998,0.020338992099999998,10.09352393245,0.04245513405476207,-0.0025961772623415654,-0.038637226316024474,0.10794000000000001,0.50246,-0.45192,21.5,0,147,80,73,257,31.2481640625,96705,25.83216750138188,1000.9612894539544,0
2024-03-17T10:05:09,-0.2500499617,-0.0083748791,10.11625574715,0.04306599929296009,-0.00015271630954950385,-0.04535674393620265,0.10794000000000001,0.50246,-0.45192,20.5,0,143,78,71,257,31.2856640625,97150,25.752785321091245,1000.9626828597706,0
2024-03-17T10:05:09,-0.24287149389999999,-0.015553346899999999,10.033105161799998,0.04550946024575215,-0.0044287729769356115,-0.04856378643674222,0.10178000000000001,0.49574000000000007,-0.45066,21.5,0,143,78,71,257,31.2856640625,97150,25.752785321091245,1000.9626828597706,0
2024-03-17T10:05:09,-0.25663022385,-0.0083748791,10.064211855599998,0.0435241482216086,-0.00045814892864851157,-0.04703662334124718,0.10682000000000001,0.49882000000000004,-0.45654,21.5,0,143,78,71,257,31.2856640625,97150,25.752785321091245,1000.9626828597706,0
2024-03-17T10:05:09,-0.24526431649999997,0.005982056499999999,10.079765202499999,0.038331793696925465,-0.0024434609527920616,-0.04489859500755413,0.10486000000000001,0.4979800000000001,-0.4537400000000001,21.5,0,143,78,71,257,31.2856640625,97150,25.752785321091245,1000.9626828597706,0
2024-03-17T10:05:09,-0.25124637299999997,0.02691925425,10.12463062625,0.041691552507014555,-0.0015271630954950385,-0.04214970143566306,0.10486000000000001,0.4904200000000001,-0.45584,21.5,0,143,78,71,257,31.2856640625,97150,25.752785321091245,1000.9626828597706,0
2024-03-17T10:05:09,-0.22013967919999997,0.017946169499999998,10.112666513249998,0.04382958084070761,0.0027488935718910697,-0.04260785036431157,0.10122000000000002,0.4904200000000001,-0.45584,20.5,0,143,78,71,257,31.2856640625,97150,25.752785321091245,1000.9626828597706,0
2024-03-17T10:05:09,-0.24586252214999998,0.010767701699999998,10.07438135165,0.04444044607890562,-0.0018325957145940463,-0.04428772976935611,0.10430000000000002,0.48902000000000007,-0.44408000000000003,20.5,0,143,78,71,257,31.2856640625,97150,25.752785321091245,1000.9626828597706,0
2024-03-17T10:05:09,-0.25722842949999997,0.01615155255,10.118050364099998,0.0433714319120591,-0.002138028333693054,-0.04382958084070761,0.10010000000000001,0.48734000000000005,-0.44142000000000003,21.5,0,143,78,71,257,31.3216015625,99032,25.656867515899084,1000.968729129808,0
2024-03-17T10:05:09,-0.23030917524999997,0.020338992099999998,10.1431750014,0.04276056667386108,-0.0027488935718910697,-0.04459316238845512,0.09814000000000002,0.48482000000000003,-0.45948,21.5,0,143,78,71,257,31.3216015625,99032,25.656867515899084,1000.968729129808,0
2024-03-17T10:05:09,-0.25184457865,0.00059820565,10.09113110985,0.04230241774521256,-0.0003054326190990077,-0.043982297150257116,0.09814000000000002,0.48482000000000003,-0.45948,21.5,0,143,78,71,257,31.3216015625,99032,25.656867515899084,1000.968729129808,0
2024-03-17T10:05:09,-0.21894326790000002,0.0,10.073783145999998,0.04245513405476207,0.0,-0.0474947722698957,0.10262,0.48958,-0.45892,20.5,0,143,78,71,257,31.3216015625,99032,25.656867515899084,1000.968729129808,0
2024-03-17T10:05:09,-0.2237289131,-0.0083748791,10.087541875949999,0.04046982203061852,0.00015271630954950385,-0.04612032548395016,0.10150000000000002,0.49210000000000004,-0.46340000000000003,20.5,0,143,78,71,257,31.3216015625,99032,25.656867515899084,1000.968729129808,0
2024-03-17T10:05:09,-0.26919254249999996,-0.023330020349999998,10.133603711,0.04428772976935611,-0.0018325957145940463,-0.04459316238845512,0.10850000000000001,0.49322000000000005,-0.45738000000000006,20.5,0,143,78,71,257,31.3216015625,99032,25.656867515899084,1000.968729129808,0
2024-03-17T10:05:09,-0.25423740125,-0.010169496049999999,10.078568791199999,0.047952921198544204,-0.003970624048287101,-0.04444044607890562,0.10850000000000001,0.49322000000000005,-0.45738000000000006,21.5,0,143,78,71,257,31.3216015625,99032,25.656867515899084,1000.968729129808,0
2024-03-17T10:05:09,-0.24346969954999997,-0.008973084749999999,10.1168539528,0.04046982203061852,-0.0022907446432425577,-0.04382958084070761,0.1029,0.49518000000000006,-0.45948,21.5,0,143,78,71,257,31.353828125,99265,25.57167403410401,1000.9705626014419,0
2024-03-17T10:05:09,-0.24586252214999998,0.0023928226,10.082756230749998,0.04001167310197001,-0.0012217304763960308,-0.04673119072214818,0.10850000000000001,0.49126000000000003,-0.4614400000000001,20.5,0,143,78,71,257,31.353828125,99265,25.57167403410401,1000.9705626014419,0
2024-03-17T10:05:09,-0.24346969954999997,0.00059820565,10.096514960699999,0.041080687268816536,0.0016798794050445422,-0.04276056667386108,0.0987,0.48846000000000006,-0.46466,21.5,0,143,78,71,257,31.353828125,99265,25.57167403410401,1000.9705626014419,0
2024-03-17T10:05:09,-0.27218357075,0.0047856452,10.06839929515,0.04459316238845512,-0.00045814892864851157,-0.04550946024575215,0.0987,0.48846000000000006,-0.46466,21.5,0,143,78,71,257,31.353828125,99265,25.57167403410401,1000.9705626014419,0
2024-03-17T10:05:09,-0.22612173569999997,0.0083748791,10.09113110985,0.04245513405476207,-0.0015271630954950385,-0.04382958084070761,0.10178000000000001,0.49574000000000007,-0.45878,20.5,0,143,78,71,257,31.353828125,99265,25.57167403410401,1000.9705626014419,0
2024-03-17T10:05:09,-0.24765713909999998,0.0035892338999999997,10.106086251099997,0.041691552507014555,0.0012217304763960308,-0.04627304179349966,0.10122000000000002,0.49518000000000006,-0.45500000000000007,21.5,0,143,78,71,257,31.353828125,99265,25.57167403410401,1000.9705626014419,0
2024-03-17T10:05:09,-0.22851455829999998,-0.0023928226,10.0941221381,0.04581489286485116,-0.003207042500539581,-0.04612032548395016,0.10234,0.49658,-0.45878,20.5,0,143,78,71,257,31.353828125,99265,25.57167403410401,1000.9705626014419,0
2024-03-17T10:05:09,-0.2596212521,-0.0035892338999999997,10.09950598895,0.04306599929296009,-0.0024434609527920616,-0.04550946024575215,0.10234,0.49658,-0.45878,20.5,0,143,78,71,257,31.384296875,98916,25.491863247720964,1000.9713444274994,0
2024-03-17T10:05:10,-0.25064816735,-0.0017946169499999999,10.100702400249999,0.043676864531158106,-0.0024434609527920616,-0.04489859500755413,0.10514000000000001,0.48902000000000007,-0.46242,20.5,0,143,78,71,257,31.384296875,98916,25.491863247720964,1000.9713444274994,0
2024-03-17T10:05:10,-0.26021945775,0.0083748791,10.091729315499999,0.04321871560250959,0.0015271630954950385,-0.04657847441259867,0.10514000000000001,0.48902000000000007,-0.46242,20.5,0,143,78,71,257,31.384296875,98916,25.491863247720964,1000.9713444274994,0
2024-03-17T10:05:10,-0.25722842949999997,0.015553346899999999,10.04925671435,0.043676864531158106,-0.002138028333693054,-0.04016438941151951,0.10542000000000001,0.49182000000000003,-0.46970000000000006,20.5,0,143,78,71,257,31.384296875,98916,25.491863247720964,1000.9713444274994,0
2024-03-17T10:05:10,-0.23748764304999997,-0.01256231865,10.071390323399998,0.041996985126113565,-0.0019853120241435504,-0.04459316238845512,0.09730000000000001,0.49182000000000003,-0.4548600000000001,20.5,0,143,78,71,257,31.384296875,98916,25.491863247720964,1000.9713444274994,0
2024-03-17T10:05:10,-0.2524427843,0.010767701699999998,10.08395264205,0.04092797095926703,-0.0013744467859455349,-0.0435241482216086,0.09730000000000001,0.49182000000000003,-0.4548600000000001,20.5,0,143,78,71,236,31.384296875,98916,25.491863247720964,1000.9713444274994,0
2024-03-17T10:05:10,-0.23988046564999999,0.005982056499999999,10.08036340815,0.04123340357836604,0.0009162978572970231,-0.04428772976935611,0.10570000000000002,0.49518000000000006,-0.46158000000000005,20.5,0,130,71,66,236,31.384296875,98916,25.491863247720964,1000.9713444274994,0
2024-03-17T10:05:10,-0.25184457865,-0.005982056499999999,10.098907783299998,0.04657847441259867,0.0,-0.043982297150257116,0.09842000000000002,0.50246,-0.47152000000000005,21.5,0,130,71,66,236,31.412421875,99499,25.42285640586644,1000.9737213259912,0
2024-03-17T10:05:10,-0.22911276394999996,0.028115665550000002,10.1120683076,0.04428772976935611,-0.0006108652381980154,-0.04642575810304917,0.09926,0.4898600000000001,-0.45766,21.5,0,130,71,66,236,31.412421875,99499,25.42285640586644,1000.9737213259912,0
2024-03-17T10:05:10,-0.26021945775,0.02691925425,10.082756230749998,0.04153883619746505,-0.004276056667386108,-0.04291328298341058,0.09982,0.48342000000000007,-0.4555600000000001,20.5,0,130,71,66,236,31.412421875,99499,25.42285640586644,1000.9737213259912,0
2024-03-17T10:05:10,-0.25423740125,0.014955141249999998,10.06720288385,0.038331793696925465,-0.0022907446432425577,-0.04092797095926703,0.09982,0.48342000000000007,-0.4555600000000001,20.5,0,130,71,66,236,31.412421875,99499,25.42285640586644,1000.9737213259912,0
2024-03-17T10:05:10,-0.23928225999999997,0.017946169499999998,10.096514960699999,0.04413501345980661,-0.0003054326190990077,-0.04306599929296009,0.10206000000000001,0.48426,-0.4529,21.5,0,130,71,66,236,31.412421875,99499,25.42285640586644,1000.9737213259912,0
2024-03-17T10:05:10,-0.2309073809,0.022133609050000003,10.0941221381,0.04046982203061852,-0.002138028333693054,-0.04291328298341058,0.09982,0.48454,-0.45234,20.5,0,130,71,66,236,31.412421875,99499,25.42285640586644,1000.9737213259912,0
2024-03-17T10:05:10,-0.2309073809,0.011365907350000001,10.079765202499999,0.04474587869800463,-0.0006108652381980154,-0.04703662334124718,0.09982,0.48454,-0.45234,21.5,0,130,71,66,236,31.412421875,99499,25.42285640586644,1000.9737213259912,0
2024-03-17T10:05:10,-0.24287149389999999,0.014955141249999998,10.105488045449999,0.041386119887915546,-0.00015271630954950385,-0.04627304179349966,0.10038000000000001,0.48790000000000006,-0.45220000000000005,20.5,0,130,71,66,236,31.4391796875,101048,25.326415924776306,1000.9756800453574,0
2024-03-17T10:05:10,-0.24765713909999998,0.029312076849999997,10.092327521149999,0.04077525464971753,-0.002138028333693054,-0.04474587869800463,0.09898,0.48650000000000004,-0.46284000000000003,21.5,0,130,71,66,236,31.4391796875,101048,25.326415924776306,1000.9756800453574,0
2024-03-17T10:05:10,-0.23210379219999996,0.0167497582,10.067801089499998,0.041844268816564056,-0.0015271630954950385,-0.039400807863771994,0.10402000000000002,0.49014,-0.44828,21.5,0,130,71,66,236,31.4391796875,101048,25.326415924776306,1000.9756800453574,0
2024-03-17T10:05:10,-0.23509482044999996,0.010767701699999998,10.061819032999999,0.04077525464971753,-0.0015271630954950385,-0.04459316238845512,0.10626000000000001,0.48790000000000006,-0.45402000000000003,20.5,0,130,71,66,236,31.4391796875,101048,25.326415924776306,1000.9756800453574,0
2024-03-17T10:05:10,-0.24885355039999998,0.0011964113,10.0773723799,0.04001167310197001,0.0006108652381980154,-0.048258353817643214,0.10626000000000001,0.48790000000000006,-0.45696000000000003,21.5,0,130,71,66,236,31.4391796875,101048,25.326415924776306,1000.9756800453574,0
2024-03-17T10:05:10,-0.22492532440000002,0.017946169499999998,10.085149053349998,0.041844268816564056,-0.0027488935718910697,-0.04688390703169768,0.0987,0.49210000000000004,-0.45696000000000003,21.5,0,130,71,66,236,31.4391796875,101048,25.326415924776306,1000.9756800453574,0
2024-03-17T10:05:10,-0.24646072779999997,0.0,10.132407299699999,0.04153883619746505,-0.005039638215133627,-0.04673119072214818,0.10570000000000002,0.48846000000000006,-0.4625600000000001,21.5,0,130,71,66,236,31.4391796875,101048,25.326415924776306,1000.9756800453574,0
2024-03-17T10:05:10,-0.25663022385,-0.0029910282499999996,10.0929257268,0.04077525464971753,-0.0013744467859455349,-0.04780020488899471,0.09954,0.50134,-0.45332000000000006,20.5,0,130,71,66,236,31.4649609375,101718,25.26276414456266,1000.9742585330907,0
2024-03-17T10:05:10,-0.25304098994999996,-0.0023928226,10.0941221381,0.03726277953007894,-0.0019853120241435504,-0.04474587869800463,0.10850000000000001,0.49574000000000007,-0.44478,21.5,0,130,71,66,236,31.4649609375,101718,25.26276414456266,1000.9742585330907,0
2024-03-17T10:05:10,-0.26620151425,-0.0011964113,10.0654082669,0.038179077387375956,-0.0012217304763960308,-0.04153883619746505,0.10850000000000001,0.49574000000000007,-0.44478,21.5,0,130,71,66,236,31.4649609375,101718,25.26276414456266,1000.9742585330907,0
2024-03-17T10:05:10,-0.23868405434999998,0.028713871199999998,10.033105161799998,0.04489859500755413,-0.004276056667386108,-0.04703662334124718,0.09646,0.4907,-0.46872,20.5,0,130,71,66,236,31.4649609375,101718,25.26276414456266,1000.9742585330907,0
2024-03-17T10:05:10,-0.24346969954999997,0.14775679555,10.016953609249999,0.043982297150257116,-0.003970624048287101,-0.04612032548395016,0.10038000000000001,0.49126000000000003,-0.45528,21.5,0,130,71,66,236,31.4649609375,101718,25.26276414456266,1000.9742585330907,0
2024-03-17T10:05:10,-0.26620151425,-0.010767701699999998,10.04925671435,0.04413501345980661,0.0,-0.049021935365390734,0.10038000000000001,0.49126000000000003,-0.45528,21.5,0,130,71,66,236,31.4649609375,101718,25.26276414456266,1000.9742585330907,0
2024-03-17T10:05:10,-0.24945175605,-0.01734796385,10.112666513249998,0.040317105721069016,-0.0022907446432425577,-0.04459316238845512,0.10402000000000002,0.49182000000000003,-0.4641,21.5,0,130,71,66,236,31.4649609375,101718,25.26276414456266,1000.9742585330907,0
2024-03-17T10:05:10,-0.23748764304999997,-0.00059820565,10.106086251099997,0.04459316238845512,-0.0025961772623415654,-0.04642575810304917,0.09842000000000002,0.49210000000000004,-0.44870000000000004,20.5,0,130,71,66,236,31.4895703125,101657,25.171718420012127,1000.9835191428407,0
2024-03-17T10:05:10,-0.25304098994999996,0.0035892338999999997,10.07557776295,0.04627304179349966,-0.0024434609527920616,-0.04535674393620265,0.10010000000000001,0.49294000000000004,-0.45892,21.5,0,130,71,66,236,31.4895703125,101657,25.171718420012127,1000.9835191428407,0
2024-03-17T10:05:10,-0.23509482044999996,0.00658026215,10.107880868049998,0.04291328298341058,-0.038942658935123484,-0.04642575810304917,0.10458,0.48734000000000005,-0.44450000000000006,21.5,0,130,71,66,236,31.4895703125,101657,25.171718420012127,1000.9835191428407,0
2024-03-17T10:05:10,-0.25543381255,-0.00658026215,10.02532848835,0.04276056667386108,0.0,-0.04581489286485116,0.10458,0.48734000000000005,-0.44450000000000006,20.5,0,130,71,66,236,31.4895703125,101657,25.171718420012127,1000.9835191428407,0
2024-03-17T10:05:10,-0.23030917524999997,-0.008973084749999999,10.0941221381,0.04276056667386108,-0.005192354524683131,-0.04077525464971753,0.10346000000000001,0.48482000000000003,-0.44856000000000007,20.5,0,123,65,60,221,31.4895703125,101657,25.171718420012127,1000.9835191428407,0
2024-03-17T10:05:10,-0.23629123174999997,0.011365907350000001,10.085747258999998,0.04245513405476207,0.00015271630954950385,-0.04260785036431157,0.09730000000000001,0.49658,-0.46186000000000005,21.5,0,123,65,60,221,31.4895703125,101657,25.171718420012127,1000.9835191428407,0
2024-03-17T10:05:10,-0.25902304644999996,-0.00658026215,10.07318494035,0.043676864531158106,-0.0033597588100890844,-0.04703662334124718,0.09730000000000001,0.49658,-0.46186000000000005,21.5,0,123,65,60,221,31.4895703125,101657,25.171718420012127,1000.9835191428407,0
2024-03-17T10:05:10,-0.21834506225,-0.005383850849999999,10.0725867347,0.038789942625573975,0.00015271630954950385,-0.04566217655530165,0.09758000000000001,0.48734000000000005,-0.4520600000000001,20.5,0,123,65,60,221,31.5126171875,102211,25.102453097693676,1000.9848578481308,0
2024-03-17T10:05:10,-0.2584248408,-0.14117653339999997,10.11864856975,0.039858956792420505,-0.00045814892864851157,-0.04520402762665314,0.10262,0.4909800000000001,-0.44996,20.5,0,123,65,60,221,31.5126171875,102211,25.102453097693676,1000.9848578481308,0
2024-03-17T10:05:10,-0.26500510294999996,-0.015553346899999999,10.0654082669,0.041996985126113565,-0.0009162978572970231,-0.04948008429403925,0.09814000000000002,0.49126000000000003,-0.45822,20.5,0,123,65,60,221,31.5126171875,102211,25.102453097693676,1000.9848578481308,0
2024-03-17T10:05:10,-0.25543381255,0.005383850849999999,10.1072826624,0.0435241482216086,0.0015271630954950385,-0.04474587869800463,0.10682000000000001,0.48818000000000006,-0.45598,20.5,0,123,65,60,221,31.5126171875,102211,25.102453097693676,1000.9848578481308,0
2024-03-17T10:05:10,-0.24646072779999997,0.01734796385,10.088140081599997,0.04444044607890562,-0.0022907446432425577,-0.04673119072214818,0.10682000000000001,0.48818000000000006,-0.45598,21.5,0,123,65,60,221,31.5126171875,102211,25.102453097693676,1000.9848578481308,0
2024-03-17T10:05:11,-0.23330020349999997,-0.01734796385,10.097711372000001,0.040317105721069016,-0.0003054326190990077,-0.04520402762665314,0.0987,0.49406000000000005,-0.45528,21.5,0,123,65,60,221,31.5126171875,102211,25.102453097693676,1000.9848578481308,0
2024-03-17T10:05:11,-0.25663022385,-0.00658026215,10.06720288385,0.038179077387375956,-0.0013744467859455349,-0.04276056667386108,0.10010000000000001,0.49126000000000003,-0.45234,21.5,0,123,65,60,221,31.5126171875,102211,25.102453097693676,1000.9848578481308,0
2024-03-17T10:05:11,-0.2548356069,0.0035892338999999997,10.10668445675,0.03726277953007894,-0.0068722339297276735,-0.04505131131710364,0.10122000000000002,0.4909800000000001,-0.4572400000000001,20.5,0,123,65,60,221,31.535078125,102521,25.011334231837818,1000.9942334847387,0
2024-03-17T10:05:11,-0.2560320182,0.0011964113,10.1288180658,0.04230241774521256,-0.0018325957145940463,-0.04673119072214818,0.09534000000000001,0.49322000000000005,-0.4571,21.5,0,123,65,60,221,31.535078125,102521,25.011334231837818,1000.9942334847387,0
2024-03-17T10:05:11,-0.26500510294999996,0.0167497582,10.106086251099997,0.04276056667386108,-0.003054326190990077,-0.04642575810304917,0.0987,0.49938000000000005,-0.44562000000000007,21.5,0,123,65,60,221,31.535078125,102521,25.011334231837818,1000.9942334847387,0
2024-03-17T10:05:11,-0.24227328824999997,0.014356935599999999,10.082756230749998,0.041386119887915546,-0.006566801310628666,-0.04321871560250959,0.0987,0.49938000000000005,-0.44562000000000007,21.5,0,123,65,60,221,31.535078125,102521,25.011334231837818,1000.9942334847387,0
2024-03-17T10:05:11,-0.26620151425,-0.0023928226,10.077970585549998,0.04260785036431157,-0.0036651914291880926,-0.04566217655530165,0.10654000000000001,0.48734000000000005,-0.45976000000000006,21.5,0,123,65,60,221,31.535078125,102521,25.011334231837818,1000.9942334847387,0
2024-03-17T10:05:11,-0.27517459899999996,0.010169496049999999,10.061819032999999,0.03802636107782646,-0.0012217304763960308,-0.0433714319120591,0.10038000000000001,0.4907,-0.44926000000000005,21.5,0,123,65,60,221,31.535078125,102521,25.011334231837818,1000.9942334847387,0
2024-03-17T10:05:11,-0.24526431649999997,0.00418743955,10.0558369765,0.04321871560250959,-0.0013744467859455349,-0.04566217655530165,0.10038000000000001,0.4907,-0.44926000000000005,20.5,0,123,65,60,221,31.535078125,102521,25.011334231837818,1000.9942334847387,0
2024-03-17T10:05:11,-0.24047867129999997,-0.1483550012,10.006185907549998,0.043676864531158106,-0.0003054326190990077,-0.04596760917440065,0.10374000000000001,0.48874000000000006,-0.4513600000000001,20.5,0,123,65,60,221,31.5563671875,103274,24.94200320868957,1000.9981167711231,0
2024-03-17T10:05:11,-0.22671994134999998,-0.0023928226,10.07438135165,0.0433714319120591,-0.002901609881440573,-0.04718933965079669,0.10178000000000001,0.48734000000000005,-0.45234,20.5,0,123,65,60,221,31.5563671875,103274,24.94200320868957,1000.9981167711231,0
2024-03-17T10:05:11,-0.24346969954999997,0.0,10.079765202499999,0.04260785036431157,-0.0027488935718910697,-0.04642575810304917,0.10178000000000001,0.4907,-0.44842000000000004,21.5,0,123,65,60,221,31.5563671875,103274,24.94200320868957,1000.9981167711231,0
2024-03-17T10:05:11,-0.26021945775,0.00658026215,10.088738287249999,0.041996985126113565,-0.003207042500539581,-0.04550946024575215,0.09198,0.49546,-0.44366,20.5,0,123,65,60,221,31.5563671875,103274,24.94200320868957,1000.9981167711231,0
2024-03-17T10:05:11,-0.2608176634,0.020338992099999998,10.0905329042,0.04214970143566306,-0.0036651914291880926,-0.04245513405476207,0.09198,0.49546,-0.44366,20.5,0,123,65,60,221,31.5563671875,103274,24.94200320868957,1000.9981167711231,0
2024-03-17T10:05:11,-0.23270199784999998,0.1519442351,10.068997500799998,0.041691552507014555,-0.003054326190990077,-0.05009094953223726,0.09422000000000001,0.48902000000000007,-0.4548600000000001,20.5,0,123,65,60,221,31.5563671875,103274,24.94200320868957,1000.9981167711231,0
2024-03-17T10:05:11,-0.2524427843,-0.0047856452,10.24187893365,0.039400807863771994,-0.0033597588100890844,-0.04123340357836604,0.09506,0.48230000000000006,-0.44814000000000004,21.5,0,123,65,60,221,31.5563671875,103274,24.94200320868957,1000.9981167711231,0
2024-03-17T10:05:11,-0.2763710103,-0.0095712904,10.0893364929,0.04382958084070761,-0.008857545953871223,-0.04566217655530165,0.09506,0.48230000000000006,-0.44814000000000004,21.5,0,123,65,60,221,31.575703125,103148,24.85619291189572,1000.99344614838,0
2024-03-17T10:05:11,-0.23330020349999997,0.005982056499999999,10.007382318849999,0.04948008429403925,0.03741549583962844,-0.04459316238845512,0.09758000000000001,0.48874000000000006,-0.4625600000000001,20.5,0,123,65,60,221,31.575703125,103148,24.85619291189572,1000.99344614838,0
2024-03-17T10:05:11,-0.25543381255,-0.008973084749999999,10.231111231949999,0.038789942625573975,-0.007483099167925688,-0.04459316238845512,0.09758000000000001,0.48874000000000006,-0.4625600000000001,20.5,0,123,65,60,221,31.575703125,103148,24.85619291189572,1000.99344614838,0
2024-03-17T10:05:11,-0.25184457865,-0.00418743955,10.0773723799,0.039706240482871004,-0.005039638215133627,-0.04627304179349966,0.10010000000000001,0.48846000000000006,-0.45416,21.5,0,123,65,59,218,31.575703125,103148,24.85619291189572,1000.99344614838,0
2024-03-17T10:05:11,-0.23449661479999998,0.0131605243,10.1072826624,0.04260785036431157,-0.0024434609527920616,-0.04612032548395016,0.09478000000000002,0.49182000000000003,-0.45570000000000005,20.5,0,123,65,59,218,31.575703125,103148,24.85619291189572,1000.99344614838,0
2024-03-17T10:05:11,-0.23988046564999999,-0.0083748791,10.096514960699999,0.041996985126113565,-0.0018325957145940463,-0.04428772976935611,0.09478000000000002,0.49182000000000003,-0.45570000000000005,20.5,0,123,65,59,218,31.575703125,103148,24.85619291189572,1000.99344614838,0
2024-03-17T10:05:11,-0.25423740125,0.020338992099999998,10.052845948249999,0.04306599929296009,-0.0013744467859455349,-0.04688390703169768,0.10262,0.4907,-0.45794000000000007,20.5,0,123,65,59,218,31.575703125,103148,24.85619291189572,1000.99344614838,0
2024-03-17T10:05:11,-0.24885355039999998,0.13698909385,10.07557776295,0.04596760917440065,-0.0019853120241435504,-0.04642575810304917,0.10430000000000002,0.48594000000000004,-0.44996,20.5,0,123,65,59,218,31.5946484375,103591,24.786751550072918,1000.9845465173319,0
2024-03-17T10:05:11,-0.23389840915,0.041874395499999995,10.077970585549998,0.043676864531158106,-0.0022907446432425577,-0.04321871560250959,0.10038000000000001,0.4909800000000001,-0.4502400000000001,21.5,0,123,65,59,218,31.5946484375,103591,24.786751550072918,1000.9845465173319,0
2024-03-17T10:05:11,-0.27218357075,-0.007178467799999999,10.0594262104,0.04291328298341058,-0.0027488935718910697,-0.04123340357836604,0.10038000000000001,0.4909800000000001,-0.4459,21.5,0,123,65,59,218,31.5946484375,103591,24.786751550072918,1000.9845465173319,0
2024-03-17T10:05:11,-0.24765713909999998,-0.014356935599999999,10.079765202499999,0.04444044607890562,-0.0022907446432425577,-0.04581489286485116,0.10234,0.4898600000000001,-0.4459,20.5,0,123,65,59,218,31.5946484375,103591,24.786751550072918,1000.9845465173319,0
2024-03-17T10:05:11,-0.2608176634,0.0029910282499999996,10.08036340815,0.04092797095926703,0.0003054326190990077,-0.041996985126113565,0.10206000000000001,0.49882000000000004,-0.45234,21.5,0,123,65,59,218,31.5946484375,103591,24.786751550072918,1000.9845465173319,0
2024-03-17T10:05:11,-0.23688943739999999,-0.005982056499999999,10.1024970172,0.041691552507014555,-0.00595593607243065,-0.04642575810304917,0.10234,0.49014,-0.44996,21.5,0,123,65,59,218,31.5946484375,103591,24.786751550072918,1000.9845465173319,0
2024-03-17T10:05:11,-0.24346969954999997,-0.01854437515,10.096514960699999,0.041996985126113565,-0.0019853120241435504,-0.04291328298341058,0.10234,0.49014,-0.44996,20.5,0,123,65,59,218,31.5946484375,103591,24.786751550072918,1000.9845465173319,0
2024-03-17T10:05:11,-0.23688943739999999,0.0077766734499999995,10.0725867347,0.043982297150257116,-0.005803219762881146,-0.04703662334124718,0.10822000000000001,0.49266000000000004,-0.44646,21.5,0,123,65,59,218,31.6122265625,104425,24.72268546381212,1000.977028520716,0
2024-03-17T10:05:11,-0.23330020349999997,0.01854437515,10.0594262104,0.04123340357836604,-0.0033597588100890844,-0.0433714319120591,0.10542000000000001,0.49882000000000004,-0.44464000000000004,21.5,0,123,65,59,218,31.6122265625,104425,24.72268546381212,1000.977028520716,0
2024-03-17T10:05:11,-0.23748764304999997,0.0077766734499999995,9.94636534255,0.04077525464971753,-0.0018325957145940463,-0.04444044607890562,0.10150000000000002,0.49434000000000006,-0.46872,21.5,0,123,65,59,218,31.6122265625,104425,24.72268546381212,1000.977028520716,0
2024-03-17T10:05:11,-0.2536391956,-0.005383850849999999,10.087541875949999,0.04321871560250959,-0.0018325957145940463,-0.04245513405476207,0.10682000000000001,0.49658,-0.4403000000000001,20.5,0,123,65,59,218,31.6122265625,104425,24.72268546381212,1000.977028520716,0
2024-03-17T10:05:11,-0.2536391956,-0.0191425808,10.066006472549999,0.041691552507014555,-0.002901609881440573,-0.047952921198544204,0.10682000000000001,0.49658,-0.4403000000000001,21.5,0,123,65,59,218,31.6122265625,104425,24.72268546381212,1000.977028520716,0
2024-03-17T10:05:11,-0.24287149389999999,-0.023330020349999998,10.06839929515,0.039706240482871004,-0.0022907446432425577,-0.04535674393620265,0.10262,0.49378000000000005,-0.46046000000000004,21.5,0,123,65,59,218,31.6122265625,104425,24.72268546381212,1000.977028520716,0
2024-03-17T10:05:11,-0.24047867129999997,0.005982056499999999,10.097711372000001,0.04550946024575215,-0.004276056667386108,-0.050854531079984784,0.10486000000000001,0.49406000000000005,-0.45654,21.5,0,123,65,59,218,31.6122265625,104425,24.72268546381212,1000.977028520716,0
2024-03-17T10:05:11,-0.24885355039999998,0.00658026215,10.076175968599998,0.04382958084070761,0.0007635815477475193,-0.043982297150257116,0.10486000000000001,0.49406000000000005,-0.45654,20.5,0,123,65,59,218,31.62921875,104879,24.658601001199724,1000.9793470494801,0
2024-03-17T10:05:12,-0.24526431649999997,-0.010169496049999999,10.08395264205,0.04276056667386108,-0.0007635815477475193,-0.04581489286485116,0.10682000000000001,0.49378000000000005,-0.4508000000000001,20.5,0,123,65,59,218,31.62921875,104879,24.658601001199724,1000.9793470494801,0
2024-03-17T10:05:12,-0.25304098994999996,0.00658026215,10.09352393245,0.04046982203061852,-0.0035124751196385882,-0.04505131131710364,0.10682000000000001,0.49378000000000005,-0.4508000000000001,21.5,0,123,65,59,218,31.62921875,104879,24.658601001199724,1000.9793470494801,0
2024-03-17T10:05:12,-0.23030917524999997,-0.01734796385,10.07916699685,0.041996985126113565,-0.0012217304763960308,-0.04856378643674222,0.09786000000000002,0.49406000000000005,-0.45276000000000005,20.5,0,123,65,59,218,31.62921875,104879,24.658601001199724,1000.9793470494801,0
2024-03-17T10:05:12,-0.2500499617,0.021535403399999997,10.098907783299998,0.04581489286485116,0.00015271630954950385,-0.04459316238845512,0.10934,0.49462000000000006,-0.46172,20.5,0,123,65,59,218,31.62921875,104879,24.658601001199724,1000.9793470494801,0
2024-03-17T10:05:12,-0.24825534474999997,0.005982056499999999,10.101300605899999,0.03726277953007894,-0.0016798794050445422,-0.038331793696925465,0.10934,0.49462000000000006,-0.46172,21.5,0,123,65,59,218,31.62921875,104879,24.658601001199724,1000.9793470494801,0
2024-03-17T10:05:12,-0.27337998204999997,-0.0077766734499999995,10.00977514145,0.04123340357836604,0.00015271630954950385,-0.043982297150257116,0.10514000000000001,0.49434000000000006,-0.45864000000000005,21.5,0,123,65,59,218,31.62921875,104879,24.658601001199724,1000.9793470494801,0
2024-03-17T10:05:12,-0.24646072779999997,-0.017946169499999998,10.110871896299999,0.04413501345980661,-0.00045814892864851157,-0.043982297150257116,0.10262,0.4949,-0.45878,21.5,0,123,65,59,218,31.646015625,105009,24.58908440415969,1000.9741575783479,0
2024-03-17T10:05:12,-0.2560320182,-0.015553346899999999,10.0929257268,0.041996985126113565,-0.00015271630954950385,-0.04321871560250959,0.10878000000000002,0.48762000000000005,-0.44408000000000003,20.5,0,123,65,59,218,31.646015625,105009,24.58908440415969,1000.9741575783479,0
2024-03-17T10:05:12,-0.2237289131,0.01974078645,10.119844981049999,0.04123340357836604,0.038484510006474966,-0.04489859500755413,0.10794000000000001,0.49602,-0.45528,21.5,0,113,59,54,200,31.646015625,105009,24.58908440415969,1000.9741575783479,0
2024-03-17T10:05:12,-0.2656033086,0.0083748791,10.11864856975,0.04001167310197001,0.0012217304763960308,-0.04444044607890562,0.10794000000000001,0.49602,-0.45528,21.5,0,113,59,54,200,31.646015625,105009,24.58908440415969,1000.9741575783479,0
2024-03-17T10:05:12,-0.24765713909999998,-0.010767701699999998,10.10309522285,0.04520402762665314,-0.0025961772623415654,-0.04077525464971753,0.10178000000000001,0.49546,-0.46186000000000005,21.5,0,113,59,54,200,31.646015625,105009,24.58908440415969,1000.9741575783479,0
2024-03-17T10:05:12,-0.24646072779999997,-0.0131605243,10.097113166349997,0.04428772976935611,-0.002901609881440573,-0.04627304179349966,0.0959,0.49182000000000003,-0.46270000000000006,20.5,0,113,59,54,200,31.646015625,105009,24.58908440415969,1000.9741575783479,0
2024-03-17T10:05:12,-0.23330020349999997,0.00418743955,10.05763159345,0.04230241774521256,0.0006108652381980154,-0.04596760917440065,0.0959,0.49182000000000003,-0.46270000000000006,20.5,0,113,59,54,200,31.646015625,105009,24.58908440415969,1000.9741575783479,0
2024-03-17T10:05:12,-0.20458633229999998,0.020338992099999998,10.12582703755,0.04260785036431157,0.0,-0.04382958084070761,0.10206000000000001,0.50526,-0.4494,21.5,0,113,59,54,200,31.66203125,105140,24.524981002919933,1000.9695007111654,0
2024-03-17T10:05:12,-0.24885355039999998,0.014356935599999999,10.173085283899999,0.041996985126113565,-0.002138028333693054,-0.04382958084070761,0.10374000000000001,0.49462000000000006,-0.45388000000000006,21.5,0,113,59,54,200,31.66203125,105140,24.524981002919933,1000.9695007111654,0
2024-03-17T10:05:12,-0.24646072779999997,0.0,10.107880868049998,0.039706240482871004,-0.0009162978572970231,-0.04673119072214818,0.1029,0.49238000000000004,-0.4543000000000001,20.5,0,113,59,54,200,31.66203125,105140,24.524981002919933,1000.9695007111654,0
2024-03-17T10:05:12,-0.2739781877,0.007178467799999999,10.087541875949999,0.041996985126113565,-0.0022907446432425577,-0.04123340357836604,0.1029,0.4963000000000001,-0.45654,20.5,0,113,59,54,200,31.66203125,105140,24.524981002919933,1000.9695007111654,0
2024-03-17T10:05:12,-0.23210379219999996,-0.011964112999999998,10.0749795573,0.041386119887915546,-0.0018325957145940463,-0.04718933965079669,0.10122000000000002,0.48454,-0.45934,21.5,0,113,59,54,200,31.66203125,105140,24.524981002919933,1000.9695007111654,0
2024-03-17T10:05:12,-0.24885355039999998,-0.010767701699999998,10.07318494035,0.041386119887915546,-0.0022907446432425577,-0.04489859500755413,0.10122000000000002,0.48454,-0.45934,21.5,0,113,59,54,200,31.66203125,105140,24.524981002919933,1000.9695007111654,0
2024-03-17T10:05:12,-0.24646072779999997,0.0011964113,10.118050364099998,0.04077525464971753,-0.0033597588100890844,-0.040317105721069016,0.09898,0.49322000000000005,-0.44898000000000005,21.5,0,113,59,54,200,31.66203125,105140,24.524981002919933,1000.9695007111654,0
2024-03-17T10:05:12,-0.24526431649999997,0.015553346899999999,10.15214808615,0.04291328298341058,-0.003054326190990077,-0.04474587869800463,0.11186000000000001,0.48902000000000007,-0.4491200000000001,20.5,0,113,59,54,200,31.6778515625,105535,24.460889218369775,1000.9663243765433,0
2024-03-17T10:05:12,-0.2620140747,-0.007178467799999999,10.06720288385,0.0433714319120591,0.00015271630954950385,-0.04627304179349966,0.10514000000000001,0.49406000000000005,-0.44800000000000006,21.5,0,113,59,54,200,31.6778515625,105535,24.460889218369775,1000.9663243765433,0
2024-03-17T10:05:12,-0.2237289131,0.0023928226,10.097113166349997,0.04276056667386108,-0.005039638215133627,-0.04718933965079669,0.10990000000000001,0.48958,-0.44506000000000007,21.5,0,113,59,54,200,31.6778515625,105535,24.460889218369775,1000.9663243765433,0
2024-03-17T10:05:12,-0.24526431649999997,-0.01734796385,10.241280727999998,0.04260785036431157,0.00045814892864851157,-0.04505131131710364,0.10990000000000001,0.48958,-0.44506000000000007,21.5,0,113,59,54,200,31.6778515625,105535,24.460889218369775,1000.9663243765433,0
2024-03-17T10:05:12,-0.2500499617,-0.021535403399999997,10.0701939121,0.04627304179349966,0.00015271630954950385,-0.041386119887915546,0.10598,0.4907,-0.45248,21.5,0,113,59,54,200,31.6778515625,105535,24.460889218369775,1000.9663243765433,0
2024-03-17T10:05:12,-0.23688943739999999,0.010767701699999998,10.0594262104,0.038331793696925465,-0.0022907446432425577,-0.04520402762665314,0.10486000000000001,0.49266000000000004,-0.4590600000000001,21.5,0,113,59,54,200,31.6778515625,105535,24.460889218369775,1000.9663243765433,0
2024-03-17T10:05:12,-0.23270199784999998,0.0191425808,10.066006472549999,0.041080687268816536,-0.0016798794050445422,-0.0433714319120591,0.10486000000000001,0.49266000000000004,-0.4590600000000001,20.5,0,113,59,54,200,31.6778515625,105535,24.460889218369775,1000.9663243765433,0
2024-03-17T10:05:12,-0.23449661479999998,0.005383850849999999,10.083354436399997,0.04230241774521256,-0.0015271630954950385,-0.04673119072214818,0.10570000000000002,0.49294000000000004,-0.44800000000000006,20.5,0,113,59,54,200,31.6934765625,105469,24.385937465791297,1000.9628308704049,0
2024-03-17T10:05:12,-0.24825534474999997,-0.0023928226,10.088140081599997,0.04214970143566306,-0.002138028333693054,-0.04230241774521256,0.10626000000000001,0.48454,-0.4466,20.5,0,113,59,54,200,31.6934765625,105469,24.385937465791297,1000.9628308704049,0
2024-03-17T10:05:12,-0.22971096959999998,0.011964112999999998,10.1288180658,0.039553524173321496,-0.0035124751196385882,-0.0474947722698957,0.10514000000000001,0.49378000000000005,-0.46032000000000006,21.5,0,113,59,54,200,31.6934765625,105469,24.385937465791297,1000.9628308704049,0
2024-03-17T10:05:12,-0.23988046564999999,0.011365907350000001,10.0319087505,0.04046982203061852,-0.0035124751196385882,-0.04321871560250959,0.10458,0.4963000000000001,-0.44996,20.5,0,113,59,54,200,31.6934765625,105469,24.385937465791297,1000.9628308704049,0
2024-03-17T10:05:12,-0.24705893344999996,0.005982056499999999,10.0749795573,0.039706240482871004,-0.0036651914291880926,-0.04260785036431157,0.10458,0.4963000000000001,-0.44996,21.5,0,113,59,54,200,31.6934765625,105469,24.385937465791297,1000.9628308704049,0
2024-03-17T10:05:12,-0.25782663515,-0.00658026215,10.103693428499998,0.0433714319120591,-0.00015271630954950385,-0.04703662334124718,0.10346000000000001,0.48902000000000007,-0.44716,21.5,0,113,59,54,200,31.6934765625,105469,24.385937465791297,1000.9628308704049,0
2024-03-17T10:05:12,-0.23808584869999996,-0.010169496049999999,10.0725867347,0.0433714319120591,-0.00473420559603462,-0.04642575810304917,0.10094000000000002,0.49406000000000005,-0.4585000000000001,21.5,0,113,59,54,200,31.6934765625,105469,24.385937465791297,1000.9628308704049,0
2024-03-17T10:05:12,-0.23868405434999998,-0.01854437515,10.04925671435,0.041080687268816536,-0.0019853120241435504,-0.04642575810304917,0.10094000000000002,0.49406000000000005,-0.4585000000000001,21.5,0,113,59,54,200,31.7102734375,105337,24.32740909370279,1000.9648272260166,0
2024-03-17T10:05:12,-0.24346969954999997,0.0077766734499999995,10.0929257268,0.04382958084070761,-0.0013744467859455349,-0.04382958084070761,0.09926,0.49014,-0.44464000000000004,21.5,0,102,53,49,182,31.7102734375,105337,24.32740909370279,1000.9648272260166,0
2024-03-17T10:05:12,-0.23569302609999998,0.005383850849999999,10.11505933585,0.041996985126113565,-0.0056505034533316425,-0.04612032548395016,0.10234,0.4974200000000001,-0.44450000000000006,21.5,0,102,53,49,182,31.7102734375,105337,24.32740909370279,1000.9648272260166,0
2024-03-17T10:05:12,-0.24646072779999997,-0.014955141249999998,10.060622621699999,0.039553524173321496,-0.03772092845872745,-0.04673119072214818,0.10150000000000002,0.49574000000000007,-0.4529,20.5,0,102,53,49,182,31.7102734375,105337,24.32740909370279,1000.9648272260166,0
2024-03-17T10:05:12,-0.23808584869999996,0.010767701699999998,10.085747258999998,0.04001167310197001,-0.0013744467859455349,-0.050396382151336266,0.10150000000000002,0.48930000000000007,-0.45094000000000006,21.5,0,102,53,49,182,31.7102734375,105337,24.32740909370279,1000.9648272260166,0
2024-03-17T10:05:12,-0.23928225999999997,0.017946169499999998,10.1024970172,0.04444044607890562,-0.0012217304763960308,-0.04123340357836604,0.10038000000000001,0.48930000000000007,-0.45094000000000006,21.5,0,102,53,49,182,31.7102734375,105337,24.32740909370279,1000.9648272260166,0
2024-03-17T10:05:13,-0.2548356069,0.0083748791,10.080961613799998,0.04214970143566306,-0.004123340357836604,-0.04245513405476207,0.10654000000000001,0.49294000000000004,-0.44352,21.5,0,102,53,49,182,31.7102734375,105337,24.32740909370279,1000.9648272260166,0
2024-03-17T10:05:13,-0.24466611084999998,-0.0131605243,10.080961613799998,0.04092797095926703,-0.0012217304763960308,-0.04474587869800463,0.10122000000000002,0.49350000000000005,-0.44576000000000005,21.5,0,102,53,49,182,31.7251171875,106132,24.26332588841472,1000.9582697706048,0
2024-03-17T10:05:13,-0.2165504453,0.01734796385,10.127023448849998,0.04230241774521256,-0.0025961772623415654,-0.04123340357836604,0.10654000000000001,0.49238000000000004,-0.44884,21.5,0,102,53,49,182,31.7251171875,106132,24.26332588841472,1000.9582697706048,0
2024-03-17T10:05:13,-0.26620151425,-0.0011964113,10.016953609249999,0.039858956792420505,-0.0013744467859455349,-0.04459316238845512,0.10262,0.49938000000000005,-0.44478,21.5,0,102,53,49,182,31.7251171875,106132,24.26332588841472,1000.9582697706048,0
2024-03-17T10:05:13,-0.23688943739999999,-0.021535403399999997,10.1048898398,0.04444044607890562,-0.0018325957145940463,-0.039095375244672985,0.10262,0.49938000000000005,-0.44478,20.5,0,102,53,49,182,31.7251171875,106132,24.26332588841472,1000.9582697706048,0
2024-03-17T10:05:13,-0.24705893344999996,-0.00658026215,10.05643518215,0.04382958084070761,-0.036499197982331415,-0.04046982203061852,0.10066000000000001,0.4968600000000001,-0.45066,21.5,0,102,53,49,182,31.7251171875,106132,24.26332588841472,1000.9582697706048,0
2024-03-17T10:05:13,-0.2141576227,-0.010169496049999999,10.06720288385,0.04550946024575215,0.0,-0.0435241482216086,0.11018,0.4968600000000001,-0.4578000000000001,21.5,0,102,53,49,182,31.7251171875,106132,24.26332588841472,1000.9582697706048,0
2024-03-17T10:05:13,-0.2165504453,-0.029910282499999996,10.08036340815,0.041691552507014555,0.00045814892864851157,-0.047952921198544204,0.11018,0.4968600000000001,-0.4578000000000001,21.5,0,102,53,49,182,31.7251171875,106132,24.26332588841472,1000.9582697706048,0
2024-03-17T10:05:13,-0.24885355039999998,-0.005982056499999999,10.085149053349998,0.04092797095926703,-0.00015271630954950385,-0.04382958084070761,0.10906000000000002,0.49378000000000005,-0.44408000000000003,21.5,0,102,53,49,182,31.7391796875,106266,24.20464008867077,1000.9612354189702,0
2024-03-17T10:05:13,-0.25722842949999997,-0.0077766734499999995,10.085747258999998,0.04291328298341058,-0.0018325957145940463,-0.04306599929296009,0.10094000000000002,0.49434000000000006,-0.45808000000000004,21.5,0,102,53,49,182,31.7391796875,106266,24.20464008867077,1000.9612354189702,0
2024-03-17T10:05:13,-0.24287149389999999,-0.01615155255,10.111470101950001,0.04550946024575215,-0.0035124751196385882,-0.0476474885794452,0.10234,0.49966000000000005,-0.45388000000000006,21.5,0,102,53,49,182,31.7391796875,106266,24.20464008867077,1000.9612354189702,0
2024-03-17T10:05:13,-0.2644068973,0.0017946169499999999,10.0725867347,0.041386119887915546,0.0033597588100890844,-0.050854531079984784,0.10178000000000001,0.49294000000000004,-0.45458000000000004,20.5,0,102,53,49,182,31.7391796875,106266,24.20464008867077,1000.9612354189702,0
2024-03-17T10:05:13,-0.25543381255,-0.0047856452,10.106086251099997,0.04474587869800463,-0.0003054326190990077,-0.04444044607890562,0.10178000000000001,0.49294000000000004,-0.45458000000000004,21.5,0,102,53,49,182,31.7391796875,106266,24.20464008867077,1000.9612354189702,0
2024-03-17T10:05:13,-0.24885355039999998,-0.0191425808,10.123434214949999,0.041386119887915546,-0.0007635815477475193,-0.04581489286485116,0.10514000000000001,0.49182000000000003,-0.4590600000000001,21.5,0,102,53,49,182,31.7391796875,106266,24.20464008867077,1000.9612354189702,0
2024-03-17T10:05:13,-0.26739792554999997,-0.020338992099999998,10.10668445675,0.039858956792420505,-0.00045814892864851157,-0.04153883619746505,0.10458,0.48930000000000007,-0.45150000000000007,20.5,0,102,53,49,182,31.7391796875,106266,24.20464008867077,1000.9612354189702,0
2024-03-17T10:05:13,-0.26739792554999997,-0.010169496049999999,10.086943670299998,0.038484510006474966,-0.00595593607243065,-0.04642575810304917,0.10458,0.48930000000000007,-0.45150000000000007,20.5,0,102,53,49,182,31.7524609375,107143,24.145918701155775,1000.9665328552275,0
2024-03-17T10:05:13,-0.23629123174999997,-0.0083748791,10.079765202499999,0.041080687268816536,0.0024434609527920616,-0.039400807863771994,0.10458,0.49882000000000004,-0.45808000000000004,21.5,0,102,53,49,182,31.7524609375,107143,24.145918701155775,1000.9665328552275,0
2024-03-17T10:05:13,-0.24346969954999997,-0.017946169499999998,10.092327521149999,0.04001167310197001,-0.004581489286485115,-0.04413501345980661,0.10458,0.49882000000000004,-0.45808000000000004,21.5,0,102,53,49,182,31.7524609375,107143,24.145918701155775,1000.9665328552275,0
2024-03-17T10:05:13,-0.24466611084999998,0.022731814700000002,10.080961613799998,0.04810563750809371,-0.0024434609527920616,-0.04703662334124718,0.10374000000000001,0.48510000000000003,-0.45332000000000006,21.5,0,102,53,49,182,31.7524609375,107143,24.145918701155775,1000.9665328552275,0
2024-03-17T10:05:13,-0.24466611084999998,0.005982056499999999,10.150951674849997,0.0435241482216086,-0.002138028333693054,-0.04245513405476207,0.10346000000000001,0.48510000000000003,-0.45640000000000003,21.5,0,102,53,49,182,31.7524609375,107143,24.145918701155775,1000.9665328552275,0
2024-03-17T10:05:13,-0.24646072779999997,0.0083748791,10.060622621699999,0.04260785036431157,-0.0036651914291880926,-0.04505131131710364,0.10346000000000001,0.48510000000000003,-0.45640000000000003,21.5,0,102,53,49,182,31.7524609375,107143,24.145918701155775,1000.9665328552275,0
2024-03-17T10:05:13,-0.26859433685,-0.0077766734499999995,10.08155981945,0.04260785036431157,-0.0022907446432425577,-0.04718933965079669,0.10794000000000001,0.48958,-0.45878,21.5,0,102,53,49,182,31.7524609375,107143,24.145918701155775,1000.9665328552275,0
2024-03-17T10:05:13,-0.24885355039999998,-0.014955141249999998,10.0701939121,0.043982297150257116,-0.002901609881440573,-0.04428772976935611,0.10654000000000001,0.49154000000000003,-0.45696000000000003,21.5,0,102,53,49,182,31.7661328125,107143,24.09809780484195,1000.9670672879064,0
2024-03-17T10:05:13,-0.2560320182,0.0047856452,10.054042359550001,0.039706240482871004,-0.0022907446432425577,-0.04581489286485116,0.09898,0.4904200000000001,-0.45696000000000003,21.5,0,96,50,46,172,31.7661328125,107143,24.09809780484195,1000.9670672879064,0
2024-03-17T10:05:13,-0.2584248408,0.0029910282499999996,10.10668445675,0.04505131131710364,0.0016798794050445422,-0.04092797095926703,0.10486000000000001,0.48874000000000006,-0.46186000000000005,21.5,0,96,50,46,172,31.7661328125,107143,24.09809780484195,1000.9670672879064,0
2024-03-17T10:05:13,-0.28235306679999994,0.0035892338999999997,10.02652489965,0.04230241774521256,-0.0025961772623415654,-0.04535674393620265,0.10486000000000001,0.48874000000000006,-0.46186000000000005,21.5,0,96,50,46,172,31.7661328125,107143,24.09809780484195,1000.9670672879064,0
2024-03-17T10:05:13,-0.2644068973,0.007178467799999999,10.10668445675,0.04153883619746505,-0.002138028333693054,-0.04856378643674222,0.10598,0.49658,-0.4649400000000001,20.5,0,96,50,46,172,31.7661328125,107143,24.09809780484195,1000.9670672879064,0
2024-03-17T10:05:13,-0.23569302609999998,0.0011964113,10.071390323399998,0.04428772976935611,-0.0006108652381980154,-0.04566217655530165,0.10038000000000001,0.49210000000000004,-0.46116,21.5,0,96,50,46,172,31.7661328125,107143,24.09809780484195,1000.9670672879064,0
2024-03-17T10:05:13,-0.23389840915,0.011365907350000001,10.07557776295,0.04016438941151951,-0.0003054326190990077,-0.04077525464971753,0.10766,0.4949,-0.45444000000000007,21.5,0,96,50,46,172,31.7661328125,107143,24.09809780484195,1000.9670672879064,0
2024-03-17T10:05:13,-0.23210379219999996,-0.0077766734499999995,10.068997500799998,0.039095375244672985,-0.002901609881440573,-0.043676864531158106,0.10766,0.4949,-0.45444000000000007,21.5,0,96,50,46,172,31.77765625,107007,24.039287231363232,1000.9605302568716,0
2024-03-17T10:05:13,-0.24227328824999997,0.0077766734499999995,10.088140081599997,0.036804630601430424,-0.0013744467859455349,-0.048411070127192715,0.10402000000000002,0.4907,-0.44884,21.5,0,96,50,46,172,31.77765625,107007,24.039287231363232,1000.9605302568716,0
2024-03-17T10:05:13,-0.23928225999999997,-0.005982056499999999,10.0749795573,0.04245513405476207,-0.003970624048287101,-0.04688390703169768,0.10626000000000001,0.49266000000000004,-0.44884,21.5,0,96,50,46,172,31.77765625,107007,24.039287231363232,1000.9605302568716,0
2024-03-17T10:05:13,-0.26380869165,-0.024526431649999996,10.094720343749998,0.04642575810304917,-0.0007635815477475193,-0.0474947722698957,0.10850000000000001,0.49322000000000005,-0.45738000000000006,20.5,0,96,50,46,172,31.77765625,107007,24.039287231363232,1000.9605302568716,0
2024-03-17T10:05:13,-0.25064816735,0.0023928226,10.150353469199999,0.041386119887915546,-0.004276056667386108,-0.04291328298341058,0.10094000000000002,0.49518000000000006,-0.4606,21.5,0,96,50,46,172,31.77765625,107007,24.039287231363232,1000.9605302568716,0
2024-03-17T10:05:13,-0.24227328824999997,0.013758729949999998,10.2269237924,0.04306599929296009,-0.0007635815477475193,-0.04459316238845512,0.10094000000000002,0.49518000000000006,-0.4606,21.5,0,96,50,46,172,31.77765625,107007,24.039287231363232,1000.9605302568716,0
2024-03-17T10:05:13,-0.22911276394999996,0.03649054465,10.091729315499999,0.04291328298341058,-0.004886921905584123,-0.0435241482216086,0.10066000000000001,0.48734000000000005,-0.4678800000000001,20.5,0,96,50,46,172,31.77765625,107007,24.039287231363232,1000.9605302568716,0
2024-03-17T10:05:13,-0.2620140747,0.0023928226,10.0546405652,0.041080687268816536,-0.0036651914291880926,-0.04520402762665314,0.10178000000000001,0.4904200000000001,-0.46298,21.5,0,96,50,46,172,31.790546875,107143,23.975179931073413,1000.958001497133,0
2024-03-17T10:05:13,-0.27218357075,0.005982056499999999,10.06720288385,0.04230241774521256,-0.0022907446432425577,-0.043982297150257116,0.09982,0.48762000000000005,-0.46046000000000004,21.5,0,96,50,46,172,31.790546875,107143,23.975179931073413,1000.958001497133,0
2024-03-17T10:05:14,-0.2548356069,-0.01854437515,10.1084790737,0.039400807863771994,-0.0015271630954950385,-0.04321871560250959,0.09982,0.48762000000000005,-0.46046000000000004,21.5,0,96,50,46,172,31.790546875,107143,23.975179931073413,1000.958001497133,0
2024-03-17T10:05:14,-0.25064816735,-0.008973084749999999,10.0929257268,0.03787364476827696,-0.004276056667386108,-0.040317105721069016,0.10766,0.48650000000000004,-0.4649400000000001,20.5,0,96,50,46,172,31.790546875,107143,23.975179931073413,1000.958001497133,0
2024-03-17T10:05:14,-0.23569302609999998,-0.023928225999999997,10.0582297991,0.04489859500755413,-0.003054326190990077,-0.04306599929296009,0.10906000000000002,0.49602,-0.45766,21.5,0,96,50,46,172,31.790546875,107143,23.975179931073413,1000.958001497133,0
2024-03-17T10:05:14,-0.22612173569999997,-0.00418743955,10.1240324206,0.04734205596034619,-0.003207042500539581,-0.0433714319120591,0.10906000000000002,0.49602,-0.45766,21.5,0,96,50,46,172,31.790546875,107143,23.975179931073413,1000.958001497133,0
2024-03-17T10:05:14,-0.23150558654999998,-0.03170489945,10.051649536949999,0.04230241774521256,-0.0035124751196385882,-0.04153883619746505,0.09702000000000001,0.49238000000000004,-0.45822,21.5,0,96,50,46,172,31.790546875,107143,23.975179931073413,1000.958001497133,0
2024-03-17T10:05:14,-0.24346969954999997,0.01256231865,10.0773723799,0.04276056667386108,-0.0024434609527920616,-0.04566217655530165,0.10262,0.49378000000000005,-0.4548600000000001,21.5,0,96,50,46,172,31.8036328125,108312,23.92195001069696,1000.9647785217659,0
2024-03-17T10:05:14,-0.23210379219999996,-0.0011964113,10.0845508477,0.04428772976935611,-0.001069014166846527,-0.04214970143566306,0.10542000000000001,0.4979800000000001,-0.4513600000000001,21.5,0,96,50,46,172,31.8036328125,108312,23.92195001069696,1000.9647785217659,0
2024-03-17T10:05:14,-0.25184457865,-0.01256231865,10.159326553949999,0.040317105721069016,-0.03741549583962844,-0.04230241774521256,0.09898,0.49014,-0.45794000000000007,21.5,0,96,50,46,172,31.8036328125,108312,23.92195001069696,1000.9647785217659,0
2024-03-17T10:05:14,-0.24885355039999998,0.01854437515,10.073783145999998,0.04306599929296009,-0.0018325957145940463,-0.04382958084070761,0.09898,0.49014,-0.45794000000000007,20.5,0,96,50,46,172,31.8036328125,108312,23.92195001069696,1000.9647785217659,0
2024-03-17T10:05:14,-0.25423740125,-0.0077766734499999995,10.08634546465,0.04291328298341058,-0.00015271630954950385,-0.04703662334124718,0.09898,0.4963000000000001,-0.4536,21.5,0,96,50,46,172,31.8036328125,108312,23.92195001069696,1000.9647785217659,0
2024-03-17T10:05:14,-0.26321048599999997,-0.0047856452,10.094720343749998,0.043676864531158106,-0.002901609881440573,-0.0433714319120591,0.10234,0.49294000000000004,-0.45892,21.5,0,96,50,46,172,31.8036328125,108312,23.92195001069696,1000.9647785217659,0
2024-03-17T10:05:14,-0.28534409504999997,0.005383850849999999,10.069595706449999,0.04260785036431157,-0.0013744467859455349,-0.0435241482216086,0.10206000000000001,0.49238000000000004,-0.46438000000000007,20.5,0,96,50,46,172,31.8036328125,108312,23.92195001069696,1000.9647785217659,0
2024-03-17T10:05:14,-0.26141586904999997,-0.0011964113,10.077970585549998,0.04245513405476207,-0.0012217304763960308,-0.041691552507014555,0.10206000000000001,0.49238000000000004,-0.46438000000000007,21.5,0,96,50,46,172,31.8149609375,107621,23.879442211643173,1000.9687124164769,0
2024-03-17T10:05:14,-0.23988046564999999,-0.014955141249999998,10.101898811549999,0.04474587869800463,-0.005192354524683131,-0.043676864531158106,0.10094000000000002,0.4974200000000001,-0.4572400000000001,21.5,0,94,50,46,170,31.8149609375,107621,23.879442211643173,1000.9687124164769,0
2024-03-17T10:05:14,-0.24047867129999997,0.0023928226,10.12582703755,0.041844268816564056,0.001069014166846527,-0.04657847441259867,0.10374000000000001,0.5038600000000001,-0.45654,21.5,0,94,50,46,170,31.8149609375,107621,23.879442211643173,1000.9687124164769,0
2024-03-17T10:05:14,-0.2560320182,0.1459621786,10.085747258999998,0.039400807863771994,-0.0033597588100890844,-0.04734205596034619,0.10150000000000002,0.4904200000000001,-0.45066,21.5,0,94,50,46,170,31.8149609375,107621,23.879442211643173,1000.9687124164769,0
2024-03-17T10:05:14,-0.26321048599999997,-0.0131605243,10.079765202499999,0.04046982203061852,-0.0003054326190990077,-0.04153883619746505,0.09982,0.49378000000000005,-0.45570000000000005,21.5,0,94,50,46,170,31.8149609375,107621,23.879442211643173,1000.9687124164769,0
2024-03-17T10:05:14,-0.23270199784999998,0.022133609050000003,10.089934698549998,0.04123340357836604,-0.0025961772623415654,-0.04520402762665314,0.09982,0.49378000000000005,-0.45570000000000005,20.5,0,94,50,46,170,31.8149609375,107621,23.879442211643173,1000.9687124164769,0
2024-03-17T10:05:14,-0.25304098994999996,-0.0011964113,10.076175968599998,0.043676864531158106,-0.0007635815477475193,-0.04291328298341058,0.10318000000000001,0.49322000000000005,-0.4461800000000001,20.5,0,94,50,46,170,31.8149609375,107621,23.879442211643173,1000.9687124164769,0
2024-03-17T10:05:14,-0.24047867129999997,-0.005982056499999999,10.109675485,0.039553524173321496,0.0006108652381980154,-0.04550946024575215,0.1029,0.48958,-0.45626000000000005,20.5,0,94,50,46,170,31.8262890625,107621,23.831531068449365,1000.9690494327615,0
2024-03-17T10:05:14,-0.2225325018,-0.01256231865,10.12104139235,0.04001167310197001,-0.0012217304763960308,-0.04734205596034619,0.09954,0.49294000000000004,-0.4566800000000001,21.5,0,94,50,46,170,31.8262890625,107621,23.831531068449365,1000.9690494327615,0
2024-03-17T10:05:14,-0.24646072779999997,-0.0011964113,10.091729315499999,0.04382958084070761,-0.002138028333693054,-0.04734205596034619,0.10598,0.49182000000000003,-0.45976000000000006,20.5,0,94,50,46,170,31.8262890625,107621,23.831531068449365,1000.9690494327615,0
2024-03-17T10:05:14,-0.26859433685,-0.008973084749999999,10.066006472549999,0.04077525464971753,-0.0018325957145940463,-0.04612032548395016,0.10598,0.49182000000000003,-0.45976000000000006,21.5,0,94,50,46,170,31.8262890625,107621,23.831531068449365,1000.9690494327615,0
2024-03-17T10:05:14,-0.23330020349999997,0.007178467799999999,10.083354436399997,0.04673119072214818,-0.0024434609527920616,-0.04581489286485116,0.1029,0.49210000000000004,-0.4655000000000001,21.5,0,94,50,46,170,31.8262890625,107621,23.831531068449365,1000.9690494327615,0
2024-03-17T10:05:14,-0.24825534474999997,0.0,10.0546405652,0.038179077387375956,-0.0036651914291880926,-0.041844268816564056,0.10458,0.49854000000000004,-0.45234,20.5,0,94,50,46,170,31.8262890625,107621,23.831531068449365,1000.9690494327615,0
2024-03-17T10:05:14,-0.2536391956,0.007178467799999999,10.1539427031,0.04306599929296009,-0.0025961772623415654,-0.04657847441259867,0.10458,0.49854000000000004,-0.45234,20.5,0,94,50,46,170,31.8262890625,107621,23.831531068449365,1000.9690494327615,0
2024-03-17T10:05:14,-0.22552353004999998,-0.01615155255,10.09830957765,0.04123340357836604,-0.0044287729769356115,-0.047952921198544204,0.10486000000000001,0.49378000000000005,-0.45164000000000004,21.5,0,94,50,46,170,31.836640625,107211,23.767325734553552,1000.9696049358921,0
2024-03-17T10:05:14,-0.26859433685,0.025722842949999998,10.076774174250001,0.04581489286485116,-0.0015271630954950385,-0.04505131131710364,0.10682000000000001,0.4979800000000001,-0.45794000000000007,21.5,0,94,50,46,170,31.836640625,107211,23.767325734553552,1000.9696049358921,0
2024-03-17T10:05:14,-0.25543381255,-0.0035892338999999997,10.0773723799,0.040317105721069016,-0.00015271630954950385,-0.04276056667386108,0.10514000000000001,0.48930000000000007,-0.46970000000000006,21.5,0,94,50,46,170,31.836640625,107211,23.767325734553552,1000.9696049358921,0
2024-03-17T10:05:14,-0.25663022385,0.0017946169499999999,10.07916699685,0.04703662334124718,0.00045814892864851157,-0.04703662334124718,0.10374000000000001,0.49518000000000006,-0.46326000000000006,20.5,0,94,50,46,170,31.836640625,107211,23.767325734553552,1000.9696049358921,0
2024-03-17T10:05:14,-0.2608176634,-0.020937197749999997,10.101300605899999,0.04260785036431157,-0.00015271630954950385,-0.04688390703169768,0.10374000000000001,0.49518000000000006,-0.46326000000000006,20.5,0,94,50,46,170,31.836640625,107211,23.767325734553552,1000.9696049358921,0
2024-03-17T10:05:14,-0.24765713909999998,0.023928225999999997,10.052247742599999,0.040622538340168025,-0.00015271630954950385,-0.043982297150257116,0.10066000000000001,0.49518000000000006,-0.45794000000000007,20.5,0,94,50,46,170,31.836640625,107211,23.767325734553552,1000.9696049358921,0
2024-03-17T10:05:14,-0.24107687694999996,0.0029910282499999996,10.085149053349998,0.04077525464971753,-0.002138028333693054,-0.04321871560250959,0.10122000000000002,0.49322000000000005,-0.44800000000000006,20.5,0,94,50,46,170,31.836640625,107211,23.767325734553552,1000.9696049358921,0
2024-03-17T10:05:14,-0.23688943739999999,-0.015553346899999999,10.101898811549999,0.04260785036431157,-0.0024434609527920616,-0.04276056667386108,0.10122000000000002,0.49322000000000005,-0.44800000000000006,21.5,0,94,50,46,170,31.8469921875,107347,23.719378758518086,1000.9719582505343,0
2024-03-17T10:05:14,-0.23748764304999997,-0.005982056499999999,10.09113110985,0.040622538340168025,0.0007635815477475193,-0.041844268816564056,0.10234,0.49266000000000004,-0.46522,21.5,0,94,50,46,170,31.8469921875,107347,23.719378758518086,1000.9719582505343,0
2024-03-17T10:05:14,-0.25184457865,-0.013758729949999998,10.082756230749998,0.041691552507014555,-0.003054326190990077,-0.04550946024575215,0.10234,0.49266000000000004,-0.46522,20.5,0,94,50,46,170,31.8469921875,107347,23.719378758518086,1000.9719582505343,0
2024-03-17T10:05:14,-0.23330020349999997,-0.014356935599999999,10.08395264205,0.039858956792420505,-0.0009162978572970231,-0.04688390703169768,0.10178000000000001,0.4949,-0.45220000000000005,21.5,0,94,50,46,170,31.8469921875,107347,23.719378758518086,1000.9719582505343,0
2024-03-17T10:05:14,-0.25423740125,0.01615155255,10.071390323399998,0.04535674393620265,0.00015271630954950385,-0.04520402762665314,0.09730000000000001,0.49126000000000003,-0.44282000000000005,21.5,0,94,50,46,170,31.8469921875,107347,23.719378758518086,1000.9719582505343,0
2024-03-17T10:05:14,-0.25663022385,-0.0095712904,10.12104139235,0.04505131131710364,-0.006566801310628666,-0.04245513405476207,0.10514000000000001,0.4898600000000001,-0.4426800000000001,21.5,0,94,50,46,170,31.8469921875,107347,23.719378758518086,1000.9719582505343,0
2024-03-17T10:05:14,-0.23748764304999997,-0.0083748791,10.0594262104,0.04459316238845512,-0.0038179077387375964,-0.04260785036431157,0.10514000000000001,0.4898600000000001,-0.4426800000000001,20.5,0,94,50,46,170,31.8469921875,107347,23.719378758518086,1000.9719582505343,0
2024-03-17T10:05:15,-0.25184457865,0.010767701699999998,10.103693428499998,0.038637226316024474,-0.0003054326190990077,-0.04382958084070761,0.10878000000000002,0.49210000000000004,-0.46452000000000004,21.5,0,94,50,46,170,31.8571484375,107484,23.6930688830538,1000.9668021118277,0
2024-03-17T10:05:15,-0.23569302609999998,0.0,10.080961613799998,0.04230241774521256,-0.003054326190990077,-0.04657847441259867,0.10822000000000001,0.48510000000000003,-0.43288000000000004,21.5,0,92,48,44,166,31.8571484375,107484,23.6930688830538,1000.9668021118277,0
2024-03-17T10:05:15,-0.23150558654999998,0.00658026215,10.082756230749998,0.04230241774521256,-0.0016798794050445422,-0.04123340357836604,0.10598,0.4949,-0.4555600000000001,20.5,0,92,48,44,166,31.8571484375,107484,23.6930688830538,1000.9668021118277,0
2024-03-17T10:05:15,-0.2644068973,0.0023928226,10.1359965336,0.04657847441259867,-0.0070249502392771765,-0.04642575810304917,0.09842000000000002,0.49014,-0.44814000000000004,20.5,0,92,48,44,166,31.8571484375,107484,23.6930688830538,1000.9668021118277,0
2024-03-17T10:05:15,-0.23808584869999996,-0.0077766734499999995,10.0701939121,0.04703662334124718,-0.0006108652381980154,-0.04718933965079669,0.09842000000000002,0.49014,-0.44814000000000004,21.5,0,92,48,44,166,31.8571484375,107484,23.6930688830538,1000.9668021118277,0
2024-03-17T10:05:15,-0.27098715944999996,0.014955141249999998,10.0845508477,0.03756821214917795,-0.004886921905584123,-0.04260785036431157,0.10262,0.49350000000000005,-0.44926000000000005,20.5,0,92,48,44,166,31.8571484375,107484,23.6930688830538,1000.9668021118277,0
2024-03-17T10:05:15,-0.26919254249999996,-0.0011964113,10.01934643185,0.043676864531158106,-0.00473420559603462,-0.04230241774521256,0.10234,0.49126000000000003,-0.44520000000000004,21.5,0,92,48,44,166,31.8571484375,107484,23.6930688830538,1000.9668021118277,0
2024-03-17T10:05:15,-0.2560320182,0.017946169499999998,10.139585767500002,0.04581489286485116,-0.00473420559603462,-0.04856378643674222,0.10234,0.49126000000000003,-0.44520000000000004,20.5,0,92,48,44,166,31.867890625,106871,23.65058108221564,1000.9715844885451,0
2024-03-17T10:05:15,-0.27337998204999997,-0.00658026215,10.109077279349998,0.039553524173321496,-0.0024434609527920616,-0.0476474885794452,0.10486000000000001,0.4963000000000001,-0.45514000000000004,20.5,0,92,48,44,166,31.867890625,106871,23.65058108221564,1000.9715844885451,0
2024-03-17T10:05:15,-0.24167508259999998,-0.028115665550000002,10.106086251099997,0.04092797095926703,-0.03787364476827696,-0.04566217655530165,0.10486000000000001,0.4963000000000001,-0.45514000000000004,21.5,0,92,48,44,166,31.867890625,106871,23.65058108221564,1000.9715844885451,0
2024-03-17T10:05:15,-0.26141586904999997,-0.005982056499999999,10.080961613799998,0.040622538340168025,0.0,-0.04550946024575215,0.10038000000000001,0.48902000000000007,-0.4502400000000001,20.5,0,92,48,44,166,31.867890625,106871,23.65058108221564,1000.9715844885451,0
2024-03-17T10:05:15,-0.24346969954999997,0.007178467799999999,10.066006472549999,0.04306599929296009,0.00045814892864851157,-0.04596760917440065,0.10178000000000001,0.49294000000000004,-0.44548000000000004,21.5,0,92,48,44,166,31.867890625,106871,23.65058108221564,1000.9715844885451,0
2024-03-17T10:05:15,-0.24526431649999997,-0.022133609050000003,10.076175968599998,0.04718933965079669,-0.0013744467859455349,-0.04520402762665314,0.10178000000000001,0.49294000000000004,-0.44548000000000004,21.5,0,92,48,44,166,31.867890625,106871,23.65058108221564,1000.9715844885451,0
2024-03-17T10:05:15,-0.25124637299999997,-0.00418743955,10.154540908749999,0.04520402762665314,-0.0038179077387375964,-0.04810563750809371,0.10206000000000001,0.48930000000000007,-0.44604000000000005,21.5,0,92,48,44,166,31.867890625,106871,23.65058108221564,1000.9715844885451,0
2024-03-17T10:05:15,-0.23389840915,-0.0047856452,10.122836009299998,0.04657847441259867,-0.0019853120241435504,-0.04566217655530165,0.10430000000000002,0.4907,-0.4601800000000001,21.5,0,92,48,44,166,31.8778515625,107143,23.61886117036536,1000.9751032040792,0
2024-03-17T10:05:15,-0.26739792554999997,-0.029312076849999997,10.0582297991,0.043676864531158106,-0.0009162978572970231,-0.043982297150257116,0.10794000000000001,0.49350000000000005,-0.45094000000000006,20.5,0,92,48,44,166,31.8778515625,107143,23.61886117036536,1000.9751032040792,0
2024-03-17T10:05:15,-0.25722842949999997,0.020338992099999998,10.0295159279,0.04703662334124718,-0.0036651914291880926,-0.04444044607890562,0.10794000000000001,0.49350000000000005,-0.45094000000000006,21.5,0,92,48,44,166,31.8778515625,107143,23.61886117036536,1000.9751032040792,0
2024-03-17T10:05:15,-0.24586252214999998,0.0077766734499999995,10.259226897499998,0.041844268816564056,-0.001069014166846527,-0.04276056667386108,0.10206000000000001,0.48846000000000006,-0.45346000000000003,20.5,0,92,48,44,166,31.8778515625,107143,23.61886117036536,1000.9751032040792,0
2024-03-17T10:05:15,-0.2560320182,0.011365907350000001,10.076774174250001,0.04413501345980661,0.0,-0.04520402762665314,0.10850000000000001,0.49462000000000006,-0.44716,20.5,0,92,48,44,166,31.8778515625,107143,23.61886117036536,1000.9751032040792,0
2024-03-17T10:05:15,-0.23569302609999998,-0.005982056499999999,10.09113110985,0.040622538340168025,-0.004581489286485115,-0.0433714319120591,0.10850000000000001,0.49462000000000006,-0.44716,21.5,0,92,48,44,166,31.8778515625,107143,23.61886117036536,1000.9751032040792,0
2024-03-17T10:05:15,-0.25782663515,-0.01256231865,10.069595706449999,0.04046982203061852,-0.001069014166846527,-0.038942658935123484,0.10094000000000002,0.50358,-0.45822,21.5,0,92,48,44,166,31.8778515625,107143,23.61886117036536,1000.9751032040792,0
2024-03-17T10:05:15,-0.25902304644999996,0.010767701699999998,10.052247742599999,0.0474947722698957,-0.004581489286485115,-0.04535674393620265,0.10430000000000002,0.49602,-0.4537400000000001,20.5,0,92,48,44,166,31.88703125,106871,23.581685387784596,1000.9755599075152,0
2024-03-17T10:05:15,-0.2560320182,-0.0131605243,10.082756230749998,0.04642575810304917,-0.004886921905584123,-0.04474587869800463,0.10430000000000002,0.4898600000000001,-0.44604000000000005,20.5,0,92,48,44,166,31.88703125,106871,23.581685387784596,1000.9755599075152,0
2024-03-17T10:05:15,-0.22791635265,0.0017946169499999999,10.087541875949999,0.04505131131710364,0.0035124751196385882,-0.04520402762665314,0.10234,0.4949,-0.45332000000000006,21.5,0,92,48,44,166,31.88703125,106871,23.581685387784596,1000.9755599075152,0
2024-03-17T10:05:15,-0.23569302609999998,0.0047856452,10.088738287249999,0.039400807863771994,0.038942658935123484,-0.049327367984489744,0.10206000000000001,0.4963000000000001,-0.45248,21.5,0,92,48,44,166,31.88703125,106871,23.581685387784596,1000.9755599075152,0
2024-03-17T10:05:15,-0.21834506225,-0.0017946169499999999,10.070792117749999,0.04550946024575215,0.0009162978572970231,-0.041386119887915546,0.10206000000000001,0.4963000000000001,-0.45248,21.5,0,92,48,44,166,31.88703125,106871,23.581685387784596,1000.9755599075152,0
2024-03-17T10:05:15,-0.24765713909999998,0.010767701699999998,10.083354436399997,0.04260785036431157,0.00015271630954950385,-0.04214970143566306,0.10570000000000002,0.49182000000000003,-0.4496800000000001,20.5,0,92,48,44,166,31.88703125,106871,23.581685387784596,1000.9755599075152,0
2024-03-17T10:05:15,-0.26380869165,-0.00059820565,10.0905329042,0.04092797095926703,-0.00045814892864851157,-0.04535674393620265,0.10934,0.49238000000000004,-0.44856000000000007,21.5,0,92,48,44,166,31.88703125,106871,23.581685387784596,1000.9755599075152,0
2024-03-17T10:05:15,-0.24586252214999998,0.00418743955,10.12463062625,0.07757988525114795,-0.0013744467859455349,-0.04627304179349966,0.10934,0.49238000000000004,-0.44856000000000007,20.5,0,90,47,44,162,31.895625,107007,23.571498342930457,1000.9786656094662,0
2024-03-17T10:05:15,-0.24825534474999997,-0.00658026215,10.159326553949999,0.0435241482216086,-0.0022907446432425577,-0.04856378643674222,0.11186000000000001,0.49378000000000005,-0.4508000000000001,21.5,0,90,47,44,162,31.895625,107007,23.571498342930457,1000.9786656094662,0
2024-03-17T10:05:15,-0.22492532440000002,0.028713871199999998,10.071390323399998,0.04321871560250959,-0.0036651914291880926,-0.041691552507014555,0.11186000000000001,0.49378000000000005,-0.4508000000000001,20.5,0,90,47,44,162,31.895625,107007,23.571498342930457,1000.9786656094662,0
2024-03-17T10:05:15,-0.24526431649999997,0.00418743955,10.08155981945,0.04001167310197001,-0.0022907446432425577,-0.048258353817643214,0.10738,0.4968600000000001,-0.4508000000000001,20.5,0,90,47,44,162,31.895625,107007,23.571498342930457,1000.9786656094662,0
2024-03-17T10:05:15,-0.22612173569999997,0.00418743955,10.12582703755,0.043676864531158106,-0.0019853120241435504,-0.04627304179349966,0.10458,0.48874000000000006,-0.4572400000000001,20.5,0,90,47,44,162,31.895625,107007,23.571498342930457,1000.9786656094662,0
2024-03-17T10:05:15,-0.22851455829999998,0.0011964113,10.122836009299998,0.040317105721069016,-0.006108652381980154,-0.04016438941151951,0.10458,0.48874000000000006,-0.4572400000000001,20.5,0,90,47,44,162,31.895625,107007,23.571498342930457,1000.9786656094662,0
2024-03-17T10:05:15,-0.2237289131,-0.00658026215,10.215557885049998,0.04382958084070761,-0.0038179077387375964,-0.04535674393620265,0.10234,0.49378000000000005,-0.45626000000000005,20.5,0,90,47,44,162,31.895625,107007,23.571498342930457,1000.9786656094662,0
2024-03-17T10:05:15,-0.24705893344999996,0.010169496049999999,10.0953185494,0.04321871560250959,-0.005345070834232635,-0.04459316238845512,0.09702000000000001,0.48930000000000007,-0.4529,21.5,0,90,47,44,162,31.9040234375,106400,23.55048864811651,1000.9742615165603,0
2024-03-17T10:05:15,-0.23389840915,-0.015553346899999999,10.06720288385,0.041691552507014555,-0.0044287729769356115,-0.04306599929296009,0.10766,0.48622000000000004,-0.44772,20.5,0,90,47,44,162,31.9040234375,106400,23.55048864811651,1000.9742615165603,0
2024-03-17T10:05:16,-0.2309073809,0.008973084749999999,10.076175968599998,0.04260785036431157,-0.002138028333693054,-0.04917465167494024,0.10122000000000002,0.49434000000000006,-0.45584,21.5,0,90,47,44,162,31.9040234375,106400,23.55048864811651,1000.9742615165603,0
2024-03-17T10:05:16,-0.23688943739999999,0.010767701699999998,10.0701939121,0.0435241482216086,0.0012217304763960308,-0.04566217655530165,0.10122000000000002,0.49434000000000006,-0.45584,20.5,0,90,47,44,162,31.9040234375,106400,23.55048864811651,1000.9742615165603,0
2024-03-17T10:05:16,-0.2679961312,-0.01974078645,10.064211855599998,0.048411070127192715,-0.0033597588100890844,-0.04718933965079669,0.10010000000000001,0.48594000000000004,-0.46242,21.5,0,90,47,44,162,31.9040234375,106400,23.55048864811651,1000.9742615165603,0
2024-03-17T10:05:16,-0.25304098994999996,-0.0095712904,10.1874422195,0.04382958084070761,-0.002901609881440573,-0.048258353817643214,0.10598,0.48818000000000006,-0.44366,20.5,0,90,47,44,162,31.9040234375,106400,23.55048864811651,1000.9742615165603,0
2024-03-17T10:05:16,-0.24705893344999996,-0.014955141249999998,10.02652489965,0.04459316238845512,-0.0022907446432425577,-0.041386119887915546,0.10598,0.48818000000000006,-0.44366,21.5,0,90,47,44,162,31.9040234375,106400,23.55048864811651,1000.9742615165603,0
2024-03-17T10:05:16,-0.26620151425,0.00658026215,10.06839929515,0.043982297150257116,-0.0006108652381980154,-0.039400807863771994,0.10318000000000001,0.4898600000000001,-0.45108000000000004,21.5,0,90,47,44,162,31.9126171875,107075,23.524092299605677,1000.9755681699289,0
2024-03-17T10:05:16,-0.24227328824999997,-0.014356935599999999,10.077970585549998,0.04474587869800463,-0.0022907446432425577,-0.04581489286485116,0.10458,0.49182000000000003,-0.4555600000000001,20.5,0,90,47,44,162,31.9126171875,107075,23.524092299605677,1000.9755681699289,0
2024-03-17T10:05:16,-0.2548356069,-0.014356935599999999,10.23350405455,0.036804630601430424,-0.0012217304763960308,-0.041844268816564056,0.10570000000000002,0.49462000000000006,-0.4555600000000001,21.5,0,90,47,44,162,31.9126171875,107075,23.524092299605677,1000.9755681699289,0
2024-03-17T10:05:16,-0.23868405434999998,-0.020937197749999997,10.101898811549999,0.04077525464971753,0.0,-0.04291328298341058,0.10262,0.48818000000000006,-0.45066,20.5,0,90,47,44,162,31.9126171875,107075,23.524092299605677,1000.9755681699289,0
2024-03-17T10:05:16,-0.22193429615000002,-0.013758729949999998,10.052845948249999,0.041996985126113565,0.0007635815477475193,-0.04474587869800463,0.10402000000000002,0.49378000000000005,-0.4459,21.5,0,90,47,44,162,31.9126171875,107075,23.524092299605677,1000.9755681699289,0
2024-03-17T10:05:16,-0.24346969954999997,-0.01615155255,10.1156575415,0.04153883619746505,0.00045814892864851157,-0.04413501345980661,0.10402000000000002,0.49378000000000005,-0.4459,20.5,0,90,47,44,162,31.9126171875,107075,23.524092299605677,1000.9755681699289,0
2024-03-17T10:05:16,-0.23389840915,-0.010169496049999999,10.0354979844,0.04077525464971753,-0.00015271630954950385,-0.04214970143566306,0.10514000000000001,0.49210000000000004,-0.46074000000000004,20.5,0,90,47,44,162,31.9126171875,107075,23.524092299605677,1000.9755681699289,0
2024-03-17T10:05:16,-0.26021945775,0.0011964113,10.171290666949998,0.04642575810304917,-0.003054326190990077,-0.04291328298341058,0.09926,0.4898600000000001,-0.45276000000000005,21.5,0,90,47,44,162,31.921796875,107007,23.51395052367451,1000.9796204308715,0
2024-03-17T10:05:16,-0.24346969954999997,0.0035892338999999997,10.24068252235,0.0433714319120591,-0.002138028333693054,-0.04566217655530165,0.1029,0.48678000000000005,-0.44422,20.5,0,90,47,44,162,31.921796875,107007,23.51395052367451,1000.9796204308715,0
2024-03-17T10:05:16,-0.23270199784999998,-0.010169496049999999,10.0845508477,0.043676864531158106,-0.0007635815477475193,-0.04214970143566306,0.1029,0.48678000000000005,-0.44422,21.5,0,90,47,44,162,31.921796875,107007,23.51395052367451,1000.9796204308715,0
2024-03-17T10:05:16,-0.2596212521,0.01854437515,10.066006472549999,0.04627304179349966,-0.004581489286485115,-0.0435241482216086,0.10010000000000001,0.49910000000000004,-0.4426800000000001,21.5,0,90,47,44,162,31.921796875,107007,23.51395052367451,1000.9796204308715,0
2024-03-17T10:05:16,-0.24705893344999996,-0.0083748791,10.10668445675,0.04276056667386108,-0.0007635815477475193,-0.04642575810304917,0.10402000000000002,0.49406000000000005,-0.4590600000000001,21.5,0,90,47,44,162,31.921796875,107007,23.51395052367451,1000.9796204308715,0
2024-03-17T10:05:16,-0.2584248408,0.15134602945,9.990034354999999,0.04276056667386108,-0.0025961772623415654,-0.04581489286485116,0.10402000000000002,0.49406000000000005,-0.4590600000000001,21.5,0,90,47,44,162,31.921796875,107007,23.51395052367451,1000.9796204308715,0
2024-03-17T10:05:16,-0.24047867129999997,0.0,10.1132647189,0.04001167310197001,-0.003054326190990077,-0.04505131131710364,0.10486000000000001,0.49462000000000006,-0.45934,20.5,0,89,46,43,160,31.921796875,107007,23.51395052367451,1000.9796204308715,0
2024-03-17T10:05:16,-0.23270199784999998,0.01734796385,10.0725867347,0.04291328298341058,-0.002138028333693054,-0.04657847441259867,0.10458,0.49434000000000006,-0.46284000000000003,21.5,0,89,46,43,160,31.9301953125,107211,23.49294777149148,1000.9842077053013,0
2024-03-17T10:05:16,-0.24167508259999998,0.007178467799999999,10.128219860149999,0.041080687268816536,-0.0007635815477475193,-0.04550946024575215,0.10094000000000002,0.4909800000000001,-0.45976000000000006,21.5,0,89,46,43,160,31.9301953125,107211,23.49294777149148,1000.9842077053013,0
2024-03-17T10:05:16,-0.2536391956,0.14356935599999998,10.0654082669,0.04077525464971753,-0.0033597588100890844,-0.041996985126113565,0.10206000000000001,0.4968600000000001,-0.44296,20.5,0,89,46,43,160,31.9301953125,107211,23.49294777149148,1000.9842077053013,0
2024-03-17T10:05:16,-0.2548356069,-0.0047856452,10.089934698549998,0.04444044607890562,0.0009162978572970231,-0.04123340357836604,0.10206000000000001,0.4968600000000001,-0.44296,21.5,0,89,46,43,160,31.9301953125,107211,23.49294777149148,1000.9842077053013,0
2024-03-17T10:05:16,-0.23030917524999997,0.0029910282499999996,10.09591675505,0.04214970143566306,-0.0054977871437821395,-0.039095375244672985,0.10654000000000001,0.4963000000000001,-0.46172,20.5,0,89,46,43,160,31.9301953125,107211,23.49294777149148,1000.9842077053013,0
2024-03-17T10:05:16,-0.2703889538,0.0029910282499999996,10.06720288385,0.04444044607890562,-0.008399397025222712,-0.04642575810304917,0.1029,0.48790000000000006,-0.44842000000000004,20.5,0,89,46,43,160,31.9301953125,107211,23.49294777149148,1000.9842077053013,0
2024-03-17T10:05:16,-0.25124637299999997,-0.0047856452,10.046863891749998,0.04306599929296009,-0.005803219762881146,-0.04382958084070761,0.1029,0.48790000000000006,-0.44842000000000004,20.5,0,89,46,43,160,31.9301953125,107211,23.49294777149148,1000.9842077053013,0
2024-03-17T10:05:16,-0.2500499617,-0.01256231865,10.097113166349997,0.043676864531158106,-0.0056505034533316425,-0.0435241482216086,0.10066000000000001,0.4974200000000001,-0.45542,20.5,0,89,46,43,160,31.938203125,107896,23.47732092975653,1000.9791705415134,0
2024-03-17T10:05:16,-0.23868405434999998,-0.01974078645,10.068997500799998,0.039706240482871004,-0.0019853120241435504,-0.04214970143566306,0.09954,0.4968600000000001,-0.44954,20.5,0,89,46,43,160,31.938203125,107896,23.47732092975653,1000.9791705415134,0
2024-03-17T10:05:16,-0.24346969954999997,-0.005982056499999999,10.08395264205,0.03924809155422249,-0.0035124751196385882,-0.048411070127192715,0.1029,0.49266000000000004,-0.46578,20.5,0,89,46,43,160,31.938203125,107896,23.47732092975653,1000.9791705415134,0
2024-03-17T10:05:16,-0.25064816735,0.007178467799999999,10.0701939121,0.04459316238845512,-0.005039638215133627,-0.0433714319120591,0.10738,0.49210000000000004,-0.4555600000000001,20.5,0,89,46,43,160,31.938203125,107896,23.47732092975653,1000.9791705415134,0
2024-03-17T10:05:16,-0.26021945775,-0.0035892338999999997,10.0941221381,0.03772092845872745,-0.0016798794050445422,-0.04566217655530165,0.10878000000000002,0.5010600000000001,-0.46438000000000007,21.5,0,89,46,43,160,31.938203125,107896,23.47732092975653,1000.9791705415134,0
2024-03-17T10:05:16,-0.23389840915,-0.028713871199999998,10.088140081599997,0.037110063220529434,-0.004123340357836604,-0.043982297150257116,0.10878000000000002,0.5010600000000001,-0.46438000000000007,21.5,0,89,46,43,160,31.938203125,107896,23.47732092975653,1000.9791705415134,0
2024-03-17T10:05:16,-0.2667997199,0.0023928226,10.050453125649998,0.04703662334124718,-0.0036651914291880926,-0.04596760917440065,0.10094000000000002,0.49238000000000004,-0.4502400000000001,21.5,0,89,46,43,160,31.938203125,107896,23.47732092975653,1000.9791705415134,0
