Timestamp,Accel_X,Accel_Y,Accel_Z,Gyro_X,Gyro_Y,Gyro_Z,Mag_X,Mag_Y,Mag_Z,LSM9DS1_Temp,Proximity,Color_R,Color_G,Color_B,Color_C,BME680_Temp,Gas,Humidity,Pressure,Switch_Pressed,GPS_Latitude,GPS_Longitude,GPS_Speed,GPS_Timestamp
2024-03-17T16:34:22,-1.2191431146999998,2.9886354273999993,9.3942215276,0.021532999646480044,0.020922134408282028,0.08659014751456869,0.06930000000000001,0.41146000000000005,-0.4590600000000001,12.5,0,0,0,0,0,33.574921875,507775,100,695.662002676745,0,40.689114,-73.99166,,20:34:20
2024-03-17T16:34:22,-1.2514462198,2.9952156895499997,9.3690968903,0.020158552860534508,0.02168571595602955,0.08521570072862314,0.07378,0.41650000000000004,-0.4531800000000001,12.5,0,0,0,0,0,33.574921875,507775,100,695.662002676745,0,40.689114,-73.99166,,20:34:20
2024-03-17T16:34:22,-1.23290184465,2.9874390161,9.3667040677,0.013286318930806834,0.022754730122876075,0.08811731061006371,0.07378,0.41650000000000004,-0.4531800000000001,12.5,0,0,0,0,0,33.574921875,507775,100,695.662002676745,0,40.689114,-73.99166,,20:34:20
2024-03-17T16:34:22,-1.2687941836499999,3.026920589,9.403792818,0.01756237559819294,0.018173240836390957,0.08643743120501918,0.0665,0.40866,-0.45416,12.5,0,0,0,0,0,33.574921875,507775,100,695.662002676745,0,40.689114,-73.99166,,20:34:20
2024-03-17T16:34:22,-1.24247313505,3.00478697995,9.47617570165,0.017409659288643436,0.020922134408282028,0.08582656596682116,0.06678,0.4081,-0.45822,12.5,0,0,0,0,0,33.574921875,507775,100,695.662002676745,0,40.689114,-73.99166,,20:34:20
2024-03-17T16:34:22,-1.1964112999999998,3.00359056865,9.42114078185,0.021532999646480044,0.020158552860534508,0.08735372906231621,0.06958000000000002,0.40362000000000003,-0.47306000000000004,12.5,0,0,0,0,0,19.5930859375,33622,21.04049851207009,999.1280632991162,0,40.689114,-73.99166,,20:34:20
2024-03-17T16:34:22,-1.0899306942999998,2.9970103064999996,9.44865824175,0.020769418098732523,0.02306016274197508,0.08582656596682116,0.07266000000000002,0.4083800000000001,-0.45738000000000006,12.5,0,0,0,0,0,19.5930859375,33622,21.04049851207009,999.1280632991162,0,40.689114,-73.99166,,20:34:20
2024-03-17T16:34:22,-1.2197413203499998,2.98205516525,9.44387259655,0.016340645121796914,0.019394971312786988,0.08750644537186571,0.07266000000000002,0.4083800000000001,-0.45738000000000006,12.5,0,0,0,0,0,19.5930859375,33622,21.04049851207009,999.1280632991162,0,40.689114,-73.99166,,20:34:20
2024-03-17T16:34:22,-1.22691978815,2.9814569596,9.517451891499999,0.019394971312786988,0.022143864884678056,0.08765916168141522,0.07182000000000001,0.41314000000000006,-0.45934,12.5,0,0,0,0,0,19.5930859375,33622,21.04049851207009,999.1280632991162,0,40.689114,-73.99166,,20:34:20
2024-03-17T16:34:22,-1.3782658175999998,3.0041887742999998,9.42114078185,0.017715091907742446,0.017409659288643436,0.08750644537186571,0.06566000000000001,0.41146000000000005,-0.46634000000000003,12.5,0,0,0,0,0,19.5930859375,33622,21.04049851207009,999.1280632991162,0,40.689114,-73.99166,0.12,20:34:20
2024-03-17T16:34:22,-1.20059873955,2.9856443991499995,9.4660062056,0.017715091907742446,0.019394971312786988,0.08811731061006371,0.07686000000000001,0.40558000000000005,-0.46088000000000007,12.5,0,0,0,0,0,19.8423046875,46102,21.101967235339117,999.1267574669056,0,40.689114,-73.99166,0.12,20:34:20
2024-03-17T16:34:22,-1.2221341429499997,2.9868408104499995,9.398408967149999,0.019547687622336492,0.020769418098732523,0.08933904108645975,0.0735,0.41706000000000004,-0.46816,12.5,0,0,0,0,0,19.8423046875,46102,21.101967235339117,999.1267574669056,0,40.68911,-73.991658,0.12,20:34:21
2024-03-17T16:34:22,-1.2227323486,2.9617161731499997,9.482755963799999,0.020005836550985007,0.01893682238413848,0.08827002691961322,0.06762,0.41314000000000006,-0.46872,12.5,0,0,0,0,0,19.8423046875,46102,21.101967235339117,999.1267574669056,0,40.68911,-73.991658,0.12,20:34:21
2024-03-17T16:34:22,-1.2693923892999999,3.0317062341999996,9.43190848355,0.016493361431346415,0.02168571595602955,0.08567384965727166,0.07098,0.41118000000000005,-0.46522,12.5,0,0,0,0,0,19.8423046875,46102,21.101967235339117,999.1267574669056,0,40.68911,-73.991658,0.12,20:34:21
2024-03-17T16:34:22,-1.26640136105,3.0221349437999994,9.393623321949999,0.018020524526841455,0.019853120241435502,0.08445211918087563,0.07686000000000001,0.41258000000000006,-0.47208000000000006,12.5,0,0,0,0,0,19.8423046875,46102,21.101967235339117,999.1267574669056,0,40.68911,-73.991658,0.14,20:34:21
2024-03-17T16:34:22,-1.19940232825,2.9898318387,9.4085784632,0.01756237559819294,0.02138028333693054,0.08781187799096472,0.07210000000000001,0.41678000000000004,-0.46102000000000004,12.5,0,0,0,0,0,20.2075390625,57902,21.144686311442236,999.134945795542,0,40.68911,-73.991658,0.14,20:34:21
2024-03-17T16:34:22,-1.2652049497499998,3.0185457098999997,9.411569491449999,0.016493361431346415,0.0238237442897226,0.08613199858592017,0.06426000000000001,0.41062000000000004,-0.48062000000000005,12.5,0,9231,8588,10246,23136,20.2075390625,57902,21.144686311442236,999.134945795542,0,40.689106,-73.991655,0.14,20:34:22
2024-03-17T16:34:22,-1.2071790017,2.979064137,9.443274390900001,0.02229658119422756,0.019394971312786988,0.08613199858592017,0.06734,0.41398,-0.4711,12.5,0,9231,8588,10246,23136,20.2075390625,57902,21.144686311442236,999.134945795542,0,40.689106,-73.991655,0.14,20:34:22
2024-03-17T16:34:22,-1.1682956344499997,3.00478697995,9.40439102365,0.020005836550985007,0.01664607774089592,0.0870482964432172,0.06958000000000002,0.41314000000000006,-0.47012000000000004,12.5,0,9231,8588,10246,23136,20.2075390625,57902,21.144686311442236,999.134945795542,0,40.689106,-73.991655,0.14,20:34:22
2024-03-17T16:34:22,-1.2580264819499998,2.9778677257000004,9.549156790949999,0.01786780821729195,0.025809056313866152,0.0872010127527667,0.06678,0.40698,-0.46088000000000007,12.5,0,9231,8588,10246,23136,20.2075390625,57902,21.144686311442236,999.134945795542,0,40.689106,-73.991655,0.12,20:34:22
2024-03-17T16:34:22,-1.2167502921,3.00837621385,9.49412187115,0.019700403931885997,0.016951510359994926,0.08613199858592017,0.06734,0.41678000000000004,-0.47586000000000006,12.5,0,9231,8588,10246,23136,20.596796875,68698,21.17863132945862,999.1429805124426,0,40.689106,-73.991655,0.12,20:34:22
2024-03-17T16:34:23,-1.2849457361999996,2.98803722175,9.4612205604,0.017715091907742446,0.02336559536107409,0.08903360846736075,0.06286000000000001,0.41650000000000004,-0.47516,12.5,0,9231,8588,10246,23136,20.596796875,68698,21.17863132945862,999.1429805124426,0,40.689101,-73.991658,0.12,20:34:23
2024-03-17T16:34:23,-1.2777672683999999,3.0005995404,9.4253282214,0.019547687622336492,0.018478673455489966,0.0870482964432172,0.06538000000000001,0.40418000000000004,-0.4690000000000001,12.5,0,9231,8588,10246,23136,20.596796875,68698,21.17863132945862,999.1429805124426,0,40.689101,-73.991658,0.12,20:34:23
2024-03-17T16:34:23,-1.2921242039999998,2.9647072013999995,9.530612415799999,0.023212879051524585,0.01618792881224741,0.08888089215781124,0.06902000000000001,0.41650000000000004,-0.46858000000000005,12.5,0,9231,8588,10246,23136,20.9712109375,78255,21.216979289578966,999.152606314514,0,40.689101,-73.991658,0.12,20:34:23
2024-03-17T16:34:23,-1.2215359372999999,3.0233313550999994,9.495916488099999,0.018020524526841455,0.020463985479633514,0.08521570072862314,0.0609,0.41930000000000006,-0.47320000000000007,12.5,0,9231,8588,10246,23136,20.9712109375,78255,21.216979289578966,999.152606314514,0,40.689101,-73.991658,0.19,20:34:23
2024-03-17T16:34:23,-1.20777720735,2.9976085121499993,9.582058101699998,0.023671027980173096,0.016951510359994926,0.08842274322916273,0.06902000000000001,0.40278,-0.46158000000000005,12.5,0,9231,8588,10246,23136,20.9712109375,78255,21.216979289578966,999.152606314514,0,40.689101,-73.991658,0.19,20:34:23
2024-03-17T16:34:23,-1.256231865,2.95334129405,9.5653083435,0.022449297503777065,0.021532999646480044,0.08872817584826173,0.07210000000000001,0.4151,-0.45976000000000006,12.5,0,9231,8588,10246,23136,20.9712109375,78255,21.216979289578966,999.152606314514,0,40.689098,-73.99166,0.19,20:34:24
2024-03-17T16:34:24,-1.2161520864499997,2.9724838748499995,9.4971128994,0.019089538693687978,0.024740042147019626,0.08536841703817265,0.0609,0.41790000000000005,-0.46802000000000005,12.5,0,9253,8608,10265,23189,21.3087109375,87236,21.22723047042146,999.1649739337076,0,40.689098,-73.99166,0.19,20:34:24
2024-03-17T16:34:24,-1.22572337685,3.0185457098999997,9.522835742349999,0.01863138976503947,0.021532999646480044,0.09040805525330628,0.06062000000000001,0.4142600000000001,-0.46984000000000004,12.5,0,9253,8608,10265,23189,21.3087109375,87236,21.22723047042146,999.1649739337076,0,40.689098,-73.99166,0.19,20:34:24
2024-03-17T16:34:24,-1.2406785180999997,3.0245277664,9.540781911849999,0.02229658119422756,0.020005836550985007,0.08796459430051423,0.06062000000000001,0.4142600000000001,-0.46984000000000004,12.5,0,9253,8608,10265,23189,21.3087109375,87236,21.22723047042146,999.1649739337076,0,40.689098,-73.99166,0.13,20:34:24
2024-03-17T16:34:24,-1.2029915621499998,2.9551359109999997,9.522835742349999,0.02260201381332657,0.018478673455489966,0.08643743120501918,0.05838,0.42126,-0.47642000000000007,12.5,0,9253,8608,10265,23189,21.3087109375,87236,21.22723047042146,999.1649739337076,0,40.689098,-73.99166,0.13,20:34:24
2024-03-17T16:34:24,-1.26400853845,3.0053851856,9.5150590689,0.020158552860534508,0.021991148575128558,0.08857545953871222,0.060340000000000005,0.41706000000000004,-0.4684400000000001,12.5,0,9253,8608,10265,23189,21.3087109375,87236,21.22723047042146,999.1649739337076,0,40.689093,-73.991663,0.13,20:34:25
2024-03-17T16:34:25,-1.2418749294,2.998206717799999,9.63170917065,0.03512475119638588,0.002901609881440573,-0.04046982203061852,0.06398000000000001,0.42042,-0.45122,12.5,0,9321,8665,10326,23351,20.9919140625,87146,20.99021243588784,999.1846989205719,0,40.689093,-73.991663,0.13,20:34:25
2024-03-17T16:34:25,-1.22572337685,2.9802605483,9.61974505765,0.04214970143566306,0.004886921905584123,-0.041386119887915546,0.06006,0.41454,-0.4625600000000001,12.5,0,9321,8665,10326,23351,20.9919140625,87146,20.99021243588784,999.1846989205719,0,40.689093,-73.991663,0.13,20:34:25
2024-03-17T16:34:25,-1.2191431146999998,2.9712874635499995,9.58265630735,0.03802636107782646,-0.0006108652381980154,-0.04474587869800463,0.06006,0.41454,-0.4984,12.5,0,9321,8665,10326,23351,20.9919140625,87146,20.99021243588784,999.1846989205719,0,40.689093,-73.991663,0.13,20:34:25
2024-03-17T16:34:25,-1.1820543644,3.00957262515,9.598209654249999,0.03726277953007894,0.0035124751196385882,-0.04321871560250959,0.0679,0.4148200000000001,-0.46970000000000006,12.5,0,9321,8665,10326,23351,20.9919140625,87146,20.99021243588784,999.1846989205719,0,40.689093,-73.991663,0.13,20:34:25
2024-03-17T16:34:25,-1.2239287599,2.97966234265,9.678369211349999,0.038331793696925465,0.004123340357836604,-0.043676864531158106,0.06426000000000001,0.41062000000000004,-0.45122,12.5,0,9321,8665,10326,23351,20.9919140625,87146,20.99021243588784,999.1846989205719,0,40.689093,-73.991663,0.13,20:34:25
2024-03-17T16:34:25,-1.2251251712,2.9766713144,9.5509514079,0.039706240482871004,0.00015271630954950385,-0.04489859500755413,0.0623,0.4123,-0.46676000000000006,12.5,0,9321,8665,10326,23351,20.6645703125,91394,20.820519992471997,999.1955435950721,0,40.689093,-73.991663,0.13,20:34:25
2024-03-17T16:34:25,-1.2131610581999999,2.98803722175,9.535996266649999,0.03481931857728687,0.0007635815477475193,-0.041386119887915546,0.06286000000000001,0.41202000000000005,-0.4601800000000001,12.5,0,9321,8665,10326,23351,20.6645703125,91394,20.820519992471997,999.1955435950721,0,40.689093,-73.991663,0.13,20:34:25
2024-03-17T16:34:25,-1.2394821068,2.98325157655,9.5724868113,0.038179077387375956,0.005345070834232635,-0.04016438941151951,0.07126,0.41902000000000006,-0.46438000000000007,12.5,0,9321,8665,10326,23351,20.6645703125,91394,20.820519992471997,999.1955435950721,0,40.689093,-73.991663,0.13,20:34:25
2024-03-17T16:34:25,-1.2957134379,2.9814569596,9.615557618099999,0.041386119887915546,0.003207042500539581,-0.039706240482871004,0.05642000000000001,0.41090000000000004,-0.46732000000000007,12.5,0,9321,8665,10326,23351,20.6645703125,91394,20.820519992471997,999.1955435950721,0,40.689093,-73.991663,0.48,20:34:25
2024-03-17T16:34:25,-1.20059873955,2.9886354273999993,9.57787066215,0.04046982203061852,0.003207042500539581,-0.041844268816564056,0.06258000000000001,0.41202000000000005,-0.45752000000000004,12.5,0,9321,8665,10326,23351,20.6645703125,91394,20.820519992471997,999.1955435950721,0,40.689093,-73.991663,0.48,20:34:25
2024-03-17T16:34:25,-1.23888390115,2.9850461934999997,9.638887638449999,0.038331793696925465,-0.0013744467859455349,-0.039858956792420505,0.0637,0.41818000000000005,-0.46396000000000004,12.5,0,9321,8665,10326,23351,20.6446484375,100686,20.85033147550938,999.17885590776,0,40.689091,-73.991663,0.48,20:34:26
2024-03-17T16:34:26,-1.20777720735,2.9617161731499997,9.5294160045,0.038179077387375956,0.00015271630954950385,-0.04276056667386108,0.07126,0.4089400000000001,-0.46704,12.5,0,9352,8694,10357,23420,20.8425,109935,20.877715909808234,999.1790273430473,0,40.689091,-73.991663,0.48,20:34:26
2024-03-17T16:34:26,-1.23290184465,3.0077780082,9.544371145749999,0.03634648167278191,0.0022907446432425577,-0.04245513405476207,0.06706000000000001,0.41090000000000004,-0.46634000000000003,12.5,0,9352,8694,10357,23420,20.8425,109935,20.877715909808234,999.1790273430473,0,40.689091,-73.991663,0.48,20:34:26
2024-03-17T16:34:26,-1.1629117836,2.9587251449000003,9.6012006825,0.039706240482871004,0.004581489286485115,-0.04321871560250959,0.0623,0.41174000000000005,-0.46424000000000004,12.5,0,9352,8694,10357,23420,20.8425,109935,20.877715909808234,999.1790273430473,0,40.689091,-73.991663,0.15,20:34:26
2024-03-17T16:34:26,-1.1820543644,3.00119774605,9.57667425085,0.04291328298341058,0.002138028333693054,-0.04291328298341058,0.06874000000000001,0.40922000000000003,-0.46466,12.5,0,9352,8694,10357,23420,20.8425,109935,20.877715909808234,999.1790273430473,0,40.689091,-73.991663,0.15,20:34:26
2024-03-17T16:34:26,-1.23050902205,3.02751879465,9.540781911849999,0.03756821214917795,0.0038179077387375964,-0.04153883619746505,0.06594000000000001,0.40922000000000003,-0.4631200000000001,12.5,0,9352,8694,10357,23420,20.8425,109935,20.877715909808234,999.1790273430473,0,40.68909,-73.991661,0.15,20:34:27
2024-03-17T16:34:27,-1.2113664412499998,2.9736802861499996,9.614361206799998,0.040317105721069016,0.001069014166846527,-0.04444044607890562,0.05782000000000001,0.40978000000000003,-0.4459,12.5,0,9437,8761,10428,23609,20.733125,110078,20.747133391024548,999.1981085948494,0,40.68909,-73.991661,0.15,20:34:27
2024-03-17T16:34:27,-1.1808579531,3.02871520595,9.585049129949999,0.04001167310197001,0.0009162978572970231,-0.039553524173321496,0.06594000000000001,0.41846000000000005,-0.45752000000000004,12.5,0,9437,8761,10428,23609,20.733125,110078,20.747133391024548,999.1981085948494,0,40.68909,-73.991661,0.15,20:34:27
2024-03-17T16:34:27,-1.2131610581999999,2.9527430884,9.579665279099999,0.038637226316024474,0.0012217304763960308,-0.04550946024575215,0.06678,0.41398,-0.46102000000000004,13.5,0,9437,8761,10428,23609,20.733125,110078,20.747133391024548,999.1981085948494,0,40.68909,-73.991661,0.13,20:34:27
2024-03-17T16:34:27,-1.2370892841999999,2.9898318387,9.6490571345,0.0435241482216086,0.0013744467859455349,-0.04489859500755413,0.06426000000000001,0.41818000000000005,-0.45794000000000007,12.5,0,9437,8761,10428,23609,20.733125,110078,20.747133391024548,999.1981085948494,0,40.68909,-73.991661,0.13,20:34:27
2024-03-17T16:34:27,-1.1551351101499998,2.9970103064999996,9.6957171752,0.04260785036431157,-0.0003054326190990077,-0.04444044607890562,0.07014,0.41258000000000006,-0.45696000000000003,12.5,0,9437,8761,10428,23609,20.733125,110078,20.747133391024548,999.1981085948494,0,40.689088,-73.991658,0.13,20:34:28
2024-03-17T16:34:28,-1.19820591695,2.9928228669499997,9.647262517549999,0.039858956792420505,0.003207042500539581,-0.04413501345980661,0.0567,0.41818000000000005,-0.47880000000000006,13.5,0,9489,8800,10472,23720,20.495234375,110511,20.59366656441832,999.2030020306712,0,40.689088,-73.991658,0.13,20:34:28
2024-03-17T16:34:28,-1.2550354536999997,2.9563323222999998,9.56949578305,0.038789942625573975,0.0012217304763960308,-0.04520402762665314,0.05782000000000001,0.40586,-0.46928000000000003,12.5,0,9489,8800,10472,23720,20.495234375,110511,20.59366656441832,999.2030020306712,0,40.689088,-73.991658,0.13,20:34:28
2024-03-17T16:34:28,-1.2382856955,3.0053851856,9.589236569499999,0.038789942625573975,0.0016798794050445422,-0.04703662334124718,0.05782000000000001,0.40586,-0.46928000000000003,12.5,0,9489,8800,10472,23720,20.495234375,110511,20.59366656441832,999.2030020306712,0,40.689088,-73.991658,0.2,20:34:28
2024-03-17T16:34:28,-1.2299108163999999,2.9521448827499994,9.518648302799999,0.039553524173321496,0.0027488935718910697,-0.041691552507014555,0.0665,0.40866,-0.46228,12.5,0,9489,8800,10472,23720,20.495234375,110511,20.59366656441832,999.2030020306712,0,40.689088,-73.991658,0.2,20:34:28
2024-03-17T16:34:28,-1.23050902205,2.9976085121499993,9.5521478192,0.04153883619746505,-0.0016798794050445422,-0.04321871560250959,0.05754000000000001,0.41314000000000006,-0.46130000000000004,12.5,0,9489,8800,10472,23720,20.495234375,110511,20.59366656441832,999.2030020306712,0,40.689086,-73.991664,0.2,20:34:29
2024-03-17T16:34:29,-1.2017951508499998,2.9808587539499998,9.59103118645,0.04046982203061852,0.003054326190990077,-0.04291328298341058,0.06538000000000001,0.41118000000000005,-0.47796000000000005,12.5,0,9538,8840,10513,23823,20.289765625,111977,20.473353454220224,999.2165513098918,0,40.689086,-73.991664,0.2,20:34:29
2024-03-17T16:34:29,-1.21495567515,2.998206717799999,9.5880401582,0.03802636107782646,0.0022907446432425577,-0.04428772976935611,0.06874000000000001,0.40922000000000003,-0.4660600000000001,12.5,0,9538,8840,10513,23823,20.289765625,111977,20.473353454220224,999.2165513098918,0,40.689086,-73.991664,0.2,20:34:29
2024-03-17T16:34:29,-1.2179467034,2.9772695200499997,9.654440985349998,0.03588833274413341,0.0003054326190990077,-0.041844268816564056,0.06762,0.41762000000000005,-0.45990000000000003,13.5,0,9538,8840,10513,23823,20.289765625,111977,20.473353454220224,999.2165513098918,0,40.689086,-73.991664,0.66,20:34:29
2024-03-17T16:34:29,-1.2418749294,2.99880492345,9.6897351187,0.039706240482871004,0.0022907446432425577,-0.04016438941151951,0.06566000000000001,0.41650000000000004,-0.46634000000000003,13.5,0,9581,8871,10542,23909,20.289765625,111977,20.473353454220224,999.2165513098918,0,40.689086,-73.991664,0.66,20:34:29
2024-03-17T16:34:29,-1.2514462198,2.9724838748499995,9.587441952549998,0.03787364476827696,0.0022907446432425577,-0.04153883619746505,0.05978000000000001,0.40782000000000007,-0.47166,12.5,0,9581,8871,10542,23909,20.289765625,111977,20.473353454220224,999.2165513098918,0,40.689086,-73.991664,0.66,20:34:30
2024-03-17T16:34:30,-1.1676974288,2.9826533709,9.619146851999998,0.040622538340168025,0.0033597588100890844,-0.04413501345980661,0.06846000000000001,0.41314000000000006,-0.46536000000000005,13.5,0,9619,8902,10570,23989,20.1258984375,114952,20.386559666407834,999.2256093791948,0,40.689086,-73.991664,0.66,20:34:30
2024-03-17T16:34:30,-1.2693923892999999,2.9946174838999995,9.69392255825,0.04016438941151951,0.0038179077387375964,-0.0435241482216086,0.06062000000000001,0.41846000000000005,-0.46270000000000006,12.5,0,9619,8902,10570,23989,20.1258984375,114952,20.386559666407834,999.2256093791948,0,40.689086,-73.991664,0.66,20:34:30
2024-03-17T16:34:30,-1.2729816231999997,2.9706892578999997,9.570093988699998,0.03924809155422249,0.003970624048287101,-0.04444044607890562,0.05978000000000001,0.41566000000000003,-0.4678800000000001,13.5,0,9619,8902,10570,23989,20.1258984375,114952,20.386559666407834,999.2256093791948,0,40.689086,-73.991664,0.66,20:34:30
2024-03-17T16:34:30,-1.2113664412499998,2.9682964353,9.579665279099999,0.038942658935123484,0.0012217304763960308,-0.04092797095926703,0.05782000000000001,0.41594000000000003,-0.45892,12.5,0,9619,8902,10570,23989,20.1258984375,114952,20.386559666407834,999.2256093791948,0,40.689086,-73.991664,0.66,20:34:30
2024-03-17T16:34:30,-1.25204442545,2.9862426047999997,9.6000042712,0.03405573702953936,0.0036651914291880926,-0.0435241482216086,0.0665,0.41594000000000003,-0.46634000000000003,13.5,0,9619,8902,10570,23989,20.1258984375,114952,20.386559666407834,999.2256093791948,0,40.689086,-73.991664,0.66,20:34:30
2024-03-17T16:34:30,-1.3010972887499999,3.00957262515,9.628718142399999,0.039553524173321496,0.0019853120241435504,-0.04382958084070761,0.0623,0.40670000000000006,-0.46032000000000006,12.5,0,9619,8902,10570,23989,19.9969921875,117514,20.33790145949646,999.228226625527,0,40.689086,-73.991664,0.66,20:34:30
2024-03-17T16:34:30,-1.1988041226,2.9958138951999995,9.518648302799999,0.04016438941151951,0.0,-0.04321871560250959,0.07014,0.41174000000000005,-0.45948,12.5,0,9619,8902,10570,23989,19.9969921875,117514,20.33790145949646,999.228226625527,0,40.689086,-73.991664,0.66,20:34:30
2024-03-17T16:34:30,-1.2107682356,2.9856443991499995,9.607182738999999,0.03741549583962844,-0.0027488935718910697,-0.043982297150257116,0.060340000000000005,0.41706000000000004,-0.45332000000000006,12.5,0,9619,8902,10570,23989,19.9969921875,117514,20.33790145949646,999.228226625527,0,40.689086,-73.991664,0.34,20:34:30
2024-03-17T16:34:30,-1.2335000503,2.97009105225,9.6083791503,0.03695734691097993,-0.00015271630954950385,-0.04474587869800463,0.06762,0.4151,-0.45500000000000007,13.5,0,9619,8902,10570,23989,19.9969921875,117514,20.33790145949646,999.228226625527,0,40.689086,-73.991664,0.34,20:34:30
2024-03-17T16:34:30,-1.25204442545,2.9952156895499997,9.607182738999999,0.039400807863771994,0.004123340357836604,-0.04245513405476207,0.06762,0.4151,-0.45500000000000007,12.5,0,9619,8902,10570,23989,19.9969921875,117514,20.33790145949646,999.228226625527,0,40.689085,-73.991663,0.34,20:34:31
2024-03-17T16:34:31,-1.2442677519999998,2.9916264556499996,9.559326287,0.03665191429188092,0.0025961772623415654,-0.04123340357836604,0.06286000000000001,0.4083800000000001,-0.46284000000000003,12.5,0,9659,8932,10596,24074,20.13,127648,20.38165703921488,999.2040656928433,0,40.689085,-73.991663,0.34,20:34:31
2024-03-17T16:34:31,-1.1473584366999998,3.00359056865,9.5485585853,0.038484510006474966,0.005803219762881146,-0.04123340357836604,0.0609,0.4148200000000001,-0.46228,13.5,0,9659,8932,10596,24074,20.13,127648,20.38165703921488,999.2040656928433,0,40.689085,-73.991663,0.34,20:34:31
2024-03-17T16:34:31,-1.232303639,2.9671000239999996,9.57188860565,0.0355829001250344,-0.038789942625573975,-0.04428772976935611,0.05922000000000001,0.41118000000000005,-0.45892,13.5,0,9659,8932,10596,24074,20.13,127648,20.38165703921488,999.2040656928433,0,40.689085,-73.991663,0.35,20:34:31
2024-03-17T16:34:31,-1.2514462198,2.9587251449000003,9.631110965,0.04001167310197001,0.00045814892864851157,-0.04245513405476207,0.06314,0.40614000000000006,-0.46130000000000004,13.5,0,9659,8932,10596,24074,20.13,127648,20.38165703921488,999.2040656928433,0,40.689085,-73.991663,0.35,20:34:31
2024-03-17T16:34:31,-1.2143574695,2.9886354273999993,9.6023970938,0.039553524173321496,0.0022907446432425577,-0.04214970143566306,0.06314,0.40614000000000006,-0.46130000000000004,13.5,0,9659,8932,10596,24074,20.13,127648,20.38165703921488,999.2040656928433,0,40.689086,-73.991664,0.35,20:34:32
2024-03-17T16:34:32,-1.1641081949,3.0185457098999997,9.595218626,0.038789942625573975,-0.0018325957145940463,-0.04459316238845512,0.06398000000000001,0.40866,-0.46298,12.5,0,9760,9006,10674,24283,20.073359375,127071,20.29610441269403,999.2102315164412,0,40.689086,-73.991664,0.35,20:34:32
2024-03-17T16:34:32,-1.2442677519999998,3.0149564759999996,9.800403163949998,0.03634648167278191,-0.0009162978572970231,-0.04596760917440065,0.06538000000000001,0.41090000000000004,-0.46214000000000005,13.5,0,9760,9006,10674,24283,20.073359375,127071,20.29610441269403,999.2102315164412,0,40.689086,-73.991664,0.35,20:34:32
2024-03-17T16:34:32,-1.3555340028999998,3.0107690364499997,9.62333429155,0.04077525464971753,0.0006108652381980154,-0.04459316238845512,0.06062000000000001,0.41174000000000005,-0.46326000000000006,12.5,0,9760,9006,10674,24283,20.073359375,127071,20.29610441269403,999.2102315164412,0,40.689086,-73.991664,0.14,20:34:32
2024-03-17T16:34:32,-1.2239287599,2.9748766974499996,9.597611448599999,0.03741549583962844,0.0,-0.043676864531158106,0.06958000000000002,0.41258000000000006,-0.4713800000000001,12.5,0,9760,9006,10674,24283,20.073359375,127071,20.29610441269403,999.2102315164412,0,40.689086,-73.991664,0.14,20:34:32
2024-03-17T16:34:32,-1.22333055425,2.99102825,9.582058101699998,0.041844268816564056,0.0022907446432425577,-0.043982297150257116,0.0707,0.41454,-0.46970000000000006,13.5,0,9760,9006,10674,24283,20.073359375,127071,20.29610441269403,999.2102315164412,0,40.68909,-73.991663,0.14,20:34:33
2024-03-17T16:34:33,-1.22572337685,2.9808587539499998,9.597611448599999,0.039706240482871004,0.0033597588100890844,-0.04214970143566306,0.06342,0.41706000000000004,-0.4555600000000001,12.5,0,9834,9061,10727,24441,19.9743359375,126880,20.22357698647064,999.212316200019,0,40.68909,-73.991663,0.14,20:34:33
2024-03-17T16:34:33,-1.1353943237,2.9976085121499993,9.620941468949999,0.038484510006474966,0.0015271630954950385,-0.04260785036431157,0.06006,0.41874000000000006,-0.45822,13.5,0,9834,9061,10727,24441,19.9743359375,126880,20.22357698647064,999.212316200019,0,40.68909,-73.991663,0.14,20:34:33
2024-03-17T16:34:33,-1.1617153723,3.00359056865,9.6981099978,0.036804630601430424,0.0025961772623415654,-0.04153883619746505,0.058660000000000004,0.41594000000000003,-0.44702000000000003,12.5,0,9834,9061,10727,24441,19.9743359375,126880,20.22357698647064,999.212316200019,0,40.68909,-73.991663,0.16,20:34:33
2024-03-17T16:34:33,-1.2011969452,2.99102825,9.560522698299998,0.04459316238845512,0.0036651914291880926,-0.04535674393620265,0.06706000000000001,0.42294000000000004,-0.46340000000000003,12.5,0,9834,9061,10727,24441,19.9743359375,126880,20.22357698647064,999.212316200019,0,40.68909,-73.991663,0.16,20:34:33
2024-03-17T16:34:33,-1.19342027175,2.9850461934999997,9.51685368585,0.03741549583962844,0.0006108652381980154,-0.04474587869800463,0.06706000000000001,0.42294000000000004,-0.46340000000000003,13.5,0,9834,9061,10727,24441,19.9743359375,126880,20.22357698647064,999.212316200019,0,40.68909,-73.991666,0.16,20:34:34
2024-03-17T16:34:34,-1.2382856955,2.976073108749999,9.633503787599999,0.03726277953007894,0.0012217304763960308,-0.04459316238845512,0.06594000000000001,0.42630000000000007,-0.45500000000000007,12.5,0,9959,9162,10821,24696,19.8868359375,128035,20.172314624189934,999.2138084023555,0,40.68909,-73.991666,0.16,20:34:34
2024-03-17T16:34:34,-1.2723834175499997,2.98923363305,9.588638363849999,0.03436116964863837,0.0003054326190990077,-0.04505131131710364,0.06706000000000001,0.4151,-0.45276000000000005,13.5,0,9959,9162,10821,24696,19.8868359375,128035,20.172314624189934,999.2138084023555,0,40.68909,-73.991666,0.16,20:34:34
2024-03-17T16:34:34,-1.2418749294,2.97009105225,9.61854864635,0.038484510006474966,0.038637226316024474,-0.04214970143566306,0.06706000000000001,0.4151,-0.45276000000000005,13.5,0,9959,9162,10821,24696,19.8868359375,128035,20.172314624189934,999.2138084023555,0,40.68909,-73.991666,0.18,20:34:34
2024-03-17T16:34:34,-1.1682956344499997,2.9922246613,9.598807859899999,0.0435241482216086,-0.002138028333693054,-0.04306599929296009,0.07154,0.41398,-0.46620000000000006,13.5,0,9959,9162,10821,24696,19.8868359375,128035,20.172314624189934,999.2138084023555,0,40.68909,-73.991666,0.18,20:34:34
2024-03-17T16:34:34,-1.2406785180999997,2.9886354273999993,9.61017376725,0.039553524173321496,0.0036651914291880926,-0.04489859500755413,0.0623,0.42014000000000007,-0.46704,13.5,0,9959,9162,10821,24696,19.8868359375,128035,20.172314624189934,999.2138084023555,0,40.689093,-73.991668,0.18,20:34:35
2024-03-17T16:34:35,-1.3674981158999997,3.00957262515,9.58265630735,0.039553524173321496,0.0018325957145940463,-0.04444044607890562,0.06986000000000002,0.41846000000000005,-0.47166,13.5,0,10014,9209,10868,24824,19.8149609375,129310,20.132253301125356,999.2214394579745,0,40.689093,-73.991668,0.18,20:34:35
2024-03-17T16:34:35,-1.2723834175499997,2.9676982296499994,9.5916293921,0.036804630601430424,0.0018325957145940463,-0.04673119072214818,0.05978000000000001,0.41594000000000003,-0.46830000000000005,12.5,0,10014,9209,10868,24824,19.8149609375,129310,20.132253301125356,999.2214394579745,0,40.689093,-73.991668,0.18,20:34:35
2024-03-17T16:34:35,-1.2000005339,3.00957262515,9.57308501695,0.039095375244672985,0.0003054326190990077,-0.04123340357836604,0.05978000000000001,0.41594000000000003,-0.46830000000000005,13.5,0,10014,9209,10868,24824,19.8149609375,129310,20.132253301125356,999.2214394579745,0,40.689093,-73.991668,0.18,20:34:35
2024-03-17T16:34:35,-1.3016954943999999,2.9850461934999997,9.585049129949999,0.040317105721069016,0.004886921905584123,-0.041691552507014555,0.06566000000000001,0.42434000000000005,-0.46242,12.5,0,10014,9209,10868,24824,19.8149609375,129310,20.132253301125356,999.2214394579745,0,40.689093,-73.991668,0.18,20:34:35
2024-03-17T16:34:35,-1.2023933564999998,2.97966234265,9.67597638875,0.03772092845872745,0.0,-0.04230241774521256,0.0623,0.41594000000000003,-0.46984000000000004,13.5,0,10014,9209,10868,24824,19.8149609375,129310,20.132253301125356,999.2214394579745,0,40.689093,-73.991668,0.18,20:34:35
2024-03-17T16:34:35,-1.08215402085,2.976073108749999,9.582058101699998,0.040317105721069016,0.0025961772623415654,-0.04306599929296009,0.06958000000000002,0.41734000000000004,-0.47068000000000004,13.5,0,10014,9209,10868,24824,19.758125,130208,20.098211465026615,999.2201415630651,0,40.689093,-73.991668,0.18,20:34:35
2024-03-17T16:34:35,-1.2370892841999999,2.95573411665,9.5617191096,0.04077525464971753,-0.002138028333693054,-0.04153883619746505,0.06398000000000001,0.41958000000000006,-0.45402000000000003,13.5,0,10014,9209,10868,24824,19.758125,130208,20.098211465026615,999.2201415630651,0,40.689093,-73.991668,0.18,20:34:35
2024-03-17T16:34:35,-1.2508480141499998,2.9802605483,9.59103118645,0.039706240482871004,-0.0024434609527920616,-0.0433714319120591,0.06930000000000001,0.42042,-0.4684400000000001,13.5,0,10014,9209,10868,24824,19.758125,130208,20.098211465026615,999.2201415630651,0,40.689093,-73.991668,0.18,20:34:35
2024-03-17T16:34:35,-1.2358928728999998,2.99880492345,9.627521731099998,0.04077525464971753,0.0006108652381980154,-0.04214970143566306,0.06846000000000001,0.4148200000000001,-0.45304,13.5,0,10014,9209,10868,24824,19.758125,130208,20.098211465026615,999.2201415630651,0,40.689093,-73.991668,0.39,20:34:35
2024-03-17T16:34:35,-1.2681959779999998,2.9766713144,9.6095755616,0.03634648167278191,0.0012217304763960308,-0.04413501345980661,0.060340000000000005,0.41762000000000005,-0.46732000000000007,12.5,0,10014,9209,10868,24824,19.758125,130208,20.098211465026615,999.2201415630651,0,40.689093,-73.991668,0.39,20:34:35
2024-03-17T16:34:35,-1.1820543644,3.00239415735,9.634101993249999,0.038637226316024474,-0.0013744467859455349,-0.04520402762665314,0.06398000000000001,0.41678000000000004,-0.47796000000000005,13.5,0,10014,9209,10868,24824,19.9466015625,140158,20.160379310434827,999.200448814674,0,40.689096,-73.991668,0.39,20:34:36
2024-03-17T16:34:36,-1.22572337685,3.0203403268499995,9.589236569499999,0.04123340357836604,0.0006108652381980154,-0.04321871560250959,0.03934,0.41678000000000004,-0.46858000000000005,13.5,0,10075,9259,10917,24962,20.303046875,147380,20.22213397347621,999.1941254537928,0,40.689096,-73.991668,0.39,20:34:36
2024-03-17T16:34:36,-1.2293126107499999,2.9772695200499997,9.530014210149998,0.037110063220529434,0.001069014166846527,-0.04321871560250959,0.06566000000000001,0.42042,-0.4620000000000001,13.5,0,10075,9259,10917,24962,20.303046875,147380,20.22213397347621,999.1941254537928,0,40.689096,-73.991668,0.39,20:34:36
2024-03-17T16:34:36,-1.2490533971999997,2.9473592375499993,9.56471013785,0.03588833274413341,0.002138028333693054,-0.04092797095926703,0.06566000000000001,0.42042,-0.4620000000000001,13.5,0,10075,9259,10917,24962,20.303046875,147380,20.22213397347621,999.1941254537928,0,40.689096,-73.991668,0.2,20:34:36
2024-03-17T16:34:36,-1.21495567515,2.9958138951999995,9.605388122049998,0.039095375244672985,0.002138028333693054,-0.04245513405476207,0.06622000000000001,0.41622000000000003,-0.46536000000000005,13.5,0,10142,9309,10969,25100,20.303046875,147380,20.22213397347621,999.1941254537928,0,40.689096,-73.991668,0.2,20:34:36
2024-03-17T16:34:36,-1.2442677519999998,2.976073108749999,9.637691227149999,0.03695734691097993,0.0018325957145940463,-0.04092797095926703,0.06146000000000001,0.41790000000000005,-0.46564000000000005,13.5,0,10142,9309,10969,25100,20.303046875,147380,20.22213397347621,999.1941254537928,0,40.689098,-73.991666,0.2,20:34:37
2024-03-17T16:34:37,-1.1772687192,2.9970103064999996,9.5007021333,0.04046982203061852,0.0018325957145940463,-0.041691552507014555,0.06566000000000001,0.4142600000000001,-0.45472,13.5,0,10202,9358,11018,25228,20.3165234375,144478,20.12534345729463,999.2091182108862,0,40.689098,-73.991666,0.2,20:34:37
2024-03-17T16:34:37,-1.2203395259999998,2.9736802861499996,9.64965534015,0.038331793696925465,0.00015271630954950385,-0.04291328298341058,0.060340000000000005,0.41342,-0.46004,13.5,0,10202,9358,11018,25228,20.3165234375,144478,20.12534345729463,999.2091182108862,0,40.689098,-73.991666,0.2,20:34:37
2024-03-17T16:34:37,-1.2717852119,2.9850461934999997,9.620941468949999,0.04016438941151951,0.0024434609527920616,-0.04123340357836604,0.060340000000000005,0.41342,-0.46004,13.5,0,10202,9358,11018,25228,20.3165234375,144478,20.12534345729463,999.2091182108862,0,40.689098,-73.991666,0.26,20:34:37
2024-03-17T16:34:37,-1.1820543644,3.0017959517,9.580263484749999,0.039858956792420505,0.0019853120241435504,-0.043676864531158106,0.05922000000000001,0.40558000000000005,-0.4502400000000001,13.5,0,10202,9358,11018,25228,20.3165234375,144478,20.12534345729463,999.2091182108862,0,40.689098,-73.991666,0.26,20:34:37
2024-03-17T16:34:37,-1.2197413203499998,2.9922246613,9.698708203449998,0.038942658935123484,-0.0007635815477475193,-0.04444044607890562,0.05754000000000001,0.41202000000000005,-0.4537400000000001,13.5,0,10202,9358,11018,25228,20.3165234375,144478,20.12534345729463,999.2091182108862,0,40.689101,-73.991666,0.26,20:34:38
2024-03-17T16:34:38,-1.1676974288,3.0059833912499996,9.5365944723,0.036499197982331415,0.0038179077387375964,-0.038789942625573975,0.055020000000000006,0.41006000000000004,-0.45822,13.5,0,10263,9404,11065,25362,20.181953125,141926,20.03547307802484,999.2167056870056,0,40.689101,-73.991666,0.26,20:34:38
2024-03-17T16:34:38,-1.2143574695,3.0352954680999997,9.63529840455,0.038331793696925465,0.0019853120241435504,-0.04291328298341058,0.0609,0.41762000000000005,-0.45570000000000005,12.5,0,10263,9404,11065,25362,20.181953125,141926,20.03547307802484,999.2167056870056,0,40.689101,-73.991666,0.26,20:34:38
2024-03-17T16:34:38,-1.1688938401,3.0125636533999995,9.52881779885,0.04077525464971753,0.001069014166846527,-0.04321871560250959,0.06146000000000001,0.41062000000000004,-0.45570000000000005,13.5,0,10263,9404,11065,25362,20.181953125,141926,20.03547307802484,999.2167056870056,0,40.689101,-73.991666,0.24,20:34:38
2024-03-17T16:34:38,-1.2047861791,3.0293134116,9.5042913672,0.037110063220529434,0.002138028333693054,-0.04153883619746505,0.062020000000000006,0.41622000000000003,-0.4555600000000001,12.5,0,10263,9404,11065,25362,20.181953125,141926,20.03547307802484,999.2167056870056,0,40.689101,-73.991666,0.24,20:34:38
2024-03-17T16:34:38,-1.2047861791,2.9952156895499997,9.52881779885,0.03543018381548489,0.003054326190990077,-0.04230241774521256,0.05698,0.41622000000000003,-0.45444000000000007,13.5,0,10263,9404,11065,25362,20.181953125,141926,20.03547307802484,999.2167056870056,0,40.689103,-73.991671,0.24,20:34:39
2024-03-17T16:34:39,-1.23290184465,2.9300112737000004,9.6095755616,0.04153883619746505,0.0003054326190990077,-0.041080687268816536,0.06174000000000001,0.41006000000000004,-0.46046000000000004,13.5,0,10379,9490,11158,25630,20.0544140625,139925,19.971747420121623,999.2198294025035,0,40.689103,-73.991671,0.24,20:34:39
2024-03-17T16:34:39,-1.20658079605,2.98803722175,9.616155823749999,0.03787364476827696,0.0012217304763960308,-0.04413501345980661,0.0637,0.41314000000000006,-0.46592000000000006,13.5,0,10379,9490,11158,25630,20.0544140625,139925,19.971747420121623,999.2198294025035,0,40.689103,-73.991671,0.24,20:34:39
2024-03-17T16:34:39,-1.2125628525499998,2.98325157655,9.6502535458,0.04214970143566306,0.002901609881440573,-0.041996985126113565,0.0637,0.41314000000000006,-0.46592000000000006,13.5,0,10379,9490,11158,25630,20.0544140625,139925,19.971747420121623,999.2198294025035,0,40.689103,-73.991671,0.19,20:34:39
2024-03-17T16:34:39,-1.2538390423999999,2.9922246613,9.6358966102,0.037110063220529434,0.001069014166846527,-0.04092797095926703,0.06062000000000001,0.4148200000000001,-0.4625600000000001,13.5,0,10379,9490,11158,25630,20.0544140625,139925,19.971747420121623,999.2198294025035,0,40.689103,-73.991671,0.19,20:34:39
2024-03-17T16:34:39,-1.2610175101999996,3.00119774605,9.588638363849999,0.039706240482871004,0.004886921905584123,-0.04230241774521256,0.06006,0.42602000000000007,-0.46886000000000005,13.5,0,10379,9490,11158,25630,20.0544140625,139925,19.971747420121623,999.2198294025035,0,40.689103,-73.991676,0.19,20:34:40
2024-03-17T16:34:40,-1.26400853845,2.9724838748499995,9.598807859899999,0.038637226316024474,-0.0003054326190990077,-0.04214970143566306,0.0707,0.41818000000000005,-0.46074000000000004,12.5,0,10438,9532,11202,25751,19.9471875,139694,19.92973992769887,999.2314250633594,0,40.689103,-73.991676,0.19,20:34:40
2024-03-17T16:34:40,-1.1964112999999998,3.0496524037,9.628718142399999,0.04001167310197001,0.0,-0.040317105721069016,0.06734,0.4123,-0.46130000000000004,12.5,0,10438,9532,11202,25751,19.9471875,139694,19.92973992769887,999.2314250633594,0,40.689103,-73.991676,0.19,20:34:40
2024-03-17T16:34:40,-1.2155538808,3.0161528872999996,9.5509514079,0.041080687268816536,0.00045814892864851157,-0.0435241482216086,0.06930000000000001,0.4148200000000001,-0.46242,13.5,0,10438,9532,11202,25751,19.9471875,139694,19.92973992769887,999.2314250633594,0,40.689103,-73.991676,0.19,20:34:40
2024-03-17T16:34:40,-1.2125628525499998,3.03828649635,9.56351372655,0.041691552507014555,0.0012217304763960308,-0.04535674393620265,0.0679,0.41314000000000006,-0.47474000000000005,13.5,0,10438,9532,11202,25751,19.9471875,139694,19.92973992769887,999.2314250633594,0,40.689103,-73.991676,0.19,20:34:40
2024-03-17T16:34:40,-1.2346964615999998,3.00478697995,9.633503787599999,0.03924809155422249,0.003970624048287101,-0.04413501345980661,0.07126,0.4123,-0.46102000000000004,13.5,0,10438,9532,11202,25751,19.9471875,139694,19.92973992769887,999.2314250633594,0,40.689103,-73.991676,0.19,20:34:40
2024-03-17T16:34:40,-1.22572337685,2.9946174838999995,9.60060247685,0.03665191429188092,0.001069014166846527,-0.04321871560250959,0.06062000000000001,0.41622000000000003,-0.46452000000000004,12.5,0,10438,9532,11202,25751,19.8633984375,140977,19.89422732280317,999.2319199848466,0,40.689103,-73.991676,0.19,20:34:40
2024-03-17T16:34:40,-1.2000005339,2.98803722175,9.798010341349999,0.03741549583962844,0.003054326190990077,-0.04505131131710364,0.06678,0.42434000000000005,-0.45654,13.5,0,10438,9532,11202,25751,19.8633984375,140977,19.89422732280317,999.2319199848466,0,40.689103,-73.991676,0.19,20:34:40
2024-03-17T16:34:40,-1.24008031245,2.9754749030999994,9.55035320225,0.040317105721069016,-0.0025961772623415654,-0.0435241482216086,0.06314,0.42518000000000006,-0.4660600000000001,12.5,0,10438,9532,11202,25751,19.8633984375,140977,19.89422732280317,999.2319199848466,0,40.689103,-73.991676,0.19,20:34:40
2024-03-17T16:34:40,-1.2185449090499998,2.9928228669499997,9.57667425085,0.04276056667386108,0.0019853120241435504,-0.041844268816564056,0.05922000000000001,0.41986,-0.45682000000000006,13.5,0,10438,9532,11202,25751,19.8633984375,140977,19.89422732280317,999.2319199848466,0,40.689103,-73.991676,0.26,20:34:40
2024-03-17T16:34:40,-1.2586246875999998,2.998206717799999,9.6012006825,0.039858956792420505,0.005192354524683131,-0.04550946024575215,0.06734,0.41174000000000005,-0.47026000000000007,13.5,0,10488,9570,11244,25866,19.8633984375,140977,19.89422732280317,999.2319199848466,0,40.689103,-73.991676,0.26,20:34:40
2024-03-17T16:34:40,-1.2275179938,2.9766713144,9.585049129949999,0.0435241482216086,0.0009162978572970231,-0.04535674393620265,0.06734,0.41174000000000005,-0.47026000000000007,13.5,0,10488,9570,11244,25866,20.0294140625,151210,19.960064891008706,999.2142132486771,0,40.689103,-73.99168,0.26,20:34:41
2024-03-17T16:34:41,-1.1676974288,2.9647072013999995,9.6000042712,0.038179077387375956,0.003207042500539581,-0.04444044607890562,0.06146000000000001,0.41398,-0.46228,13.5,0,10522,9598,11269,25936,20.367890625,158154,20.005166935972323,999.20309210232,0,40.689103,-73.99168,0.26,20:34:41
2024-03-17T16:34:41,-1.2502498084999998,2.9778677257000004,9.5856473356,0.038942658935123484,0.006719517620178169,-0.041844268816564056,0.06762,0.41090000000000004,-0.46620000000000006,13.5,0,10522,9598,11269,25936,20.367890625,158154,20.005166935972323,999.20309210232,0,40.689103,-73.99168,0.26,20:34:41
2024-03-17T16:34:41,-1.1665010175,3.026920589,9.77767134925,0.039706240482871004,0.0007635815477475193,-0.04489859500755413,0.05922000000000001,0.4142600000000001,-0.46858000000000005,13.5,0,10522,9598,11269,25936,20.367890625,158154,20.005166935972323,999.20309210232,0,40.689103,-73.99168,0.47,20:34:41
2024-03-17T16:34:41,-1.2412767237499998,2.9521448827499994,9.637093021499998,0.04016438941151951,0.0012217304763960308,-0.04153883619746505,0.06566000000000001,0.41090000000000004,-0.46396000000000004,13.5,0,10522,9598,11269,25936,20.367890625,158154,20.005166935972323,999.20309210232,0,40.689103,-73.99168,0.47,20:34:41
2024-03-17T16:34:41,-1.08095760955,3.0005995404,9.61735223505,0.038484510006474966,0.0012217304763960308,-0.04276056667386108,0.07154,0.41762000000000005,-0.46228,13.5,0,10522,9598,11269,25936,20.367890625,158154,20.005166935972323,999.20309210232,0,40.689103,-73.991681,0.47,20:34:42
2024-03-17T16:34:42,-1.2693923892999999,2.9623143788,9.7208418125,0.03726277953007894,0.0018325957145940463,-0.039553524173321496,0.057260000000000005,0.41286,-0.46704,13.5,0,10536,9613,11287,25976,20.3676953125,153689,19.93850061627059,999.2275081263007,0,40.689103,-73.991681,0.47,20:34:42
2024-03-17T16:34:42,-1.2418749294,2.9934210725999995,9.633503787599999,0.0357356164345839,-0.001069014166846527,-0.04260785036431157,0.06398000000000001,0.41650000000000004,-0.46620000000000006,13.5,0,10536,9613,11287,25976,20.3676953125,153689,19.93850061627059,999.2275081263007,0,40.689103,-73.991681,0.47,20:34:42
2024-03-17T16:34:42,-1.2382856955,2.9802605483,9.576076045199999,0.041691552507014555,0.0027488935718910697,-0.041844268816564056,0.0637,0.41202000000000005,-0.45892,13.5,0,10536,9613,11287,25976,20.3676953125,153689,19.93850061627059,999.2275081263007,0,40.689103,-73.991681,0.24,20:34:42
2024-03-17T16:34:42,-1.2293126107499999,2.9928228669499997,9.64845892885,0.03772092845872745,0.0013744467859455349,-0.04459316238845512,0.06874000000000001,0.41062000000000004,-0.46816,12.5,0,10536,9613,11287,25976,20.3676953125,153689,19.93850061627059,999.2275081263007,0,40.689103,-73.991681,0.24,20:34:42
2024-03-17T16:34:42,-1.21495567515,2.9641089957499998,9.6083791503,0.039400807863771994,-0.0003054326190990077,-0.0433714319120591,0.06594000000000001,0.40922000000000003,-0.45976000000000006,13.5,0,10536,9613,11287,25976,20.3676953125,153689,19.93850061627059,999.2275081263007,0,40.689101,-73.991686,0.24,20:34:43
2024-03-17T16:34:43,-1.1240284163499998,2.9898318387,9.6705925379,0.03665191429188092,0.038942658935123484,-0.04627304179349966,0.06342,0.41622000000000003,-0.4631200000000001,12.5,0,10548,9627,11300,26023,20.220234375,149469,19.868557109199884,999.2210856303249,0,40.689101,-73.991686,0.24,20:34:43
2024-03-17T16:34:43,-1.2681959779999998,3.0173492985999992,9.67477997745,0.038331793696925465,0.0015271630954950385,-0.038179077387375956,0.058660000000000004,0.4151,-0.45990000000000003,13.5,0,10548,9627,11300,26023,20.220234375,149469,19.868557109199884,999.2210856303249,0,40.689101,-73.991686,0.24,20:34:43
2024-03-17T16:34:43,-1.1814561587499999,3.0005995404,9.651449957099999,0.039095375244672985,0.0022907446432425577,-0.04230241774521256,0.0567,0.41454,-0.45822,13.5,0,10548,9627,11300,26023,20.220234375,149469,19.868557109199884,999.2210856303249,0,40.689101,-73.991686,0.4,20:34:43
2024-03-17T16:34:43,-1.2017951508499998,2.9724838748499995,9.537790883599998,0.037110063220529434,0.00015271630954950385,-0.04444044607890562,0.06258000000000001,0.41762000000000005,-0.4590600000000001,13.5,0,10566,9643,11315,26056,20.220234375,149469,19.868557109199884,999.2210856303249,0,40.689101,-73.991686,0.4,20:34:43
2024-03-17T16:34:43,-1.2526426310999998,2.976073108749999,9.57906707345,0.04123340357836604,0.003207042500539581,-0.04489859500755413,0.06482,0.41818000000000005,-0.45892,13.5,0,10566,9643,11315,26056,20.220234375,149469,19.868557109199884,999.2210856303249,0,40.689101,-73.991686,0.4,20:34:44
2024-03-17T16:34:44,-1.1778669248499998,3.0251259720499997,9.66161945315,0.03772092845872745,0.0056505034533316425,-0.040317105721069016,0.06174000000000001,0.41566000000000003,-0.4596200000000001,13.5,0,10579,9660,11329,26082,20.083125,148156,19.804412170269497,999.222689029807,0,40.689101,-73.991686,0.4,20:34:44
2024-03-17T16:34:44,-1.1772687192,3.0227331494499996,9.6012006825,0.03634648167278191,0.003054326190990077,-0.04260785036431157,0.06258000000000001,0.42574000000000006,-0.45738000000000006,13.5,0,10579,9660,11329,26082,20.083125,148156,19.804412170269497,999.222689029807,0,40.689101,-73.991686,0.4,20:34:44
2024-03-17T16:34:44,-1.1796615417999998,3.00119774605,9.56949578305,0.036804630601430424,-0.0015271630954950385,-0.043676864531158106,0.05754000000000001,0.4148200000000001,-0.45640000000000003,12.5,0,10579,9660,11329,26082,20.083125,148156,19.804412170269497,999.222689029807,0,40.689101,-73.991686,0.21,20:34:44
2024-03-17T16:34:44,-1.2275179938,2.9868408104499995,9.5509514079,0.0357356164345839,0.0033597588100890844,-0.038484510006474966,0.06846000000000001,0.41454,-0.46032000000000006,13.5,0,10579,9660,11329,26082,20.083125,148156,19.804412170269497,999.222689029807,0,40.689101,-73.991686,0.21,20:34:44
2024-03-17T16:34:44,-1.2203395259999998,2.9970103064999996,9.607780944649999,0.036499197982331415,0.001069014166846527,-0.043676864531158106,0.06482,0.41734000000000004,-0.45094000000000006,13.5,0,10579,9660,11329,26082,20.083125,148156,19.804412170269497,999.222689029807,0,40.689103,-73.991686,0.21,20:34:45
2024-03-17T16:34:45,-1.1724830739999998,2.9874390161,9.59462042035,0.03527746750593539,0.0027488935718910697,-0.039858956792420505,0.0651,0.41846000000000005,-0.45864000000000005,13.5,0,10588,9672,11339,26100,19.9692578125,147380,19.77234810313632,999.2216581603903,0,40.689103,-73.991686,0.21,20:34:45
2024-03-17T16:34:45,-1.2346964615999998,2.97846593135,9.55992449265,0.03726277953007894,-0.0009162978572970231,-0.04321871560250959,0.06986000000000002,0.42154,-0.44800000000000006,13.5,0,10588,9672,11339,26100,19.9692578125,147380,19.77234810313632,999.2216581603903,0,40.689103,-73.991686,0.21,20:34:45
2024-03-17T16:34:45,-1.2263215824999998,3.0059833912499996,9.571290399999999,0.039553524173321496,0.0,-0.04016438941151951,0.05754000000000001,0.41790000000000005,-0.45934,13.5,0,10588,9672,11339,26100,19.9692578125,147380,19.77234810313632,999.2216581603903,0,40.689103,-73.991686,0.21,20:34:45
2024-03-17T16:34:45,-1.24606236895,2.9611179675,9.53240703275,0.038484510006474966,0.003207042500539581,-0.04321871560250959,0.0665,0.41930000000000006,-0.45248,13.5,0,10588,9672,11339,26100,19.9692578125,147380,19.77234810313632,999.2216581603903,0,40.689103,-73.991686,0.21,20:34:45
2024-03-17T16:34:45,-1.22811619945,2.9802605483,9.59940606555,0.03802636107782646,-0.0015271630954950385,-0.0476474885794452,0.06566000000000001,0.41370000000000007,-0.4641,13.5,0,10588,9672,11339,26100,19.9692578125,147380,19.77234810313632,999.2216581603903,0,40.689103,-73.991686,0.21,20:34:45
2024-03-17T16:34:45,-1.2185449090499998,2.97846593135,9.5461657627,0.038942658935123484,-0.00045814892864851157,-0.04688390703169768,0.06566000000000001,0.41370000000000007,-0.45472,13.5,0,10588,9672,11339,26100,19.8766796875,146612,19.76197127332175,999.2236581103307,0,40.689103,-73.991686,0.21,20:34:45
2024-03-17T16:34:45,-1.2053843847499999,3.0185457098999997,9.6131647955,0.038942658935123484,-0.0009162978572970231,-0.039858956792420505,0.06958000000000002,0.41706000000000004,-0.45164000000000004,12.5,0,10608,9693,11361,26144,19.8766796875,146612,19.76197127332175,999.2236581103307,0,40.689103,-73.991686,0.21,20:34:45
2024-03-17T16:34:45,-1.2490533971999997,3.00359056865,9.56351372655,0.001069014166846527,0.00045814892864851157,-0.04077525464971753,0.0623,0.41146000000000005,-0.47054,13.5,0,10608,9693,11361,26144,19.8766796875,146612,19.76197127332175,999.2236581103307,0,40.689103,-73.991686,0.21,20:34:45
2024-03-17T16:34:45,-1.19940232825,2.9946174838999995,9.681958445249998,0.04245513405476207,-0.00015271630954950385,-0.04306599929296009,0.0623,0.41146000000000005,-0.47054,13.5,0,10608,9693,11361,26144,19.8766796875,146612,19.76197127332175,999.2236581103307,0,40.689103,-73.991686,0.29,20:34:45
2024-03-17T16:34:45,-1.24008031245,2.9389843584499995,9.5736832226,0.039095375244672985,0.0016798794050445422,-0.04230241774521256,0.06538000000000001,0.41566000000000003,-0.46172,13.5,0,10608,9693,11361,26144,19.8766796875,146612,19.76197127332175,999.2236581103307,0,40.689103,-73.991686,0.29,20:34:45
2024-03-17T16:34:45,-1.22811619945,2.9742784917999994,9.561120903949998,0.04077525464971753,0.0025961772623415654,-0.0474947722698957,0.06566000000000001,0.41706000000000004,-0.45934,13.5,0,10608,9693,11361,26144,20.037421875,157416,19.817157238035826,999.1990704768059,0,40.689105,-73.99169,0.29,20:34:46
2024-03-17T16:34:46,-1.2263215824999998,3.0167510929499994,9.6227360859,0.03695734691097993,0.0006108652381980154,-0.04489859500755413,0.062020000000000006,0.41118000000000005,-0.46704,13.5,0,10642,9720,11389,26215,20.3723828125,164795,19.87727490998857,999.187475759776,0,40.689105,-73.99169,0.29,20:34:46
2024-03-17T16:34:46,-1.2993026717999998,2.9964121008499993,9.598807859899999,0.03329215548179184,-0.00045814892864851157,-0.041080687268816536,0.06398000000000001,0.41818000000000005,-0.46634000000000003,13.5,0,10642,9720,11389,26215,20.3723828125,164795,19.87727490998857,999.187475759776,0,40.689105,-73.99169,0.29,20:34:46
2024-03-17T16:34:46,-1.24008031245,3.0346972624499995,9.552746024849998,0.03802636107782646,0.0022907446432425577,-0.04016438941151951,0.062020000000000006,0.4081,-0.46102000000000004,13.5,0,10642,9720,11389,26215,20.3723828125,164795,19.87727490998857,999.187475759776,0,40.689105,-73.99169,0.45,20:34:46
2024-03-17T16:34:46,-1.2137592638499999,2.9838497821999996,9.628718142399999,0.04001167310197001,-0.0016798794050445422,-0.043676864531158106,0.0651,0.41538,-0.46354,12.5,0,10642,9720,11389,26215,20.3723828125,164795,19.87727490998857,999.187475759776,0,40.689105,-73.99169,0.45,20:34:46
2024-03-17T16:34:46,-1.2107682356,2.976073108749999,9.579665279099999,0.040622538340168025,0.0007635815477475193,-0.04474587869800463,0.0651,0.41538,-0.46354,13.5,0,10642,9720,11389,26215,20.3723828125,164795,19.87727490998857,999.187475759776,0,40.689101,-73.991693,0.45,20:34:47
2024-03-17T16:34:47,-1.2239287599,3.0221349437999994,9.628119936749998,0.04077525464971753,-0.0013744467859455349,-0.04734205596034619,0.06398000000000001,0.41174000000000005,-0.46284000000000003,13.5,0,10689,9756,11428,26318,20.368671875,159198,19.81047889862924,999.2149718594138,0,40.689101,-73.991693,0.45,20:34:47
2024-03-17T16:34:47,-1.2227323486,3.02991161725,9.652048162749999,0.04046982203061852,-0.00015271630954950385,-0.04413501345980661,0.06314,0.41902000000000006,-0.46816,12.5,0,10689,9756,11428,26318,20.368671875,159198,19.81047889862924,999.2149718594138,0,40.689101,-73.991693,0.45,20:34:47
2024-03-17T16:34:47,-1.3232308977999998,2.9898318387,9.571290399999999,0.038637226316024474,-0.0009162978572970231,-0.04413501345980661,0.0651,0.41258000000000006,-0.47166,13.5,0,10689,9756,11428,26318,20.368671875,159198,19.81047889862924,999.2149718594138,0,40.689101,-73.991693,0.56,20:34:47
2024-03-17T16:34:47,-1.2197413203499998,2.9862426047999997,9.615557618099999,0.03252857393404432,-0.00015271630954950385,-0.04306599929296009,0.06062000000000001,0.4207,-0.4536,13.5,0,10689,9756,11428,26318,20.368671875,159198,19.81047889862924,999.2149718594138,0,40.689101,-73.991693,0.56,20:34:47
2024-03-17T16:34:47,-1.1012966016499999,2.9766713144,9.594022214699999,0.038331793696925465,0.003970624048287101,-0.04245513405476207,0.06062000000000001,0.4207,-0.4536,13.5,0,10689,9756,11428,26318,20.368671875,159198,19.81047889862924,999.2149718594138,0,40.689099,-73.991696,0.56,20:34:48
2024-03-17T16:34:48,-1.2179467034,3.0065815969000003,9.69392255825,0.038942658935123484,0.0027488935718910697,-0.04245513405476207,0.06734,0.41678000000000004,-0.45766,12.5,0,10778,9817,11491,26495,20.2169140625,154533,19.74040490251476,999.2174164556101,0,40.689099,-73.991696,0.56,20:34:48
2024-03-17T16:34:48,-1.2604193045499996,2.9467610318999995,9.6825566509,0.039553524173321496,-0.0033597588100890844,-0.0476474885794452,0.05838,0.42098,-0.46424000000000004,13.5,0,10778,9817,11491,26495,20.2169140625,154533,19.74040490251476,999.2174164556101,0,40.689099,-73.991696,0.56,20:34:48
2024-03-17T16:34:48,-1.2574282763,2.9694928465999992,9.647262517549999,0.03344487179134134,0.00045814892864851157,-0.04306599929296009,0.05838,0.42098,-0.46424000000000004,13.5,0,10778,9817,11491,26495,20.2169140625,154533,19.74040490251476,999.2174164556101,0,40.689099,-73.991696,0.65,20:34:48
2024-03-17T16:34:48,-1.22452696555,2.9748766974499996,9.6562356023,0.036804630601430424,0.003207042500539581,-0.04489859500755413,0.07238000000000001,0.41090000000000004,-0.4596200000000001,13.5,0,10778,9817,11491,26495,20.2169140625,154533,19.74040490251476,999.2174164556101,0,40.689099,-73.991696,0.65,20:34:48
2024-03-17T16:34:48,-1.23050902205,2.998206717799999,9.62213788025,0.038637226316024474,0.0022907446432425577,-0.039553524173321496,0.059500000000000004,0.41790000000000005,-0.4494,13.5,0,10778,9817,11491,26495,20.2169140625,154533,19.74040490251476,999.2174164556101,0,40.689096,-73.99169,0.65,20:34:49
2024-03-17T16:34:49,-1.2125628525499998,3.0173492985999992,9.62692352545,0.03512475119638588,0.0009162978572970231,-0.04428772976935611,0.06874000000000001,0.41706000000000004,-0.46270000000000006,13.5,0,10802,9830,11511,26548,20.0770703125,152439,19.711996767196137,999.2163075700479,0,40.689096,-73.99169,0.65,20:34:49
2024-03-17T16:34:49,-1.2251251712,2.9766713144,9.567701166099999,0.04001167310197001,0.0007635815477475193,-0.04291328298341058,0.06314,0.41706000000000004,-0.45626000000000005,13.5,0,10802,9830,11511,26548,20.0770703125,152439,19.711996767196137,999.2163075700479,0,40.689096,-73.99169,0.65,20:34:49
2024-03-17T16:34:49,-1.2101700299499998,3.0203403268499995,9.59940606555,0.037110063220529434,0.0044287729769356115,-0.04153883619746505,0.0651,0.4151,-0.4585000000000001,13.5,0,10802,9830,11511,26548,20.0770703125,152439,19.711996767196137,999.2163075700479,0,40.689096,-73.99169,0.41,20:34:49
2024-03-17T16:34:49,-1.2394821068,3.00239415735,9.71545796165,0.039553524173321496,0.0003054326190990077,-0.039400807863771994,0.0651,0.40726000000000007,-0.4578000000000001,13.5,0,10802,9830,11511,26548,20.0770703125,152439,19.711996767196137,999.2163075700479,0,40.689096,-73.99169,0.41,20:34:49
2024-03-17T16:34:49,-1.22452696555,2.97846593135,9.61017376725,0.04153883619746505,0.0022907446432425577,-0.04520402762665314,0.058100000000000006,0.40726000000000007,-0.4578000000000001,13.5,0,10802,9830,11511,26548,20.0770703125,152439,19.711996767196137,999.2163075700479,0,40.689096,-73.991686,0.41,20:34:50
2024-03-17T16:34:50,-1.2275179938,2.9946174838999995,9.5772724565,0.04046982203061852,-0.0022907446432425577,-0.0474947722698957,0.06174000000000001,0.42378000000000005,-0.45682000000000006,12.5,0,10821,9844,11521,26587,19.9610546875,150939,19.69007956213495,999.2188195344447,0,40.689096,-73.991686,0.41,20:34:50
2024-03-17T16:34:50,-1.2167502921,2.9485556488499993,9.53240703275,0.0435241482216086,-0.00045814892864851157,-0.041996985126113565,0.0637,0.4151,-0.46046000000000004,13.5,0,10821,9844,11521,26587,19.9610546875,150939,19.69007956213495,999.2188195344447,0,40.689096,-73.991686,0.41,20:34:50
2024-03-17T16:34:50,-1.1814561587499999,3.0245277664,9.584450924299999,0.03787364476827696,0.0009162978572970231,-0.0433714319120591,0.0637,0.4151,-0.46046000000000004,13.5,0,10821,9844,11521,26587,19.9610546875,150939,19.69007956213495,999.2188195344447,0,40.689096,-73.991686,0.41,20:34:50
2024-03-17T16:34:50,-1.2981062605,3.00478697995,9.49651469375,0.038331793696925465,0.0012217304763960308,-0.041691552507014555,0.05838,0.41958000000000006,-0.47306000000000004,13.5,0,10824,9848,11523,26600,19.9610546875,150939,19.69007956213495,999.2188195344447,0,40.689096,-73.991686,0.41,20:34:50
2024-03-17T16:34:50,-1.2275179938,2.9916264556499996,9.6000042712,0.03726277953007894,0.002138028333693054,-0.040622538340168025,0.06594000000000001,0.42014000000000007,-0.46886000000000005,13.5,0,10824,9848,11523,26600,19.9610546875,150939,19.69007956213495,999.2188195344447,0,40.689096,-73.991686,0.41,20:34:50
2024-03-17T16:34:50,-1.2311072276999997,3.0101708308,9.6382894328,0.03665191429188092,0.0013744467859455349,-0.041996985126113565,0.06706000000000001,0.41650000000000004,-0.45570000000000005,13.5,0,10824,9848,11523,26600,19.8696484375,149204,19.679792353013347,999.2209702628826,0,40.689096,-73.991686,0.41,20:34:50
2024-03-17T16:34:50,-1.19342027175,2.9940192782499997,9.646664311899999,0.03665191429188092,0.0027488935718910697,-0.04245513405476207,0.06146000000000001,0.42154,-0.45584,13.5,0,10824,9848,11523,26600,19.8696484375,149204,19.679792353013347,999.2209702628826,0,40.689096,-73.991686,0.41,20:34:50
2024-03-17T16:34:50,-1.31186499045,2.9659036126999996,9.669994332249999,0.039553524173321496,0.0027488935718910697,-0.04230241774521256,0.061180000000000005,0.41818000000000005,-0.45276000000000005,13.5,0,10824,9848,11523,26600,19.8696484375,149204,19.679792353013347,999.2209702628826,0,40.689096,-73.991686,0.41,20:34:50
2024-03-17T16:34:50,-1.2209377316499999,3.02632238335,9.607182738999999,0.039858956792420505,0.0022907446432425577,-0.0433714319120591,0.062020000000000006,0.41538,-0.4572400000000001,13.5,0,10824,9848,11523,26600,19.8696484375,149204,19.679792353013347,999.2209702628826,0,40.689096,-73.991686,0.07,20:34:50
2024-03-17T16:34:50,-1.2035897677999998,2.9916264556499996,9.652048162749999,0.03634648167278191,0.0015271630954950385,-0.04153883619746505,0.06006,0.41818000000000005,-0.46704,13.5,0,10824,9848,11523,26600,19.8696484375,149204,19.679792353013347,999.2209702628826,0,40.689096,-73.991686,0.07,20:34:50
2024-03-17T16:34:50,-1.1306086784999998,2.9419753867,9.597611448599999,0.04001167310197001,-0.00045814892864851157,-0.04321871560250959,0.06006,0.41818000000000005,-0.46704,12.5,0,10824,9848,11523,26600,20.03078125,160409,19.745161276309695,999.1952609011495,0,40.689095,-73.991688,0.07,20:34:51
2024-03-17T16:34:51,-1.20059873955,3.00359056865,9.652048162749999,0.03802636107782646,0.0019853120241435504,-0.04276056667386108,0.0539,0.41762000000000005,-0.45976000000000006,13.5,0,10811,9840,11513,26568,20.367109375,167577,19.800149357877686,999.1823782102505,0,40.689095,-73.991688,0.07,20:34:51
2024-03-17T16:34:51,-1.2478569859,2.9635107901,9.5066841898,0.03741549583962844,0.0036651914291880926,-0.04489859500755413,0.05614000000000001,0.41678000000000004,-0.46676000000000006,13.5,0,10811,9840,11513,26568,20.367109375,167577,19.800149357877686,999.1823782102505,0,40.689095,-73.991688,0.07,20:34:51
2024-03-17T16:34:51,-1.22811619945,3.0059833912499996,9.559326287,0.039706240482871004,-0.0012217304763960308,-0.04046982203061852,0.05614000000000001,0.41678000000000004,-0.46676000000000006,13.5,0,10811,9840,11513,26568,20.367109375,167577,19.800149357877686,999.1823782102505,0,40.689095,-73.991688,0.43,20:34:51
2024-03-17T16:34:51,-1.24725878025,3.01794750425,9.677771005699999,0.04046982203061852,0.00045814892864851157,-0.04260785036431157,0.06062000000000001,0.41762000000000005,-0.46172,13.5,0,10811,9840,11513,26568,20.367109375,167577,19.800149357877686,999.1823782102505,0,40.689095,-73.991688,0.43,20:34:51
2024-03-17T16:34:51,-1.2047861791,3.0221349437999994,9.5617191096,0.039095375244672985,-0.038331793696925465,-0.04077525464971753,0.05642000000000001,0.41818000000000005,-0.46466,13.5,0,10811,9840,11513,26568,20.367109375,167577,19.800149357877686,999.1823782102505,0,40.689096,-73.991685,0.43,20:34:52
2024-03-17T16:34:52,-1.2011969452,2.9952156895499997,9.611968384199999,0.039400807863771994,0.002138028333693054,-0.04673119072214818,0.06678,0.42238000000000003,-0.45052000000000003,13.5,0,10784,9824,11494,26513,20.3645703125,165441,19.74369932971868,999.2047248281931,0,40.689096,-73.991685,0.43,20:34:52
2024-03-17T16:34:52,-1.2089736186499997,2.9850461934999997,9.620343263299999,0.038789942625573975,0.0025961772623415654,-0.041691552507014555,0.06062000000000001,0.41818000000000005,-0.45458000000000004,13.5,0,10784,9824,11494,26513,20.3645703125,165441,19.74369932971868,999.2047248281931,0,40.689096,-73.991685,0.43,20:34:52
2024-03-17T16:34:52,-1.1563315214499998,2.9886354273999993,9.5545406418,0.03283400655314333,0.0006108652381980154,-0.04077525464971753,0.0665,0.41174000000000005,-0.47278000000000003,13.5,0,10784,9824,11494,26513,20.3645703125,165441,19.74369932971868,999.2047248281931,0,40.689096,-73.991685,0.26,20:34:52
2024-03-17T16:34:52,-1.2143574695,2.9850461934999997,9.594022214699999,0.038789942625573975,0.038637226316024474,-0.04413501345980661,0.06594000000000001,0.41958000000000006,-0.47208000000000006,13.5,0,10784,9824,11494,26513,20.3645703125,165441,19.74369932971868,999.2047248281931,0,40.689096,-73.991685,0.26,20:34:52
2024-03-17T16:34:52,-1.2215359372999999,2.9742784917999994,9.6358966102,0.041080687268816536,-0.0013744467859455349,-0.04321871560250959,0.06566000000000001,0.41762000000000005,-0.47152000000000005,13.5,0,10784,9824,11494,26513,20.3645703125,165441,19.74369932971868,999.2047248281931,0,40.689095,-73.991683,0.26,20:34:53
2024-03-17T16:34:53,-1.2263215824999998,2.9736802861499996,9.56949578305,0.036804630601430424,0.0019853120241435504,-0.03787364476827696,0.06342,0.41790000000000005,-0.4655000000000001,13.5,0,10770,9816,11487,26523,20.2161328125,158302,19.68921446494289,999.2037725291879,0,40.689095,-73.991683,0.26,20:34:53
2024-03-17T16:34:53,-1.16949204575,3.038884702,9.6000042712,0.043982297150257116,0.0022907446432425577,-0.043676864531158106,0.059500000000000004,0.41622000000000003,-0.44926000000000005,13.5,0,10770,9816,11487,26523,20.2161328125,158302,19.68921446494289,999.2037725291879,0,40.689095,-73.991683,0.26,20:34:53
2024-03-17T16:34:53,-1.25443724805,2.97846593135,9.647262517549999,0.03359758810089085,0.0036651914291880926,-0.04123340357836604,0.059500000000000004,0.41622000000000003,-0.4501,13.5,0,10770,9816,11487,26523,20.2161328125,158302,19.68921446494289,999.2037725291879,0,40.689095,-73.991683,0.44,20:34:53
2024-03-17T16:34:53,-1.10249301295,2.98803722175,9.6526463684,0.03741549583962844,0.005192354524683131,-0.04092797095926703,0.0637,0.42602000000000007,-0.45654,13.5,0,10770,9816,11487,26523,20.2161328125,158302,19.68921446494289,999.2037725291879,0,40.689095,-73.991683,0.44,20:34:53
2024-03-17T16:34:53,-1.1407781745499999,2.9587251449000003,9.567701166099999,0.039400807863771994,0.001069014166846527,-0.041691552507014555,0.0637,0.42602000000000007,-0.45654,13.5,0,10770,9816,11487,26523,20.2161328125,158302,19.68921446494289,999.2037725291879,0,40.689096,-73.99168,0.44,20:34:54
2024-03-17T16:34:54,-1.1491530536499999,3.0125636533999995,9.628119936749998,0.038637226316024474,-0.0019853120241435504,-0.04444044607890562,0.05698,0.41930000000000006,-0.4529,13.5,0,10784,9822,11498,26549,20.0825390625,155101,19.645855932582204,999.204069061047,0,40.689096,-73.99168,0.44,20:34:54
2024-03-17T16:34:54,-1.2035897677999998,2.9934210725999995,9.582058101699998,0.03772092845872745,-0.038484510006474966,-0.04444044607890562,0.060340000000000005,0.42238000000000003,-0.45150000000000007,13.5,0,10784,9822,11498,26549,20.0825390625,155101,19.645855932582204,999.204069061047,0,40.689096,-73.99168,0.44,20:34:54
2024-03-17T16:34:54,-1.2442677519999998,3.00717980255,9.6957171752,0.039706240482871004,-0.002138028333693054,-0.04092797095926703,0.06426000000000001,0.42182000000000003,-0.45542,13.5,0,10784,9822,11498,26549,20.0825390625,155101,19.645855932582204,999.204069061047,0,40.689096,-73.99168,0.44,20:34:54
2024-03-17T16:34:54,-1.2293126107499999,2.9581269392499996,9.631110965,0.03604104905368291,-0.0003054326190990077,-0.04123340357836604,0.05614000000000001,0.41734000000000004,-0.4601800000000001,13.5,0,10784,9822,11498,26549,20.0825390625,155101,19.645855932582204,999.204069061047,0,40.689096,-73.99168,0.44,20:34:54
2024-03-17T16:34:54,-1.2299108163999999,3.00837621385,9.669994332249999,0.039553524173321496,0.0038179077387375964,-0.039095375244672985,0.0651,0.41566000000000003,-0.4491200000000001,13.5,0,10784,9822,11498,26549,20.0825390625,155101,19.645855932582204,999.204069061047,0,40.689096,-73.991675,0.44,20:34:55
2024-03-17T16:34:55,-1.1958130943499998,2.9635107901,9.616155823749999,0.037110063220529434,0.0025961772623415654,-0.041844268816564056,0.05586000000000001,0.41006000000000004,-0.46704,13.5,0,10785,9818,11494,26559,19.9716015625,152853,19.639578566469766,999.2096043528451,0,40.689096,-73.991675,0.44,20:34:55
2024-03-17T16:34:55,-1.2275179938,2.9575287336,9.57308501695,0.03604104905368291,0.0018325957145940463,-0.038331793696925465,0.06006,0.41706000000000004,-0.45234,13.5,0,10785,9818,11494,26559,19.9716015625,152853,19.639578566469766,999.2096043528451,0,40.689096,-73.991675,0.44,20:34:55
2024-03-17T16:34:55,-1.19342027175,3.01435827035,9.527023181899999,0.038484510006474966,0.0019853120241435504,-0.039400807863771994,0.058100000000000006,0.41566000000000003,-0.4590600000000001,13.5,0,10785,9818,11494,26559,19.9716015625,152853,19.639578566469766,999.2096043528451,0,40.689096,-73.991675,0.44,20:34:55
2024-03-17T16:34:55,-1.11804635985,3.0065815969000003,9.620941468949999,0.039858956792420505,-0.0016798794050445422,-0.041691552507014555,0.05138,0.42266000000000004,-0.4561200000000001,13.5,0,10785,9818,11494,26559,19.9716015625,152853,19.639578566469766,999.2096043528451,0,40.689096,-73.991675,0.44,20:34:55
2024-03-17T16:34:55,-1.2693923892999999,2.9563323222999998,9.6263253198,0.03772092845872745,-0.0019853120241435504,-0.04321871560250959,0.05698,0.41734000000000004,-0.46046000000000004,13.5,0,10785,9818,11494,26559,19.9716015625,152853,19.639578566469766,999.2096043528451,0,40.689096,-73.991675,0.44,20:34:55
2024-03-17T16:34:55,-1.1294122671999998,2.9617161731499997,9.6047899164,0.03802636107782646,-0.0006108652381980154,-0.04276056667386108,0.0665,0.42154,-0.46214000000000005,13.5,0,10785,9818,11494,26559,19.885078125,151617,19.629580452131492,999.2056330854995,0,40.689096,-73.991675,0.44,20:34:55
2024-03-17T16:34:55,-1.1611171666499998,3.0233313550999994,9.576076045199999,0.0357356164345839,0.0025961772623415654,-0.04444044607890562,0.0567,0.42350000000000004,-0.45948,13.5,0,10785,9818,11494,26559,19.885078125,151617,19.629580452131492,999.2056330854995,0,40.689096,-73.991675,0.44,20:34:55
2024-03-17T16:34:55,-1.21495567515,2.9706892578999997,9.61735223505,0.038942658935123484,0.004276056667386108,-0.04291328298341058,0.05642000000000001,0.4207,-0.4649400000000001,13.5,0,10785,9818,11494,26559,19.885078125,151617,19.629580452131492,999.2056330854995,0,40.689096,-73.991675,0.25,20:34:55
2024-03-17T16:34:55,-1.2239287599,3.0203403268499995,9.634101993249999,0.038331793696925465,0.0019853120241435504,-0.07483099167925689,0.05642000000000001,0.4207,-0.44870000000000004,13.5,0,10785,9818,11494,26559,19.885078125,151617,19.629580452131492,999.2056330854995,0,40.689096,-73.991675,0.25,20:34:55
2024-03-17T16:34:55,-1.2502498084999998,2.9940192782499997,9.6347001989,0.03772092845872745,-0.00015271630954950385,-0.0474947722698957,0.05754000000000001,0.42434000000000005,-0.44870000000000004,13.5,0,10785,9818,11494,26559,19.885078125,151617,19.629580452131492,999.2056330854995,0,40.689098,-73.991668,0.25,20:34:56
2024-03-17T16:34:56,-1.2705888005999997,2.9856443991499995,9.594022214699999,0.0357356164345839,0.0022907446432425577,-0.040317105721069016,0.058940000000000006,0.42126,-0.45346000000000003,13.5,0,10797,9823,11500,26578,20.049921875,163835,19.705342838766224,999.1824524822484,0,40.689098,-73.991668,0.25,20:34:56
2024-03-17T16:34:56,-1.2358928728999998,3.01914391555,9.63290558195,0.07757988525114795,-0.0009162978572970231,-0.04550946024575215,0.05922000000000001,0.41454,-0.45514000000000004,13.5,0,10797,9823,11500,26578,20.049921875,163835,19.705342838766224,999.1824524822484,0,40.689098,-73.991668,0.25,20:34:56
2024-03-17T16:34:56,-1.2352946672499998,2.99880492345,9.6705925379,0.03924809155422249,0.003207042500539581,-0.04505131131710364,0.05782000000000001,0.41678000000000004,-0.46382000000000007,13.5,0,10797,9823,11500,26578,20.049921875,163835,19.705342838766224,999.1824524822484,0,40.689098,-73.991668,0.23,20:34:56
2024-03-17T16:34:56,-1.3268201317,2.9766713144,9.605388122049998,0.038331793696925465,0.0012217304763960308,-0.041080687268816536,0.058100000000000006,0.42350000000000004,-0.45878,13.5,0,10797,9823,11500,26578,20.049921875,163835,19.705342838766224,999.1824524822484,0,40.689098,-73.991668,0.23,20:34:56
2024-03-17T16:34:56,-1.22333055425,2.9934210725999995,9.566504754799999,0.038789942625573975,0.0018325957145940463,-0.04245513405476207,0.058100000000000006,0.42350000000000004,-0.45878,13.5,0,10797,9823,11500,26578,20.049921875,163835,19.705342838766224,999.1824524822484,0,40.689098,-73.991666,0.23,20:34:57
2024-03-17T16:34:57,-1.31425781305,3.00717980255,9.508478806749999,0.04016438941151951,0.0036651914291880926,-0.04260785036431157,0.05138,0.42210000000000003,-0.46214000000000005,13.5,0,10792,9817,11492,26557,20.02375,158154,19.673189059359142,999.1819821128328,0,40.689098,-73.991666,0.23,20:34:57
2024-03-17T16:34:57,-1.3148560187,2.98205516525,9.59581683165,0.03726277953007894,0.0016798794050445422,-0.041080687268816536,0.05642000000000001,0.42182000000000003,-0.46074000000000004,13.5,0,10792,9817,11492,26557,20.02375,158154,19.673189059359142,999.1819821128328,0,40.689098,-73.991666,0.23,20:34:57
2024-03-17T16:34:57,-1.2311072276999997,2.9802605483,9.5365944723,0.03665191429188092,0.003054326190990077,-0.04046982203061852,0.0553,0.4148200000000001,-0.45416,13.5,0,10792,9817,11492,26557,20.02375,158154,19.673189059359142,999.1819821128328,0,40.689098,-73.991666,0.12,20:34:57
2024-03-17T16:34:57,-1.2023933564999998,2.9724838748499995,9.5928258034,0.03405573702953936,0.0018325957145940463,-0.04276056667386108,0.058660000000000004,0.4142600000000001,-0.45514000000000004,13.5,0,10773,9802,11474,26507,20.02375,158154,19.673189059359142,999.1819821128328,0,40.689098,-73.991666,0.12,20:34:57
2024-03-17T16:34:57,-1.2394821068,2.9766713144,9.615557618099999,0.04077525464971753,0.00473420559603462,-0.041080687268816536,0.058660000000000004,0.4142600000000001,-0.45514000000000004,13.5,0,10773,9802,11474,26507,20.02375,158154,19.673189059359142,999.1819821128328,0,40.689101,-73.99166,0.12,20:34:58
2024-03-17T16:34:58,-1.2346964615999998,2.9922246613,9.620941468949999,0.038179077387375956,0.0012217304763960308,-0.04214970143566306,0.06174000000000001,0.42434000000000005,-0.46746000000000004,13.5,0,10744,9781,11452,26449,19.9462109375,150804,19.673907423651308,999.1892150222895,0,40.689101,-73.99166,0.12,20:34:58
2024-03-17T16:34:58,-1.2113664412499998,2.9712874635499995,9.583852718649998,0.039400807863771994,0.0027488935718910697,-0.04092797095926703,0.06594000000000001,0.42378000000000005,-0.4631200000000001,13.5,0,10744,9781,11452,26449,19.9462109375,150804,19.673907423651308,999.1892150222895,0,40.689101,-73.99166,0.12,20:34:58
2024-03-17T16:34:58,-1.1952148887,3.0017959517,9.64965534015,0.03772092845872745,0.002901609881440573,-0.04535674393620265,0.05698,0.41846000000000005,-0.45920000000000005,13.5,0,10744,9781,11452,26449,19.9462109375,150804,19.673907423651308,999.1892150222895,0,40.689101,-73.99166,0.3,20:34:58
2024-03-17T16:34:58,-1.2478569859,3.0053851856,9.67597638875,0.036499197982331415,0.002138028333693054,-0.04291328298341058,0.06398000000000001,0.42406000000000005,-0.45766,13.5,0,10744,9781,11452,26449,19.9462109375,150804,19.673907423651308,999.1892150222895,0,40.689101,-73.99166,0.3,20:34:58
2024-03-17T16:34:58,-1.2275179938,2.98444798785,9.628119936749998,0.038484510006474966,0.005345070834232635,-0.041844268816564056,0.06286000000000001,0.42154,-0.46382000000000007,13.5,0,10744,9781,11452,26449,19.9462109375,150804,19.673907423651308,999.1892150222895,0,40.689101,-73.991655,0.3,20:34:59
2024-03-17T16:34:59,-1.2317054333500002,3.0041887742999998,9.52522856495,0.038179077387375956,0.002901609881440573,-0.04413501345980661,0.05978000000000001,0.4148200000000001,-0.47040000000000004,13.5,0,10717,9759,11433,26397,19.876875,146995,19.715973599488066,999.1939644991613,0,40.689101,-73.991655,0.3,20:34:59
2024-03-17T16:34:59,-1.3262219260499999,2.9970103064999996,9.6047899164,0.041386119887915546,0.0007635815477475193,-0.04642575810304917,0.06174000000000001,0.40698,-0.45766,13.5,0,10717,9759,11433,26397,19.876875,146995,19.715973599488066,999.1939644991613,0,40.689101,-73.991655,0.3,20:34:59
2024-03-17T16:34:59,-1.1946166830499998,3.00119774605,9.5545406418,0.040317105721069016,0.002901609881440573,-0.039400807863771994,0.06174000000000001,0.41286,-0.46424000000000004,13.5,0,10717,9759,11433,26397,19.876875,146995,19.715973599488066,999.1939644991613,0,40.689101,-73.991655,0.47,20:34:59
2024-03-17T16:34:59,-1.2059825903999999,2.98444798785,9.6131647955,0.038331793696925465,-0.002138028333693054,-0.04306599929296009,0.06594000000000001,0.41286,-0.46424000000000004,13.5,0,10717,9759,11433,26397,19.876875,146995,19.715973599488066,999.1939644991613,0,40.689101,-73.991655,0.47,20:34:59
2024-03-17T16:34:59,-1.2185449090499998,2.9922246613,9.623932497199998,0.04016438941151951,0.0012217304763960308,-0.04001167310197001,0.0665,0.42238000000000003,-0.45948,13.5,0,10717,9759,11433,26397,19.876875,146995,19.715973599488066,999.1939644991613,0,40.689101,-73.99165,0.47,20:35:0
2024-03-17T16:35:00,-1.1814561587499999,3.01316185905,9.637691227149999,0.03741549583962844,0.0025961772623415654,-0.04276056667386108,0.06174000000000001,0.41846000000000005,-0.47320000000000007,13.5,0,10657,9710,11388,26279,19.8227734375,143985,19.789587837643268,999.2006934089898,0,40.689101,-73.99165,0.47,20:35:0
2024-03-17T16:35:00,-1.1880364209,3.0185457098999997,9.796813930049998,0.03802636107782646,-0.0007635815477475193,-0.04489859500755413,0.061180000000000005,0.42658,-0.46242,13.5,0,10657,9710,11388,26279,19.8227734375,143985,19.789587837643268,999.2006934089898,0,40.689101,-73.99165,0.47,20:35:0
2024-03-17T16:35:00,-1.20658079605,3.0161528872999996,9.6035935051,0.038942658935123484,0.0009162978572970231,-0.04642575810304917,0.06286000000000001,0.42154,-0.45696000000000003,13.5,0,10657,9710,11388,26279,19.8227734375,143985,19.789587837643268,999.2006934089898,0,40.689101,-73.99165,0.47,20:35:0
2024-03-17T16:35:00,-1.24606236895,2.9808587539499998,9.628718142399999,0.039400807863771994,0.0016798794050445422,-0.04092797095926703,0.06566000000000001,0.42378000000000005,-0.4561200000000001,13.5,0,10657,9710,11388,26279,19.8227734375,143985,19.789587837643268,999.2006934089898,0,40.689101,-73.99165,0.47,20:35:0
2024-03-17T16:35:00,-1.24965160285,2.9850461934999997,9.61495941245,0.038942658935123484,-0.00015271630954950385,-0.04612032548395016,0.06566000000000001,0.41790000000000005,-0.45332000000000006,13.5,0,10657,9710,11388,26279,19.8227734375,143985,19.789587837643268,999.2006934089898,0,40.689101,-73.99165,0.47,20:35:0
2024-03-17T16:35:00,-1.2107682356,2.97966234265,9.5928258034,0.03543018381548489,-0.003054326190990077,-0.04489859500755413,0.0637,0.42098,-0.44450000000000006,13.5,0,10657,9710,11388,26279,19.7774609375,141450,19.894436695412896,999.2023864577052,0,40.689101,-73.99165,0.47,20:35:0
2024-03-17T16:35:00,-1.2538390423999999,2.9724838748499995,9.5928258034,0.03634648167278191,0.0044287729769356115,-0.04321871560250959,0.06594000000000001,0.41846000000000005,-0.4502400000000001,13.5,0,10657,9710,11388,26279,19.7774609375,141450,19.894436695412896,999.2023864577052,0,40.689101,-73.99165,0.47,20:35:0
2024-03-17T16:35:00,-1.2017951508499998,2.98444798785,9.59940606555,0.038179077387375956,0.0035124751196385882,-0.0435241482216086,0.06174000000000001,0.42210000000000003,-0.45640000000000003,13.5,0,10657,9710,11388,26279,19.7774609375,141450,19.894436695412896,999.2023864577052,0,40.689101,-73.99165,0.35,20:35:0
2024-03-17T16:35:00,-1.232303639,2.98803722175,9.632307376299998,0.0003054326190990077,-0.00045814892864851157,-0.04291328298341058,0.06538000000000001,0.42126,-0.45822,13.5,0,10657,9710,11388,26279,19.7774609375,141450,19.894436695412896,999.2023864577052,0,40.689101,-73.99165,0.35,20:35:0
2024-03-17T16:35:00,-1.2442677519999998,2.9617161731499997,9.628718142399999,0.041996985126113565,0.00595593607243065,-0.041844268816564056,0.06286000000000001,0.41986,-0.46508000000000005,13.5,0,10657,9710,11388,26279,19.7774609375,141450,19.894436695412896,999.2023864577052,0,40.689101,-73.99164,0.35,20:35:1
2024-03-17T16:35:01,-1.2137592638499999,2.98803722175,9.617950440699998,0.03802636107782646,0.0022907446432425577,-0.04444044607890562,0.06538000000000001,0.41706000000000004,-0.45542,13.5,0,10640,9695,11379,26267,19.973359375,154817,19.977340863258863,999.1754018398715,0,40.689101,-73.99164,0.35,20:35:1
2024-03-17T16:35:01,-1.2502498084999998,2.9868408104499995,9.584450924299999,0.03313943917224234,-0.0012217304763960308,-0.040622538340168025,0.06454,0.42266000000000004,-0.46284000000000003,13.5,0,10640,9695,11379,26267,19.973359375,154817,19.977340863258863,999.1754018398715,0,40.689101,-73.99164,0.35,20:35:1
2024-03-17T16:35:01,-1.2209377316499999,3.00239415735,9.652048162749999,0.03420845333908886,-0.0024434609527920616,-0.048411070127192715,0.06006,0.41678000000000004,-0.47040000000000004,13.5,0,10640,9695,11379,26267,19.973359375,154817,19.977340863258863,999.1754018398715,0,40.689101,-73.99164,0.9,20:35:1
2024-03-17T16:35:01,-1.2107682356,2.9623143788,9.610771972899999,0.037110063220529434,0.001069014166846527,-0.04444044607890562,0.05362000000000001,0.41258000000000006,-0.44982000000000005,13.5,0,10640,9695,11379,26267,19.973359375,154817,19.977340863258863,999.1754018398715,0,40.689101,-73.99164,0.9,20:35:1
2024-03-17T16:35:01,-1.2909277927,3.00957262515,9.6227360859,0.03527746750593539,0.0009162978572970231,-0.040622538340168025,0.05362000000000001,0.42462000000000005,-0.45542,13.5,0,10640,9695,11379,26267,19.973359375,154817,19.977340863258863,999.1754018398715,0,40.689098,-73.991628,0.9,20:35:2
2024-03-17T16:35:02,-1.2873385588,3.00837621385,9.66760150965,0.04245513405476207,-0.0003054326190990077,-0.04612032548395016,0.0623,0.41650000000000004,-0.4513600000000001,13.5,0,10647,9700,11392,26308,19.96828125,148810,20.038545558937766,999.1776810579967,0,40.689098,-73.991628,0.9,20:35:2
2024-03-17T16:35:02,-1.2478569859,3.0185457098999997,9.5964150373,0.038789942625573975,-0.0024434609527920616,-0.04444044607890562,0.06874000000000001,0.41874000000000006,-0.45836000000000005,13.5,0,10647,9700,11392,26308,19.96828125,148810,20.038545558937766,999.1776810579967,0,40.689098,-73.991628,0.9,20:35:2
2024-03-17T16:35:02,-1.1449656141,2.9814569596,9.61137017855,0.038942658935123484,0.0,-0.03924809155422249,0.0637,0.42014000000000007,-0.45584,13.5,0,10647,9700,11392,26308,19.96828125,148810,20.038545558937766,999.1776810579967,0,40.689098,-73.991628,0.98,20:35:2
2024-03-17T16:35:02,-1.2203395259999998,2.98803722175,9.589834775149999,0.036193765363232405,-0.00045814892864851157,-0.04612032548395016,0.06734,0.41930000000000006,-0.46032000000000006,13.5,0,10647,9700,11392,26308,19.96828125,148810,20.038545558937766,999.1776810579967,0,40.689098,-73.991628,0.98,20:35:2
2024-03-17T16:35:02,-1.2275179938,2.99880492345,9.5856473356,0.038331793696925465,0.00473420559603462,-0.04077525464971753,0.06734,0.41930000000000006,-0.46032000000000006,13.5,0,10647,9700,11392,26308,19.96828125,148810,20.038545558937766,999.1776810579967,0,40.689099,-73.991633,0.98,20:35:3
2024-03-17T16:35:03,-1.232303639,2.9862426047999997,9.62572711415,0.03726277953007894,0.003207042500539581,-0.04612032548395016,0.06398000000000001,0.42238000000000003,-0.45416,13.5,0,10671,9715,11412,26362,19.9075390625,146104,20.111953931147745,999.18238733328,0,40.689099,-73.991633,0.98,20:35:3
2024-03-17T16:35:03,-1.14676023105,2.9922246613,9.56351372655,0.04276056667386108,-0.0007635815477475193,-0.04520402762665314,0.06062000000000001,0.42210000000000003,-0.45836000000000005,13.5,0,10671,9715,11412,26362,19.9075390625,146104,20.111953931147745,999.18238733328,0,40.689099,-73.991633,0.98,20:35:3
2024-03-17T16:35:03,-1.07377914175,2.9970103064999996,9.637691227149999,0.04153883619746505,0.0033597588100890844,-0.04077525464971753,0.05782000000000001,0.42462000000000005,-0.46634000000000003,13.5,0,10671,9715,11412,26362,19.9075390625,146104,20.111953931147745,999.18238733328,0,40.689099,-73.991633,0.26,20:35:3
2024-03-17T16:35:03,-1.27597265145,2.9874390161,9.633503787599999,0.036804630601430424,0.00015271630954950385,-0.04153883619746505,0.06706000000000001,0.4207,-0.45976000000000006,13.5,0,10671,9715,11412,26362,19.9075390625,146104,20.111953931147745,999.18238733328,0,40.689099,-73.991633,0.26,20:35:3
2024-03-17T16:35:03,-1.29750805485,2.9754749030999994,9.585049129949999,0.038484510006474966,-0.0009162978572970231,-0.04092797095926703,0.05362000000000001,0.42518000000000006,-0.4590600000000001,13.5,0,10671,9715,11412,26362,19.9075390625,146104,20.111953931147745,999.18238733328,0,40.689096,-73.991625,0.26,20:35:4
2024-03-17T16:35:04,-1.3328021881999996,3.0077780082,9.6263253198,0.038179077387375956,-0.001069014166846527,-0.04535674393620265,0.058100000000000006,0.42630000000000007,-0.45990000000000003,13.5,0,10705,9738,11444,26443,19.8493359375,145474,20.185537917423215,999.1859384936334,0,40.689096,-73.991625,0.26,20:35:4
2024-03-17T16:35:04,-1.2592228932499998,2.98444798785,9.57188860565,0.039095375244672985,0.0070249502392771765,-0.04276056667386108,0.06006,0.43022000000000005,-0.46564000000000005,13.5,0,10705,9738,11444,26443,19.8493359375,145474,20.185537917423215,999.1859384936334,0,40.689096,-73.991625,0.26,20:35:4
2024-03-17T16:35:04,-1.1096714807499999,2.9724838748499995,9.61017376725,0.038484510006474966,0.0013744467859455349,-0.03512475119638588,0.058660000000000004,0.42966000000000004,-0.46858000000000005,13.5,0,10705,9738,11444,26443,19.8493359375,145474,20.185537917423215,999.1859384936334,0,40.689096,-73.991625,1.33,20:35:4
2024-03-17T16:35:04,-1.2275179938,2.9976085121499993,9.602995299449999,0.03604104905368291,-0.0003054326190990077,-0.04642575810304917,0.06762,0.42518000000000006,-0.45878,13.5,0,10705,9738,11444,26443,19.8493359375,145474,20.185537917423215,999.1859384936334,0,40.689096,-73.991625,1.33,20:35:4
2024-03-17T16:35:04,-1.23050902205,3.0221349437999994,9.620941468949999,0.04046982203061852,-0.0006108652381980154,-0.04276056667386108,0.05698,0.42210000000000003,-0.46536000000000005,13.5,0,10737,9758,11480,26534,19.8493359375,145474,20.185537917423215,999.1859384936334,0,40.689093,-73.991618,1.33,20:35:5
2024-03-17T16:35:05,-1.2155538808,2.9868408104499995,9.617950440699998,0.03665191429188092,0.0009162978572970231,-0.041996985126113565,0.05978000000000001,0.42574000000000006,-0.45472,13.5,0,10766,9778,11502,26611,19.8032421875,146357,20.270122263559827,999.1951848950673,0,40.689093,-73.991618,1.33,20:35:5
2024-03-17T16:35:05,-1.1282158559,2.9964121008499993,9.584450924299999,0.03497203488683638,-0.001069014166846527,-0.04092797095926703,0.06062000000000001,0.42014000000000007,-0.46158000000000005,13.5,0,10766,9778,11502,26611,19.8032421875,146357,20.270122263559827,999.1951848950673,0,40.689093,-73.991618,1.33,20:35:5
2024-03-17T16:35:05,-1.19820591695,3.0203403268499995,9.6442714893,0.038484510006474966,0.0003054326190990077,-0.041386119887915546,0.06846000000000001,0.42406000000000005,-0.45528,13.5,0,10766,9778,11502,26611,19.8032421875,146357,20.270122263559827,999.1951848950673,0,40.689093,-73.991618,1.33,20:35:5
2024-03-17T16:35:05,-1.22691978815,2.9970103064999996,9.627521731099998,0.04092797095926703,0.0027488935718910697,-0.048411070127192715,0.05978000000000001,0.42490000000000006,-0.4466,13.5,0,10766,9778,11502,26611,19.8032421875,146357,20.270122263559827,999.1951848950673,0,40.689093,-73.991618,1.33,20:35:5
2024-03-17T16:35:05,-1.1898310378499999,2.9521448827499994,9.5641119322,0.036804630601430424,0.0012217304763960308,-0.04382958084070761,0.06146000000000001,0.42462000000000005,-0.45150000000000007,13.5,0,10766,9778,11502,26611,19.8032421875,146357,20.270122263559827,999.1951848950673,0,40.689093,-73.991618,1.33,20:35:5
2024-03-17T16:35:05,-1.1659028118499999,3.0125636533999995,9.6981099978,0.03756821214917795,0.0018325957145940463,-0.04474587869800463,0.06426000000000001,0.42882000000000003,-0.4513600000000001,13.5,0,10766,9778,11502,26611,19.763203125,148286,20.31401118756691,999.1931554674543,0,40.689093,-73.991618,1.33,20:35:5
2024-03-17T16:35:05,-1.23290184465,3.0053851856,9.53479985535,0.038484510006474966,-0.0016798794050445422,-0.041844268816564056,0.06286000000000001,0.42658,-0.45878,13.5,0,10766,9778,11502,26611,19.763203125,148286,20.31401118756691,999.1931554674543,0,40.689093,-73.991618,1.33,20:35:5
2024-03-17T16:35:05,-1.2191431146999998,2.9964121008499993,9.5880401582,0.04092797095926703,0.003054326190990077,-0.04474587869800463,0.0637,0.42014000000000007,-0.46032000000000006,13.5,0,10766,9778,11502,26611,19.763203125,148286,20.31401118756691,999.1931554674543,0,40.689093,-73.991618,1.3,20:35:5
2024-03-17T16:35:05,-1.1880364209,2.9712874635499995,9.6598248362,0.03497203488683638,-0.0007635815477475193,-0.039858956792420505,0.058940000000000006,0.42350000000000004,-0.44996,13.5,0,10766,9778,11502,26611,19.763203125,148286,20.31401118756691,999.1931554674543,0,40.689093,-73.991618,1.3,20:35:5
2024-03-17T16:35:05,-1.2406785180999997,2.9802605483,9.6897351187,0.036499197982331415,-0.0012217304763960308,-0.04489859500755413,0.058940000000000006,0.42350000000000004,-0.44996,13.5,0,10766,9778,11502,26611,19.763203125,148286,20.31401118756691,999.1931554674543,0,40.689088,-73.991614,1.3,20:35:6
2024-03-17T16:35:06,-1.2035897677999998,2.98325157655,9.6167540294,0.038637226316024474,0.0033597588100890844,-0.043982297150257116,0.05922000000000001,0.42434000000000005,-0.45234,13.5,0,10780,9792,11521,26645,19.9641796875,160714,20.387387246516315,999.1674333644299,0,40.689088,-73.991614,1.3,20:35:6
2024-03-17T16:35:06,-1.22452696555,2.96889464095,9.652048162749999,0.03604104905368291,0.0012217304763960308,-0.04505131131710364,0.06594000000000001,0.42882000000000003,-0.46158000000000005,13.5,0,10780,9792,11521,26645,19.9641796875,160714,20.387387246516315,999.1674333644299,0,40.689088,-73.991614,1.3,20:35:6
2024-03-17T16:35:06,-1.1892328321999999,2.9994031290999996,9.6382894328,0.04230241774521256,0.0009162978572970231,-0.0433714319120591,0.05614000000000001,0.41958000000000006,-0.46620000000000006,13.5,0,10780,9792,11521,26645,19.9641796875,160714,20.387387246516315,999.1674333644299,0,40.689088,-73.991614,1.25,20:35:6
2024-03-17T16:35:06,-1.22811619945,3.0101708308,9.616155823749999,0.03252857393404432,0.0015271630954950385,-0.04321871560250959,0.06174000000000001,0.42322000000000004,-0.45500000000000007,13.5,0,10780,9792,11521,26645,19.9641796875,160714,20.387387246516315,999.1674333644299,0,40.689088,-73.991614,1.25,20:35:6
2024-03-17T16:35:06,-1.2275179938,2.99880492345,9.633503787599999,0.001069014166846527,0.003970624048287101,-0.04444044607890562,0.05782000000000001,0.42518000000000006,-0.46438000000000007,13.5,0,10780,9792,11521,26645,19.9641796875,160714,20.387387246516315,999.1674333644299,0,40.689088,-73.991606,1.25,20:35:7
2024-03-17T16:35:07,-1.2107682356,3.0233313550999994,9.6598248362,0.041691552507014555,-0.00045814892864851157,-0.04382958084070761,0.058660000000000004,0.42238000000000003,-0.45752000000000004,13.5,0,10788,9798,11550,26707,19.96359375,156977,20.35137126273334,999.1805997731768,0,40.689088,-73.991606,1.25,20:35:7
2024-03-17T16:35:07,-1.2185449090499998,3.0113672421,9.561120903949998,0.038637226316024474,-0.0012217304763960308,-0.04260785036431157,0.0637,0.42378000000000005,-0.44282000000000005,13.5,0,10788,9798,11550,26707,19.96359375,156977,20.35137126273334,999.1805997731768,0,40.689088,-73.991606,1.25,20:35:7
2024-03-17T16:35:07,-1.2317054333500002,2.9970103064999996,9.58624554125,0.0355829001250344,0.0018325957145940463,-0.04245513405476207,0.06314,0.42434000000000005,-0.44758000000000003,13.5,0,10788,9798,11550,26707,19.96359375,156977,20.35137126273334,999.1805997731768,0,40.689088,-73.991606,1.07,20:35:7
2024-03-17T16:35:07,-1.2442677519999998,3.00957262515,9.655039190999998,0.03436116964863837,0.0003054326190990077,-0.039095375244672985,0.06342,0.42378000000000005,-0.45192,13.5,0,10788,9798,11550,26707,19.96359375,156977,20.35137126273334,999.1805997731768,0,40.689088,-73.991606,1.07,20:35:7
2024-03-17T16:35:07,-1.2382856955,3.00359056865,9.6035935051,0.037110063220529434,-0.0007635815477475193,-0.040622538340168025,0.058660000000000004,0.43162000000000006,-0.45388000000000006,13.5,0,10788,9798,11550,26707,19.96359375,156977,20.35137126273334,999.1805997731768,0,40.689088,-73.991595,1.07,20:35:8
2024-03-17T16:35:08,-1.1168499485499999,3.0089744195,9.593424009049999,0.038789942625573975,0.0024434609527920616,-0.038637226316024474,0.05922000000000001,0.42266000000000004,-0.45598,13.5,0,10793,9802,11562,26739,19.9044140625,156250,20.306817104895153,999.1825665454282,0,40.689088,-73.991595,1.07,20:35:8
2024-03-17T16:35:08,-1.2011969452,2.9934210725999995,9.574879633899998,0.07757988525114795,0.00015271630954950385,-0.04459316238845512,0.060340000000000005,0.41538,-0.44702000000000003,13.5,0,10793,9802,11562,26739,19.9044140625,156250,20.306817104895153,999.1825665454282,0,40.689088,-73.991595,1.07,20:35:8
2024-03-17T16:35:08,-1.2490533971999997,2.9712874635499995,9.53121062145,0.04016438941151951,0.0003054326190990077,-0.0435241482216086,0.0567,0.42266000000000004,-0.45150000000000007,13.5,0,10793,9802,11562,26739,19.9044140625,156250,20.306817104895153,999.1825665454282,0,40.689088,-73.991595,1.53,20:35:8
2024-03-17T16:35:08,-1.1940184774,2.9898318387,9.594022214699999,0.04291328298341058,0.0019853120241435504,-0.04673119072214818,0.06146000000000001,0.42322000000000004,-0.45584,13.5,0,10793,9802,11562,26739,19.9044140625,156250,20.306817104895153,999.1825665454282,0,40.689088,-73.991595,1.53,20:35:8
2024-03-17T16:35:08,-1.2239287599,3.0197421211999997,9.7615197967,0.04321871560250959,-0.00045814892864851157,-0.04291328298341058,0.06146000000000001,0.42322000000000004,-0.45584,13.5,0,10793,9802,11562,26739,19.9044140625,156250,20.306817104895153,999.1825665454282,0,40.689086,-73.991593,1.53,20:35:9
2024-03-17T16:35:09,-1.2801600909999997,3.0317062341999996,9.56829937175,0.03756821214917795,0.0022907446432425577,-0.04153883619746505,0.06398000000000001,0.42714,-0.4478600000000001,13.5,0,10808,9812,11582,26800,19.848359375,154110,20.28301258039972,999.1896354202968,0,40.689086,-73.991593,1.53,20:35:9
2024-03-17T16:35:09,-1.24247313505,2.9748766974499996,9.583254513,0.0009162978572970231,0.0003054326190990077,-0.04291328298341058,0.06566000000000001,0.42238000000000003,-0.45402000000000003,13.5,0,10808,9812,11582,26800,19.848359375,154110,20.28301258039972,999.1896354202968,0,40.689086,-73.991593,1.53,20:35:9
2024-03-17T16:35:09,-1.23290184465,3.0041887742999998,9.667003304,0.041386119887915546,0.0012217304763960308,-0.043676864531158106,0.07182000000000001,0.42546000000000006,-0.44310000000000005,13.5,0,10808,9812,11582,26800,19.848359375,154110,20.28301258039972,999.1896354202968,0,40.689086,-73.991593,0.77,20:35:9
2024-03-17T16:35:09,-1.2335000503,2.9676982296499994,9.580263484749999,0.03756821214917795,0.0006108652381980154,-0.04474587869800463,0.06454,0.42322000000000004,-0.45598,13.5,0,10808,9812,11582,26800,19.848359375,154110,20.28301258039972,999.1896354202968,0,40.689086,-73.991593,0.77,20:35:9
2024-03-17T16:35:09,-1.2741780345,2.9581269392499996,9.508478806749999,0.03787364476827696,0.0006108652381980154,-0.04016438941151951,0.05754000000000001,0.42182000000000003,-0.4520600000000001,13.5,0,10808,9812,11582,26800,19.848359375,154110,20.28301258039972,999.1896354202968,0,40.689083,-73.99159,0.77,20:35:10
2024-03-17T16:35:10,-1.232303639,2.976073108749999,9.629914553699999,0.04153883619746505,0.0015271630954950385,-0.0435241482216086,0.06622000000000001,0.41930000000000006,-0.46564000000000005,13.5,0,10823,9821,11598,26833,19.800703125,154392,20.244306283881386,999.1980875351713,0,40.689083,-73.99159,0.77,20:35:10
2024-03-17T16:35:10,-1.21734849775,3.0029923629999997,9.658628424899998,0.040317105721069016,0.0006108652381980154,-0.04505131131710364,0.0651,0.41790000000000005,-0.46746000000000004,13.5,0,10823,9821,11598,26833,19.800703125,154392,20.244306283881386,999.1980875351713,0,40.689083,-73.99159,0.77,20:35:10
2024-03-17T16:35:10,-1.24008031245,3.0077780082,9.522835742349999,0.04123340357836604,0.0015271630954950385,-0.04657847441259867,0.06818,0.42434000000000005,-0.44576000000000005,13.5,0,10823,9821,11598,26833,19.800703125,154392,20.244306283881386,999.1980875351713,0,40.689083,-73.99159,0.77,20:35:10
2024-03-17T16:35:10,-1.25443724805,2.9748766974499996,9.589834775149999,0.03634648167278191,-0.00015271630954950385,-0.040317105721069016,0.06286000000000001,0.41790000000000005,-0.46438000000000007,13.5,0,10823,9821,11598,26833,19.800703125,154392,20.244306283881386,999.1980875351713,0,40.689083,-73.99159,0.77,20:35:10
2024-03-17T16:35:10,-1.1802597474499998,3.00837621385,9.68076203395,0.038789942625573975,-0.0007635815477475193,-0.039553524173321496,0.06398000000000001,0.41902000000000006,-0.4596200000000001,13.5,0,10823,9821,11598,26833,19.800703125,154392,20.244306283881386,999.1980875351713,0,40.689083,-73.99159,0.77,20:35:10
2024-03-17T16:35:10,-1.22691978815,2.9862426047999997,9.593424009049999,0.03283400655314333,0.0022907446432425577,-0.039095375244672985,0.0651,0.42602000000000007,-0.47026000000000007,13.5,0,10823,9821,11598,26833,19.761640625,154250,20.216380923888753,999.2047177387302,0,40.689083,-73.99159,0.77,20:35:10
2024-03-17T16:35:10,-1.2335000503,3.0167510929499994,9.6634140701,0.0357356164345839,0.0022907446432425577,-0.0435241482216086,0.0651,0.4207,-0.45500000000000007,13.5,0,10823,9821,11598,26833,19.761640625,154250,20.216380923888753,999.2047177387302,0,40.689083,-73.99159,0.77,20:35:10
2024-03-17T16:35:10,-1.23888390115,3.0041887742999998,9.556933464399998,0.036193765363232405,-0.03802636107782646,-0.04260785036431157,0.0651,0.4207,-0.45500000000000007,13.5,0,10823,9821,11598,26833,19.761640625,154250,20.216380923888753,999.2047177387302,0,40.689083,-73.99159,0.96,20:35:10
2024-03-17T16:35:10,-1.2699905949499997,2.98444798785,9.607182738999999,0.038179077387375956,-0.03665191429188092,-0.04260785036431157,0.06146000000000001,0.43246,-0.45528,13.5,0,10823,9821,11598,26833,19.761640625,154250,20.216380923888753,999.2047177387302,0,40.689083,-73.99159,0.96,20:35:10
2024-03-17T16:35:10,-1.2275179938,2.9623143788,9.66879792095,0.039553524173321496,0.0022907446432425577,-0.04734205596034619,0.06146000000000001,0.43246,-0.45528,13.5,0,10823,9821,11598,26833,19.761640625,154250,20.216380923888753,999.2047177387302,0,40.689081,-73.991586,0.96,20:35:11
2024-03-17T16:35:11,-1.2669995667,2.98803722175,9.557531670049999,0.039095375244672985,-0.0018325957145940463,-0.04260785036431157,0.05698,0.41930000000000006,-0.46102000000000004,13.5,0,10831,9825,11608,26851,19.962421875,166749,20.27423595276132,999.1839780259285,0,40.689081,-73.991586,0.96,20:35:11
2024-03-17T16:35:11,-1.2197413203499998,2.9976085121499993,9.495916488099999,0.03665191429188092,-0.0009162978572970231,-0.041996985126113565,0.06286000000000001,0.42350000000000004,-0.46662000000000003,13.5,0,10831,9825,11608,26851,19.962421875,166749,20.27423595276132,999.1839780259285,0,40.689081,-73.991586,0.96,20:35:11
2024-03-17T16:35:11,-1.1946166830499998,3.0293134116,9.623932497199998,0.04214970143566306,0.00045814892864851157,-0.043982297150257116,0.0637,0.41762000000000005,-0.44394000000000006,13.5,0,10831,9825,11608,26851,19.962421875,166749,20.27423595276132,999.1839780259285,0,40.689081,-73.991586,0.86,20:35:11
2024-03-17T16:35:11,-1.2927224096499998,2.98205516525,9.57308501695,0.04123340357836604,-0.03695734691097993,-0.04016438941151951,0.06426000000000001,0.41874000000000006,-0.45990000000000003,13.5,0,10825,9819,11603,26850,19.962421875,166749,20.27423595276132,999.1839780259285,0,40.689081,-73.991586,0.86,20:35:11
2024-03-17T16:35:11,-1.2861421475,3.0017959517,9.5928258034,0.03924809155422249,0.0015271630954950385,-0.04474587869800463,0.06454,0.41734000000000004,-0.46270000000000006,13.5,0,10825,9819,11603,26850,19.962421875,166749,20.27423595276132,999.1839780259285,0,40.68908,-73.991578,0.86,20:35:12
2024-03-17T16:35:12,-1.2430713406999998,2.9916264556499996,9.61974505765,0.04001167310197001,0.004581489286485115,-0.04245513405476207,0.06174000000000001,0.41930000000000006,-0.45808000000000004,13.5,0,10797,9796,11588,26808,19.958515625,160867,20.202125375220344,999.1934730185785,0,40.68908,-73.991578,0.86,20:35:12
2024-03-17T16:35:12,-1.2478569859,2.9994031290999996,9.62692352545,0.040317105721069016,0.0,-0.04046982203061852,0.0623,0.41538,-0.46340000000000003,13.5,0,10797,9796,11588,26808,19.958515625,160867,20.202125375220344,999.1934730185785,0,40.68908,-73.991578,0.86,20:35:12
2024-03-17T16:35:12,-1.2550354536999997,3.0041887742999998,9.629914553699999,0.04230241774521256,0.004123340357836604,-0.040622538340168025,0.05922000000000001,0.41846000000000005,-0.46438000000000007,13.5,0,10797,9796,11588,26808,19.958515625,160867,20.202125375220344,999.1934730185785,0,40.68908,-73.991578,1.03,20:35:12
2024-03-17T16:35:12,-1.2143574695,3.00957262515,9.56949578305,0.03787364476827696,0.038789942625573975,-0.041996985126113565,0.0567,0.42238000000000003,-0.47390000000000004,13.5,0,10797,9796,11588,26808,19.958515625,160867,20.202125375220344,999.1934730185785,0,40.68908,-73.991578,1.03,20:35:12
2024-03-17T16:35:12,-1.27597265145,2.95573411665,9.5042913672,0.03802636107782646,-0.0009162978572970231,-0.039553524173321496,0.0679,0.41958000000000006,-0.46368000000000004,13.5,0,10797,9796,11588,26808,19.958515625,160867,20.202125375220344,999.1934730185785,0,40.689081,-73.991576,1.03,20:35:13
2024-03-17T16:35:13,-1.2526426310999998,3.0155546816499994,9.5916293921,0.041080687268816536,0.0022907446432425577,-0.043982297150257116,0.06734,0.42686,-0.46046000000000004,13.5,0,10767,9767,11568,26753,19.8973828125,158898,20.15753259437399,999.1975354269753,0,40.689081,-73.991576,1.03,20:35:13
2024-03-17T16:35:13,-1.2352946672499998,3.0053851856,9.6012006825,0.04123340357836604,0.0025961772623415654,-0.04123340357836604,0.06398000000000001,0.4151,-0.45920000000000005,13.5,0,10767,9767,11568,26753,19.8973828125,158898,20.15753259437399,999.1975354269753,0,40.689081,-73.991576,1.03,20:35:13
2024-03-17T16:35:13,-1.1856435983,2.998206717799999,9.558728081349999,0.038942658935123484,0.00015271630954950385,-0.04260785036431157,0.06398000000000001,0.4151,-0.45920000000000005,13.5,0,10767,9767,11568,26753,19.8973828125,158898,20.15753259437399,999.1975354269753,0,40.689081,-73.991576,0.63,20:35:13
2024-03-17T16:35:13,-1.2394821068,2.9850461934999997,9.558129875699999,0.04321871560250959,0.0022907446432425577,-0.04321871560250959,0.061180000000000005,0.42154,-0.45738000000000006,13.5,0,10767,9767,11568,26753,19.8973828125,158898,20.15753259437399,999.1975354269753,0,40.689081,-73.991576,0.63,20:35:13
2024-03-17T16:35:13,-1.232303639,2.9958138951999995,9.580263484749999,0.03634648167278191,0.0019853120241435504,-0.0433714319120591,0.061180000000000005,0.42154,-0.45738000000000006,13.5,0,10767,9767,11568,26753,19.8973828125,158898,20.15753259437399,999.1975354269753,0,40.689081,-73.99158,0.63,20:35:14
2024-03-17T16:35:14,-1.1988041226,2.9712874635499995,9.570093988699998,0.038637226316024474,0.0035124751196385882,-0.04413501345980661,0.06174000000000001,0.42574000000000006,-0.46354,13.5,0,10703,9714,11533,26657,19.8407421875,158749,20.097845397658133,999.2018761715019,0,40.689081,-73.99158,0.63,20:35:14
2024-03-17T16:35:14,-1.16709922315,3.0089744195,9.6945207639,0.04291328298341058,0.004276056667386108,-0.04260785036431157,0.06846000000000001,0.42406000000000005,-0.46466,13.5,0,10703,9714,11533,26657,19.8407421875,158749,20.097845397658133,999.2018761715019,0,40.689081,-73.99158,0.63,20:35:14
2024-03-17T16:35:14,-1.1413763801999999,2.9970103064999996,9.58624554125,0.04276056667386108,-0.0024434609527920616,-0.04291328298341058,0.06762,0.42658,-0.45570000000000005,13.5,0,10703,9714,11533,26657,19.8407421875,158749,20.097845397658133,999.2018761715019,0,40.689081,-73.99158,0.13,20:35:14
2024-03-17T16:35:14,-1.2167502921,3.0089744195,9.55513884745,0.03772092845872745,0.0003054326190990077,-0.04001167310197001,0.058940000000000006,0.42294000000000004,-0.44954,13.5,0,10703,9714,11533,26657,19.8407421875,158749,20.097845397658133,999.2018761715019,0,40.689081,-73.99158,0.13,20:35:14
2024-03-17T16:35:14,-1.1814561587499999,3.0293134116,9.5066841898,0.041996985126113565,0.0018325957145940463,-0.04291328298341058,0.058940000000000006,0.42294000000000004,-0.44954,13.5,0,10703,9714,11533,26657,19.8407421875,158749,20.097845397658133,999.2018761715019,0,40.689081,-73.991585,0.13,20:35:15
2024-03-17T16:35:15,-1.2358928728999998,3.0029923629999997,9.61256658985,0.03695734691097993,0.0019853120241435504,-0.04245513405476207,0.06902000000000001,0.42574000000000006,-0.45444000000000007,13.5,0,10680,9693,11511,26619,19.7940625,157416,20.07977634447795,999.2083946197068,0,40.689081,-73.991585,0.13,20:35:15
2024-03-17T16:35:15,-1.1904292435,2.9934210725999995,9.5617191096,0.03802636107782646,-0.0006108652381980154,-0.04657847441259867,0.06146000000000001,0.42798,-0.46732000000000007,13.5,0,10680,9693,11511,26619,19.7940625,157416,20.07977634447795,999.2083946197068,0,40.689081,-73.991585,0.13,20:35:15
2024-03-17T16:35:15,-1.2675977723499998,2.98803722175,9.5688975774,0.03772092845872745,0.0018325957145940463,-0.04276056667386108,0.06398000000000001,0.42210000000000003,-0.45626000000000005,13.5,0,10680,9693,11511,26619,19.7940625,157416,20.07977634447795,999.2083946197068,0,40.689081,-73.991585,0.13,20:35:15
2024-03-17T16:35:15,-1.2197413203499998,2.9694928465999992,9.615557618099999,0.04001167310197001,0.0,-0.04520402762665314,0.06454,0.42406000000000005,-0.45808000000000004,13.5,0,10680,9693,11511,26619,19.7940625,157416,20.07977634447795,999.2083946197068,0,40.689081,-73.991585,0.13,20:35:15
2024-03-17T16:35:15,-1.2717852119,2.9808587539499998,9.610771972899999,0.031154127148098783,0.0013744467859455349,-0.04413501345980661,0.06286000000000001,0.42126,-0.4537400000000001,13.5,0,10680,9693,11511,26619,19.7940625,157416,20.07977634447795,999.2083946197068,0,40.689081,-73.991585,0.13,20:35:15
2024-03-17T16:35:15,-1.2747762401499998,2.95932335055,9.491729048549999,0.036193765363232405,0.002901609881440573,-0.04520402762665314,0.06818,0.42098,-0.45682000000000006,13.5,0,10680,9693,11511,26619,19.756953125,156540,20.04689117098969,999.2093962365542,0,40.689081,-73.991585,0.13,20:35:15
2024-03-17T16:35:15,-1.1772687192,2.9994031290999996,9.6454679006,0.039095375244672985,0.0024434609527920616,-0.04474587869800463,0.05194000000000001,0.43106000000000005,-0.45514000000000004,13.5,0,10680,9693,11511,26619,19.756953125,156540,20.04689117098969,999.2093962365542,0,40.689081,-73.991585,0.13,20:35:15
2024-03-17T16:35:15,-1.2598210988999998,2.9563323222999998,9.620941468949999,0.04489859500755413,0.0013744467859455349,-0.04489859500755413,0.06342,0.42826000000000003,-0.47180000000000005,13.5,0,10680,9693,11511,26619,19.756953125,156540,20.04689117098969,999.2093962365542,0,40.689081,-73.991585,0.52,20:35:15
2024-03-17T16:35:15,-1.2197413203499998,2.97966234265,9.580263484749999,0.038789942625573975,0.0019853120241435504,-0.04505131131710364,0.06342,0.42742,-0.4526200000000001,13.5,0,10680,9693,11511,26619,19.756953125,156540,20.04689117098969,999.2093962365542,0,40.689081,-73.991585,0.52,20:35:15
2024-03-17T16:35:15,-1.2203395259999998,2.9742784917999994,9.606584533349999,0.041996985126113565,0.0027488935718910697,-0.040622538340168025,0.06454,0.41790000000000005,-0.45976000000000006,13.5,0,10680,9693,11511,26619,19.756953125,156540,20.04689117098969,999.2093962365542,0,40.689083,-73.991593,0.52,20:35:16
2024-03-17T16:35:16,-1.2059825903999999,2.979064137,9.610771972899999,0.0027488935718910697,0.0013744467859455349,-0.043676864531158106,0.05194000000000001,0.42350000000000004,-0.47082000000000007,13.5,0,10632,9646,11475,26507,19.958515625,167577,20.09951010830733,999.1881758579361,0,40.689083,-73.991593,0.52,20:35:16
2024-03-17T16:35:16,-1.28075829665,2.99880492345,9.67597638875,0.038331793696925465,0.004581489286485115,-0.04276056667386108,0.06482,0.42182000000000003,-0.47222000000000003,13.5,0,10632,9646,11475,26507,19.958515625,167577,20.09951010830733,999.1881758579361,0,40.689083,-73.991593,0.52,20:35:16
2024-03-17T16:35:16,-1.1168499485499999,2.98444798785,9.59462042035,0.038331793696925465,0.0016798794050445422,-0.041080687268816536,0.0665,0.43274000000000007,-0.4548600000000001,13.5,0,10632,9646,11475,26507,19.958515625,167577,20.09951010830733,999.1881758579361,0,40.689083,-73.991593,1.01,20:35:16
2024-03-17T16:35:16,-1.23768748985,2.9772695200499997,9.631110965,0.03741549583962844,0.0018325957145940463,-0.04550946024575215,0.05922000000000001,0.42574000000000006,-0.4508000000000001,13.5,0,10632,9646,11475,26507,19.958515625,167577,20.09951010830733,999.1881758579361,0,40.689083,-73.991593,1.01,20:35:16
2024-03-17T16:35:16,-1.2454641632999999,3.0149564759999996,9.6933243526,0.03741549583962844,0.00015271630954950385,-0.041386119887915546,0.06062000000000001,0.42462000000000005,-0.47390000000000004,13.5,0,10632,9646,11475,26507,19.958515625,167577,20.09951010830733,999.1881758579361,0,40.689081,-73.991596,1.01,20:35:17
2024-03-17T16:35:17,-1.2771690627499999,2.9970103064999996,9.6131647955,0.039400807863771994,0.0016798794050445422,-0.04413501345980661,0.0609,0.42322000000000004,-0.4526200000000001,13.5,0,10602,9620,11456,26458,19.95578125,163835,20.037826142365432,999.1995896929733,0,40.689081,-73.991596,1.01,20:35:17
2024-03-17T16:35:17,-1.2335000503,3.00837621385,9.634101993249999,0.03756821214917795,-0.038331793696925465,-0.04459316238845512,0.05306,0.41818000000000005,-0.45388000000000006,13.5,0,10602,9620,11456,26458,19.95578125,163835,20.037826142365432,999.1995896929733,0,40.689081,-73.991596,1.01,20:35:17
2024-03-17T16:35:17,-1.17547410225,2.99043004435,9.617950440699998,0.038637226316024474,0.002901609881440573,-0.0433714319120591,0.05306,0.41818000000000005,-0.45388000000000006,13.5,0,10602,9620,11456,26458,19.95578125,163835,20.037826142365432,999.1995896929733,0,40.689081,-73.991596,0.74,20:35:17
2024-03-17T16:35:17,-1.2418749294,3.00717980255,9.5330052384,0.038637226316024474,-0.0009162978572970231,-0.043676864531158106,0.06426000000000001,0.41902000000000006,-0.44688000000000005,13.5,0,10602,9620,11456,26458,19.95578125,163835,20.037826142365432,999.1995896929733,0,40.689081,-73.991596,0.74,20:35:17
2024-03-17T16:35:17,-1.2125628525499998,3.0161528872999996,9.5521478192,0.038789942625573975,0.0025961772623415654,-0.0435241482216086,0.0623,0.42322000000000004,-0.4631200000000001,13.5,0,10602,9620,11456,26458,19.95578125,163835,20.037826142365432,999.1995896929733,0,40.68908,-73.991593,0.74,20:35:18
2024-03-17T16:35:18,-1.2167502921,2.9940192782499997,9.673583566149999,0.041386119887915546,0.0036651914291880926,-0.04321871560250959,0.07322000000000001,0.42322000000000004,-0.46830000000000005,13.5,0,10574,9592,11432,26402,19.895234375,161021,19.998472820343185,999.1993136934219,0,40.68908,-73.991593,0.74,20:35:18
2024-03-17T16:35:18,-1.2406785180999997,2.97009105225,9.593424009049999,0.03481931857728687,-0.0003054326190990077,-0.039858956792420505,0.06622000000000001,0.42322000000000004,-0.46438000000000007,13.5,0,10574,9592,11432,26402,19.895234375,161021,19.998472820343185,999.1993136934219,0,40.68908,-73.991593,0.74,20:35:18
2024-03-17T16:35:18,-1.2011969452,2.976073108749999,9.62931634805,0.04092797095926703,-0.00045814892864851157,-0.04612032548395016,0.06986000000000002,0.42742,-0.44716,13.5,0,10574,9592,11432,26402,19.895234375,161021,19.998472820343185,999.1993136934219,0,40.68908,-73.991593,0.16,20:35:18
2024-03-17T16:35:18,-1.2101700299499998,3.0113672421,9.544371145749999,0.04092797095926703,0.0012217304763960308,-0.04428772976935611,0.07042,0.42014000000000007,-0.46102000000000004,13.5,0,10574,9592,11432,26402,19.895234375,161021,19.998472820343185,999.1993136934219,0,40.68908,-73.991593,0.16,20:35:18
2024-03-17T16:35:18,-1.20059873955,2.9623143788,9.6095755616,0.041386119887915546,-0.0009162978572970231,-0.04535674393620265,0.06874000000000001,0.4277,-0.44884,13.5,0,10545,9564,11405,26341,19.895234375,161021,19.998472820343185,999.1993136934219,0,40.689078,-73.991596,0.16,20:35:19
2024-03-17T16:35:19,-1.0851450490999999,2.95932335055,9.605388122049998,0.03787364476827696,-0.001069014166846527,-0.041386119887915546,0.0609,0.42518000000000006,-0.4561200000000001,13.5,0,10519,9538,11381,26277,19.83703125,159348,19.964399241235785,999.2010947239106,0,40.689078,-73.991596,0.16,20:35:19
2024-03-17T16:35:19,-1.1808579531,2.9742784917999994,9.61137017855,0.03756821214917795,-0.0018325957145940463,-0.043676864531158106,0.06426000000000001,0.42462000000000005,-0.45346000000000003,13.5,0,10519,9538,11381,26277,19.83703125,159348,19.964399241235785,999.2010947239106,0,40.689078,-73.991596,0.16,20:35:19
2024-03-17T16:35:19,-1.1862418039499998,2.9994031290999996,9.56351372655,0.04260785036431157,0.00473420559603462,-0.04291328298341058,0.06174000000000001,0.42826000000000003,-0.4536,13.5,0,10519,9538,11381,26277,19.83703125,159348,19.964399241235785,999.2010947239106,0,40.689078,-73.991596,0.39,20:35:19
2024-03-17T16:35:19,-1.2311072276999997,2.9718856691999997,9.607780944649999,0.039095375244672985,-0.0019853120241435504,-0.039095375244672985,0.05782000000000001,0.41958000000000006,-0.45332000000000006,13.5,0,10519,9538,11381,26277,19.83703125,159348,19.964399241235785,999.2010947239106,0,40.689078,-73.991596,0.39,20:35:19
2024-03-17T16:35:19,-1.26640136105,2.976073108749999,9.58265630735,0.005192354524683131,-0.00045814892864851157,-0.04382958084070761,0.06538000000000001,0.43302,-0.4501,13.5,0,10519,9538,11381,26277,19.83703125,159348,19.964399241235785,999.2010947239106,0,40.68908,-73.991596,0.39,20:35:20
2024-03-17T16:35:20,-1.2161520864499997,2.9730820805,9.647860723199999,0.040622538340168025,0.0018325957145940463,-0.04505131131710364,0.06146000000000001,0.41930000000000006,-0.4571,13.5,0,10494,9513,11365,26244,19.7880078125,157710,19.935989420395416,999.2055389453432,0,40.68908,-73.991596,0.39,20:35:20
2024-03-17T16:35:20,-1.2011969452,2.9826533709,9.61854864635,0.03772092845872745,0.0012217304763960308,-0.04276056667386108,0.06314,0.42350000000000004,-0.45248,13.5,0,10494,9513,11365,26244,19.7880078125,157710,19.935989420395416,999.2055389453432,0,40.68908,-73.991596,0.39,20:35:20
2024-03-17T16:35:20,-1.24965160285,2.976073108749999,9.543174734449998,0.03481931857728687,0.0036651914291880926,-0.04489859500755413,0.06314,0.42350000000000004,-0.45248,13.5,0,10494,9513,11365,26244,19.7880078125,157710,19.935989420395416,999.2055389453432,0,40.68908,-73.991596,0.39,20:35:20
2024-03-17T16:35:20,-1.21495567515,2.9521448827499994,9.629914553699999,0.04230241774521256,0.0036651914291880926,-0.043676864531158106,0.06314,0.41762000000000005,-0.43652,13.5,0,10494,9513,11365,26244,19.7880078125,157710,19.935989420395416,999.2055389453432,0,40.68908,-73.991596,0.39,20:35:20
2024-03-17T16:35:20,-1.2221341429499997,2.9814569596,9.6000042712,0.039400807863771994,0.0003054326190990077,-0.04627304179349966,0.06482,0.42378000000000005,-0.46032000000000006,13.5,0,10494,9513,11365,26244,19.7880078125,157710,19.935989420395416,999.2055389453432,0,40.68908,-73.991596,0.39,20:35:20
2024-03-17T16:35:20,-1.2095718242999998,2.9826533709,9.574879633899998,0.040317105721069016,0.0019853120241435504,-0.039858956792420505,0.06398000000000001,0.42434000000000005,-0.45458000000000004,13.5,0,10494,9513,11365,26244,19.7489453125,157416,19.913280132657505,999.2104012368409,0,40.68908,-73.991596,0.39,20:35:20
2024-03-17T16:35:20,-1.23409825595,2.98325157655,9.61017376725,0.03787364476827696,-0.0022907446432425577,-0.04245513405476207,0.06846000000000001,0.41930000000000006,-0.46242,13.5,0,10479,9495,11351,26221,19.7489453125,157416,19.913280132657505,999.2104012368409,0,40.68908,-73.991596,0.39,20:35:20
2024-03-17T16:35:20,-1.2418749294,2.9802605483,9.627521731099998,0.0012217304763960308,-0.004886921905584123,-0.04276056667386108,0.0665,0.42798,-0.45542,13.5,0,10479,9495,11351,26221,19.7489453125,157416,19.913280132657505,999.2104012368409,0,40.68908,-73.991596,0.24,20:35:20
2024-03-17T16:35:20,-1.2215359372999999,3.0029923629999997,9.59581683165,0.038331793696925465,0.00015271630954950385,-0.04520402762665314,0.0665,0.42210000000000003,-0.4585000000000001,13.5,0,10479,9495,11351,26221,19.7489453125,157416,19.913280132657505,999.2104012368409,0,40.68908,-73.991596,0.24,20:35:20
2024-03-17T16:35:20,-1.1772687192,3.00478697995,9.660423041849999,0.038484510006474966,-0.003207042500539581,-0.0433714319120591,0.06342,0.42602000000000007,-0.46172,13.5,0,10479,9495,11351,26221,19.7489453125,157416,19.913280132657505,999.2104012368409,0,40.689078,-73.991593,0.24,20:35:21
2024-03-17T16:35:21,-1.2532408367499999,2.9850461934999997,9.674181771799999,0.04092797095926703,-0.0015271630954950385,-0.04596760917440065,0.06062000000000001,0.42238000000000003,-0.44394000000000006,13.5,0,10464,9479,11333,26183,19.9501171875,168919,19.970883801486305,999.1920802767214,0,40.689078,-73.991593,0.24,20:35:21
2024-03-17T16:35:21,-1.2185449090499998,3.0059833912499996,9.629914553699999,0.03726277953007894,0.00045814892864851157,-0.04474587869800463,0.05754000000000001,0.41650000000000004,-0.4625600000000001,13.5,0,10464,9479,11333,26183,19.9501171875,168919,19.970883801486305,999.1920802767214,0,40.689078,-73.991593,0.24,20:35:21
2024-03-17T16:35:21,-1.2041879734499998,3.01316185905,9.6574320136,0.0357356164345839,0.0018325957145940463,-0.04428772976935611,0.05754000000000001,0.41650000000000004,-0.4625600000000001,13.5,0,10464,9479,11333,26183,19.9501171875,168919,19.970883801486305,999.1920802767214,0,40.689078,-73.991593,0.29,20:35:21
2024-03-17T16:35:21,-1.14436740845,2.9521448827499994,9.647262517549999,0.03588833274413341,0.0013744467859455349,-0.041080687268816536,0.0623,0.41706000000000004,-0.45878,13.5,0,10464,9479,11333,26183,19.9501171875,168919,19.970883801486305,999.1920802767214,0,40.689078,-73.991593,0.29,20:35:21
2024-03-17T16:35:21,-1.1718848683499998,3.0065815969000003,9.61854864635,0.038179077387375956,-0.0015271630954950385,-0.0433714319120591,0.0623,0.41706000000000004,-0.45878,13.5,0,10464,9479,11333,26183,19.9501171875,168919,19.970883801486305,999.1920802767214,0,40.689071,-73.991583,0.29,20:35:22
2024-03-17T16:35:22,-1.13718894065,2.9581269392499996,9.610771972899999,0.036499197982331415,0.00045814892864851157,-0.0433714319120591,0.05446000000000001,0.42266000000000004,-0.45584,13.5,0,10437,9456,11312,26128,19.9466015625,166093,19.9297063697795,999.193386062343,0,40.689071,-73.991583,0.29,20:35:22
2024-03-17T16:35:22,-1.2071790017,3.0017959517,9.57069219435,0.03512475119638588,-0.0012217304763960308,-0.038789942625573975,0.06006,0.42462000000000005,-0.45584,13.5,0,10437,9456,11312,26128,19.9466015625,166093,19.9297063697795,999.193386062343,0,40.689071,-73.991583,0.29,20:35:22
2024-03-17T16:35:22,-1.3040883169999997,3.00478697995,9.607780944649999,0.03756821214917795,-0.001069014166846527,-0.04123340357836604,0.06734,0.42294000000000004,-0.45878,13.5,0,10437,9456,11312,26128,19.9466015625,166093,19.9297063697795,999.193386062343,0,40.689071,-73.991583,0.82,20:35:22
2024-03-17T16:35:22,-1.22452696555,3.00478697995,9.6394858441,0.03543018381548489,-0.0007635815477475193,-0.04214970143566306,0.0623,0.41790000000000005,-0.46438000000000007,13.5,0,10437,9456,11312,26128,19.9466015625,166093,19.9297063697795,999.193386062343,0,40.689071,-73.991583,0.82,20:35:22
2024-03-17T16:35:22,-1.2209377316499999,3.01435827035,9.55992449265,0.038789942625573975,0.0015271630954950385,-0.04276056667386108,0.06062000000000001,0.42658,-0.4536,13.5,0,10437,9456,11312,26128,19.9466015625,166093,19.9297063697795,999.193386062343,0,40.689071,-73.99157,0.82,20:35:23
2024-03-17T16:35:23,-1.2502498084999998,2.98444798785,9.620343263299999,0.038942658935123484,0.0018325957145940463,-0.04581489286485116,0.0679,0.41762000000000005,-0.46004,13.5,0,10407,9427,11284,26076,19.88390625,162886,19.880043495884948,999.2019484099727,0,40.689071,-73.99157,0.82,20:35:23
2024-03-17T16:35:23,-1.20777720735,2.9647072013999995,9.5964150373,0.04046982203061852,0.0016798794050445422,-0.04596760917440065,0.06930000000000001,0.41594000000000003,-0.46032000000000006,13.5,0,10385,9406,11265,26024,19.88390625,162886,19.880043495884948,999.2019484099727,0,40.689071,-73.99157,0.82,20:35:23
2024-03-17T16:35:23,-1.1886346265499999,3.0221349437999994,9.620343263299999,0.038331793696925465,0.0022907446432425577,-0.041844268816564056,0.06538000000000001,0.42658,-0.45696000000000003,13.5,0,10385,9406,11265,26024,19.88390625,162886,19.880043495884948,999.2019484099727,0,40.689071,-73.99157,1.16,20:35:23
2024-03-17T16:35:23,-1.1730812796499999,2.9958138951999995,9.601798888149998,0.03359758810089085,-0.0006108652381980154,-0.038942658935123484,0.06930000000000001,0.41930000000000006,-0.46466,13.5,0,10385,9406,11265,26024,19.88390625,162886,19.880043495884948,999.2019484099727,0,40.689071,-73.99157,1.16,20:35:23
2024-03-17T16:35:23,-1.208375413,3.0053851856,9.585049129949999,0.039858956792420505,-0.0007635815477475193,-0.04153883619746505,0.06454,0.41174000000000005,-0.45948,13.5,0,10385,9406,11265,26024,19.88390625,162886,19.880043495884948,999.2019484099727,0,40.689073,-73.99157,1.16,20:35:24
2024-03-17T16:35:24,-1.2412767237499998,2.9916264556499996,9.616155823749999,0.03543018381548489,0.00045814892864851157,-0.04077525464971753,0.058940000000000006,0.42014000000000007,-0.45626000000000005,13.5,0,10365,9387,11250,25972,19.8290234375,161793,19.866675072154734,999.2021027752527,0,40.689073,-73.99157,1.16,20:35:24
