Timestamp,Accel_X,Accel_Y,Accel_Z,Gyro_X,Gyro_Y,Gyro_Z,Mag_X,Mag_Y,Mag_Z,LSM9DS1_Temp,Proximity,Color_R,Color_G,Color_B,Color_C,BME680_Temp,Gas,Humidity,Pressure,Switch_Pressed
2024-03-17T10:18:04,-0.31645078885,0.04725824635,10.0582297991,0.041996985126113565,-0.01832595714594046,-0.04505131131710364,0.05222,0.4949,-0.44450000000000006,20.5,0,0,0,0,0,33.574921875,30251,100,695.662002676745,0
2024-03-17T10:18:04,-0.2883351233,0.029910282499999996,10.091729315499999,0.043982297150257116,-0.004276056667386108,-0.05192354524683131,0.055020000000000006,0.49770000000000003,-0.4601800000000001,21.5,0,0,0,0,0,33.574921875,30251,100,695.662002676745,0
2024-03-17T10:18:04,-0.32901310749999996,0.03649054465,10.14018397315,0.04092797095926703,-0.002138028333693054,-0.048411070127192715,0.06062000000000001,0.49462000000000006,-0.44576000000000005,20.5,0,0,0,0,0,33.574921875,30251,100,695.662002676745,0
2024-03-17T10:18:04,-0.33858439789999994,0.060418770649999995,10.054042359550001,0.04092797095926703,-0.002901609881440573,-0.04566217655530165,0.06062000000000001,0.49462000000000006,-0.44576000000000005,20.5,0,0,0,0,0,33.574921875,30251,100,695.662002676745,0
2024-03-17T10:18:04,-0.3391826035499999,0.01615155255,10.14018397315,0.04230241774521256,0.0056505034533316425,-0.0476474885794452,0.05698,0.5019,-0.4459,20.5,0,0,0,0,0,33.574921875,30251,100,695.662002676745,0
2024-03-17T10:18:04,-0.34277183744999995,0.0538385085,10.0235338714,0.040622538340168025,0.0006108652381980154,-0.04459316238845512,0.0553,0.4968600000000001,-0.45920000000000005,20.5,0,0,0,0,0,33.574921875,30251,100,695.662002676745,0
2024-03-17T10:18:04,-0.30448667585,0.0095712904,10.106086251099997,0.04077525464971753,0.0025961772623415654,-0.04382958084070761,0.0553,0.4968600000000001,-0.45920000000000005,20.5,0,0,0,0,0,33.574921875,30251,100,695.662002676745,0
2024-03-17T10:18:04,-0.32422746229999994,0.028713871199999998,10.052845948249999,0.04612032548395016,0.0022907446432425577,-0.0476474885794452,0.05362000000000001,0.4974200000000001,-0.46088000000000007,20.5,0,0,0,0,0,26.649921875,11719,28.05985949149119,1000.8128852775938,0
2024-03-17T10:18:04,-0.3152543775499999,0.005383850849999999,10.249057401449999,0.0435241482216086,-0.004581489286485115,-0.049327367984489744,0.050820000000000004,0.50414,-0.44996,20.5,0,0,0,0,0,26.649921875,11719,28.05985949149119,1000.8128852775938,0
2024-03-17T10:18:04,-0.30867411539999995,0.005383850849999999,10.08036340815,0.04276056667386108,-0.005039638215133627,-0.04581489286485116,0.05782000000000001,0.4907,-0.45696000000000003,20.5,0,0,0,0,0,26.649921875,11719,28.05985949149119,1000.8128852775938,0
2024-03-17T10:18:04,-0.28713871199999996,0.020338992099999998,10.1024970172,0.043676864531158106,0.00045814892864851157,-0.041386119887915546,0.05446000000000001,0.49714,-0.46298,20.5,0,0,0,0,0,26.649921875,11719,28.05985949149119,1000.8128852775938,0
2024-03-17T10:18:04,-0.31704899449999996,0.051445685899999996,10.076175968599998,0.04612032548395016,-0.005345070834232635,-0.04321871560250959,0.05446000000000001,0.49714,-0.46298,20.5,0,0,0,0,0,26.649921875,11719,28.05985949149119,1000.8128852775938,0
2024-03-17T10:18:04,-0.31944181709999997,0.06101697629999999,10.136594739249999,0.04489859500755413,0.00015271630954950385,-0.04382958084070761,0.054740000000000004,0.49210000000000004,-0.46298,20.5,0,0,0,0,0,26.649921875,11719,28.05985949149119,1000.8128852775938,0
2024-03-17T10:18:04,-0.3278166962,0.0,10.086943670299998,0.041691552507014555,-0.0027488935718910697,-0.04978551691313826,0.06006,0.49938000000000005,-0.44198000000000004,20.5,0,0,0,0,0,26.649921875,11719,28.05985949149119,1000.8128852775938,0
2024-03-17T10:18:04,-0.30329026454999997,0.029910282499999996,10.122836009299998,0.04673119072214818,-0.006108652381980154,-0.04520402762665314,0.06006,0.49938000000000005,-0.44198000000000004,20.5,0,0,0,0,0,26.8940625,22065,28.107368244321602,1000.8139635362826,0
2024-03-17T10:18:04,-0.28235306679999994,0.031106693799999998,10.0905329042,0.04734205596034619,-0.0054977871437821395,-0.04474587869800463,0.05586000000000001,0.50078,-0.44520000000000004,20.5,0,0,0,0,0,26.8940625,22065,28.107368244321602,1000.8139635362826,0
2024-03-17T10:18:04,-0.3176472001499999,0.030508488149999995,10.101300605899999,0.04413501345980661,-0.0038179077387375964,-0.04734205596034619,0.05586000000000001,0.50078,-0.44520000000000004,20.5,0,0,0,0,0,26.8940625,22065,28.107368244321602,1000.8139635362826,0
2024-03-17T10:18:04,-0.3038884702,0.044267218100000005,10.105488045449999,0.04642575810304917,-0.007635815477475193,-0.048716502746291725,0.052500000000000005,0.4974200000000001,-0.4614400000000001,20.5,0,0,0,0,0,26.8940625,22065,28.107368244321602,1000.8139635362826,0
2024-03-17T10:18:04,-0.3152543775499999,0.015553346899999999,10.0821580251,0.04123340357836604,-0.001069014166846527,-0.04810563750809371,0.05586000000000001,0.49546,-0.4520600000000001,20.5,0,0,0,0,0,26.8940625,22065,28.107368244321602,1000.8139635362826,0
2024-03-17T10:18:04,-0.32662028489999995,0.025722842949999998,10.0749795573,0.04153883619746505,0.0,-0.043676864531158106,0.05586000000000001,0.49546,-0.4520600000000001,20.5,0,0,0,0,0,26.8940625,22065,28.107368244321602,1000.8139635362826,0
2024-03-17T10:18:04,-0.3038884702,0.03409772205,10.1072826624,0.04428772976935611,-0.0015271630954950385,-0.041691552507014555,0.0567,0.49014,-0.4585000000000001,20.5,0,0,0,0,0,26.8940625,22065,28.107368244321602,1000.8139635362826,0
2024-03-17T10:18:04,-0.33200413574999993,0.0334995164,10.11505933585,0.04596760917440065,-0.0019853120241435504,-0.048258353817643214,0.052500000000000005,0.49434000000000006,-0.45794000000000007,20.5,0,0,0,0,0,27.2544140625,33044,28.153390027988532,1000.8216276532227,0
2024-03-17T10:18:04,-0.29910282499999996,0.030508488149999995,10.061819032999999,0.04581489286485116,-0.0044287729769356115,-0.04627304179349966,0.06062000000000001,0.49658,-0.4478600000000001,20.5,0,0,0,0,0,27.2544140625,33044,28.153390027988532,1000.8216276532227,0
2024-03-17T10:18:04,-0.32422746229999994,0.0370887503,10.1072826624,0.0433714319120591,-0.002901609881440573,-0.04550946024575215,0.05362000000000001,0.49518000000000006,-0.45878,20.5,0,2139,1095,758,3827,27.2544140625,33044,28.153390027988532,1000.8216276532227,0
2024-03-17T10:18:04,-0.33499516399999996,0.029312076849999997,10.1084790737,0.04413501345980661,-0.0033597588100890844,-0.048716502746291725,0.05362000000000001,0.49518000000000006,-0.45878,20.5,0,2139,1095,758,3827,27.2544140625,33044,28.153390027988532,1000.8216276532227,0
2024-03-17T10:18:04,-0.28474588939999995,0.027517459899999996,10.085747258999998,0.04566217655530165,-0.0036651914291880926,-0.04260785036431157,0.057260000000000005,0.49238000000000004,-0.44744000000000006,20.5,0,2139,1095,758,3827,27.2544140625,33044,28.153390027988532,1000.8216276532227,0
2024-03-17T10:18:04,-0.3158525832,0.028713871199999998,10.0462656861,0.043676864531158106,-0.003970624048287101,-0.04627304179349966,0.05586000000000001,0.49182000000000003,-0.45626000000000005,20.5,0,2139,1095,758,3827,27.2544140625,33044,28.153390027988532,1000.8216276532227,0
2024-03-17T10:18:04,-0.29910282499999996,0.025722842949999998,10.10668445675,0.04153883619746505,-0.004276056667386108,-0.0433714319120591,0.05586000000000001,0.49182000000000003,-0.45626000000000005,20.5,0,2139,1095,758,3827,27.2544140625,33044,28.153390027988532,1000.8216276532227,0
2024-03-17T10:18:04,-0.33200413574999993,0.04007977854999999,10.08395264205,0.04046982203061852,-0.005192354524683131,-0.041996985126113565,0.049980000000000004,0.49266000000000004,-0.4590600000000001,20.5,0,2139,1095,758,3827,27.6395703125,43268,28.196040738208282,1000.8315148234622,0
2024-03-17T10:18:04,-0.3493520996,0.060418770649999995,10.051649536949999,0.04505131131710364,-0.0012217304763960308,-0.04474587869800463,0.05978000000000001,0.49938000000000005,-0.44520000000000004,20.5,0,2139,1095,758,3827,27.6395703125,43268,28.196040738208282,1000.8315148234622,0
2024-03-17T10:18:04,-0.34217363179999993,0.0538385085,10.0929257268,0.04291328298341058,0.00015271630954950385,-0.04780020488899471,0.05978000000000001,0.49826000000000004,-0.4529,20.5,0,2139,1095,758,3827,27.6395703125,43268,28.196040738208282,1000.8315148234622,0
2024-03-17T10:18:04,-0.31345976059999997,0.01734796385,10.051649536949999,0.04413501345980661,-0.002138028333693054,-0.04520402762665314,0.05782000000000001,0.49266000000000004,-0.4571,21.5,0,2139,1095,758,3827,27.6395703125,43268,28.196040738208282,1000.8315148234622,0
2024-03-17T10:18:04,-0.30329026454999997,0.03649054465,10.0654082669,0.03924809155422249,-0.0009162978572970231,-0.04474587869800463,0.05782000000000001,0.49266000000000004,-0.4571,21.5,0,2139,1095,758,3827,27.6395703125,43268,28.196040738208282,1000.8315148234622,0
2024-03-17T10:18:04,-0.33798619224999993,0.057427742399999995,10.137192944899999,0.04382958084070761,-0.0018325957145940463,-0.04489859500755413,0.06062000000000001,0.49350000000000005,-0.44184,20.5,0,2139,1095,758,3827,27.6395703125,43268,28.196040738208282,1000.8315148234622,0
2024-03-17T10:18:04,-0.3152543775499999,0.022133609050000003,10.18325477995,0.041386119887915546,-0.0056505034533316425,-0.04718933965079669,0.05922000000000001,0.4963000000000001,-0.44492000000000004,20.5,0,2139,1095,758,3827,27.6395703125,43268,28.196040738208282,1000.8315148234622,0
2024-03-17T10:18:04,-0.31465617189999995,0.04307080679999999,10.1024970172,0.039858956792420505,-0.0016798794050445422,-0.0433714319120591,0.05922000000000001,0.4963000000000001,-0.44492000000000004,20.5,0,2139,1095,758,3827,28.0079296875,52109,28.193058953449867,1000.8510067544547,0
2024-03-17T10:18:05,-0.3098705267,0.04366901245,10.089934698549998,0.04123340357836604,-0.004123340357836604,-0.04627304179349966,0.06006,0.4968600000000001,-0.45332000000000006,20.5,0,2139,1095,758,3827,28.0079296875,52109,28.193058953449867,1000.8510067544547,0
2024-03-17T10:18:05,-0.32422746229999994,0.0334995164,10.091729315499999,0.04382958084070761,-0.005345070834232635,-0.048258353817643214,0.06006,0.4968600000000001,-0.45332000000000006,20.5,0,2139,1095,758,3827,28.0079296875,52109,28.193058953449867,1000.8510067544547,0
2024-03-17T10:18:05,-0.30089744194999996,0.04486542375,10.0941221381,0.04413501345980661,-0.0013744467859455349,-0.04092797095926703,0.0567,0.49602,-0.45052000000000003,21.5,0,2139,1095,758,3827,28.0079296875,52109,28.193058953449867,1000.8510067544547,0
2024-03-17T10:18:05,-0.31286155495,0.032901310749999996,10.0438728635,0.04428772976935611,-0.004123340357836604,-0.04673119072214818,0.05278000000000001,0.48734000000000005,-0.45836000000000005,20.5,0,2139,1095,758,3827,28.0079296875,52109,28.193058953449867,1000.8510067544547,0
2024-03-17T10:18:05,-0.31824540579999994,0.028115665550000002,10.109077279349998,0.04291328298341058,-0.0015271630954950385,-0.04505131131710364,0.05278000000000001,0.48734000000000005,-0.45836000000000005,20.5,0,2139,1095,758,3827,28.0079296875,52109,28.193058953449867,1000.8510067544547,0
2024-03-17T10:18:05,-0.33678978094999995,0.011365907350000001,10.0701939121,0.04276056667386108,-0.00595593607243065,-0.04520402762665314,0.0539,0.49378000000000005,-0.45696000000000003,20.5,0,2139,1095,758,3827,28.0079296875,52109,28.193058953449867,1000.8510067544547,0
2024-03-17T10:18:05,-0.32063822839999995,0.056231331100000004,10.12223780365,0.049021935365390734,0.0013744467859455349,-0.048716502746291725,0.05586000000000001,0.49994000000000005,-0.45346000000000003,20.5,0,2139,1095,758,3827,28.342890625,60606,28.192926815321567,1000.8532411088905,0
2024-03-17T10:18:05,-0.30687949845,0.021535403399999997,10.09352393245,0.041691552507014555,-0.0015271630954950385,-0.047952921198544204,0.054740000000000004,0.4963000000000001,-0.44814000000000004,20.5,0,2139,1095,758,3827,28.342890625,60606,28.192926815321567,1000.8532411088905,0
2024-03-17T10:18:05,-0.3098705267,0.01615155255,10.0558369765,0.04566217655530165,-0.0024434609527920616,-0.048716502746291725,0.054740000000000004,0.49406000000000005,-0.4461800000000001,20.5,0,2139,1095,758,3827,28.342890625,60606,28.192926815321567,1000.8532411088905,0
2024-03-17T10:18:05,-0.34755748264999997,0.047856451999999994,10.11625574715,0.04123340357836604,-0.0007635815477475193,-0.04703662334124718,0.054740000000000004,0.49406000000000005,-0.4461800000000001,20.5,0,2139,1095,758,3827,28.342890625,60606,28.192926815321567,1000.8532411088905,0
2024-03-17T10:18:05,-0.32482566794999995,0.0394815729,10.01934643185,0.041386119887915546,-0.002138028333693054,-0.04612032548395016,0.054180000000000006,0.49266000000000004,-0.44198000000000004,20.5,0,2139,1095,758,3827,28.342890625,60606,28.192926815321567,1000.8532411088905,0
2024-03-17T10:18:05,-0.3038884702,0.03170489945,10.08036340815,0.04413501345980661,-0.0036651914291880926,-0.04596760917440065,0.055580000000000004,0.4979800000000001,-0.45626000000000005,20.5,0,2139,1095,758,3827,28.342890625,60606,28.192926815321567,1000.8532411088905,0
2024-03-17T10:18:05,-0.29012974025,0.014955141249999998,10.09830957765,0.04230241774521256,-0.0013744467859455349,-0.04444044607890562,0.055580000000000004,0.4979800000000001,-0.45626000000000005,20.5,0,2139,1095,758,3827,28.342890625,60606,28.192926815321567,1000.8532411088905,0
2024-03-17T10:18:05,-0.3176472001499999,0.04486542375,10.114461130199999,0.0433714319120591,-0.0024434609527920616,-0.0514653963181828,0.060340000000000005,0.49826000000000004,-0.44016000000000005,20.5,0,2139,1095,758,3827,28.63859375,67652,28.195149906817303,1000.8646193595881,0
2024-03-17T10:18:05,-0.3098705267,0.035892338999999995,10.09591675505,0.039400807863771994,-0.0006108652381980154,-0.04153883619746505,0.06342,0.50022,-0.43764000000000003,20.5,0,2138,1095,758,3829,28.63859375,67652,28.195149906817303,1000.8646193595881,0
2024-03-17T10:18:05,-0.30329026454999997,0.048454657649999996,10.1120683076,0.04703662334124718,-0.003207042500539581,-0.0474947722698957,0.058660000000000004,0.49994000000000005,-0.4438000000000001,20.5,0,2138,1095,758,3829,28.63859375,67652,28.195149906817303,1000.8646193595881,0
2024-03-17T10:18:05,-0.32422746229999994,0.04247260115,10.105488045449999,0.04123340357836604,-0.0016798794050445422,-0.04230241774521256,0.05782000000000001,0.49574000000000007,-0.44576000000000005,20.5,0,2138,1095,758,3829,28.63859375,67652,28.195149906817303,1000.8646193595881,0
2024-03-17T10:18:05,-0.31704899449999996,0.0382851616,10.098907783299998,0.04505131131710364,-0.0054977871437821395,-0.04566217655530165,0.05782000000000001,0.49574000000000007,-0.44576000000000005,20.5,0,2138,1095,758,3829,28.63859375,67652,28.195149906817303,1000.8646193595881,0
2024-03-17T10:18:05,-0.3296113131499999,0.014955141249999998,10.0701939121,0.04505131131710364,-0.008552113334772215,-0.04306599929296009,0.05782000000000001,0.5019,-0.45346000000000003,20.5,0,2138,1095,758,3829,28.63859375,67652,28.195149906817303,1000.8646193595881,0
2024-03-17T10:18:05,-0.3296113131499999,0.0095712904,10.094720343749998,0.04291328298341058,0.0015271630954950385,-0.04444044607890562,0.05922000000000001,0.49574000000000007,-0.45150000000000007,20.5,0,2138,1095,758,3829,28.63859375,67652,28.195149906817303,1000.8646193595881,0
2024-03-17T10:18:05,-0.30747770409999997,0.03170489945,10.01934643185,0.0435241482216086,-0.002138028333693054,-0.04535674393620265,0.05922000000000001,0.49574000000000007,-0.45150000000000007,20.5,0,2138,1095,758,3829,28.898359375,74326,28.149984973889193,1000.8745843068137,0
2024-03-17T10:18:05,-0.30747770409999997,0.04366901245,10.103693428499998,0.04581489286485116,-0.0007635815477475193,-0.041386119887915546,0.048580000000000005,0.4904200000000001,-0.4513600000000001,21.5,0,2138,1095,758,3829,28.898359375,74326,28.149984973889193,1000.8745843068137,0
2024-03-17T10:18:05,-0.29012974025,0.0382851616,10.122836009299998,0.04321871560250959,-0.005192354524683131,-0.04413501345980661,0.048580000000000005,0.4904200000000001,-0.4513600000000001,20.5,0,2138,1095,758,3829,28.898359375,74326,28.149984973889193,1000.8745843068137,0
2024-03-17T10:18:05,-0.32841490184999994,0.01854437515,10.1204431867,0.04550946024575215,0.0007635815477475193,-0.047952921198544204,0.054740000000000004,0.5033000000000001,-0.4432400000000001,20.5,0,2138,1095,758,3829,28.898359375,74326,28.149984973889193,1000.8745843068137,0
2024-03-17T10:18:05,-0.3272184905499999,0.01854437515,10.136594739249999,0.04642575810304917,-0.0018325957145940463,-0.048411070127192715,0.05782000000000001,0.49350000000000005,-0.45514000000000004,20.5,0,2138,1095,758,3829,28.898359375,74326,28.149984973889193,1000.8745843068137,0
2024-03-17T10:18:05,-0.33200413574999993,0.022133609050000003,10.130014477099998,0.040317105721069016,-0.005345070834232635,-0.04566217655530165,0.05782000000000001,0.49350000000000005,-0.45514000000000004,20.5,0,2138,1095,758,3829,28.898359375,74326,28.149984973889193,1000.8745843068137,0
2024-03-17T10:18:05,-0.3493520996,0.05682953674999999,10.06720288385,0.04520402762665314,-0.0022907446432425577,-0.04627304179349966,0.050820000000000004,0.48762000000000005,-0.4432400000000001,20.5,0,2138,1095,758,3829,28.898359375,74326,28.149984973889193,1000.8745843068137,0
2024-03-17T10:18:05,-0.31226334929999994,0.04247260115,10.106086251099997,0.041844268816564056,-0.0038179077387375964,-0.04627304179349966,0.05362000000000001,0.49266000000000004,-0.44002,20.5,0,2138,1095,758,3829,29.1235546875,80037,28.10751257931727,1000.8801036539506,0
2024-03-17T10:18:05,-0.32841490184999994,0.01615155255,10.0941221381,0.04734205596034619,-0.004581489286485115,-0.04520402762665314,0.0553,0.48650000000000004,-0.45178,20.5,0,2138,1095,758,3829,29.1235546875,80037,28.10751257931727,1000.8801036539506,0
2024-03-17T10:18:05,-0.29730820804999997,-0.14955141249999998,10.064211855599998,0.039400807863771994,-0.003054326190990077,-0.0435241482216086,0.058940000000000006,0.49602,-0.45304,20.5,0,2138,1095,758,3829,29.1235546875,80037,28.10751257931727,1000.8801036539506,0
2024-03-17T10:18:05,-0.30329026454999997,0.00658026215,10.1156575415,0.04260785036431157,-0.0025961772623415654,-0.04734205596034619,0.058940000000000006,0.49602,-0.45304,20.5,0,2138,1095,758,3829,29.1235546875,80037,28.10751257931727,1000.8801036539506,0
2024-03-17T10:18:05,-0.34456645439999994,0.051445685899999996,10.109077279349998,0.040622538340168025,0.0,-0.04474587869800463,0.05698,0.49714,-0.45052000000000003,20.5,0,2138,1095,758,3829,29.1235546875,80037,28.10751257931727,1000.8801036539506,0
2024-03-17T10:18:05,-0.3152543775499999,0.029312076849999997,10.097711372000001,0.03741549583962844,-0.0025961772623415654,-0.04688390703169768,0.06286000000000001,0.49714,-0.43932000000000004,20.5,0,2138,1095,758,3829,29.1235546875,80037,28.10751257931727,1000.8801036539506,0
2024-03-17T10:18:05,-0.2763710103,0.0023928226,10.087541875949999,0.04474587869800463,-0.0009162978572970231,-0.048411070127192715,0.06286000000000001,0.49714,-0.43932000000000004,20.5,0,2138,1095,758,3829,29.1235546875,80037,28.10751257931727,1000.8801036539506,0
2024-03-17T10:18:05,-0.30867411539999995,0.014356935599999999,10.097711372000001,0.04596760917440065,-0.0013744467859455349,-0.04734205596034619,0.04914000000000001,0.4949,-0.45738000000000006,20.5,0,2138,1095,758,3829,29.3169140625,85296,28.051289843255567,1000.8910858213917,0
2024-03-17T10:18:05,-0.31286155495,0.027517459899999996,10.068997500799998,0.04214970143566306,-0.00473420559603462,-0.04550946024575215,0.05978000000000001,0.4979800000000001,-0.45472,20.5,0,2138,1095,758,3829,29.3169140625,85296,28.051289843255567,1000.8910858213917,0
2024-03-17T10:18:05,-0.33798619224999993,0.035892338999999995,10.08155981945,0.04642575810304917,-0.0025961772623415654,-0.04657847441259867,0.05978000000000001,0.4979800000000001,-0.45472,20.5,0,2138,1095,758,3829,29.3169140625,85296,28.051289843255567,1000.8910858213917,0
2024-03-17T10:18:06,-0.3098705267,0.05204389154999999,10.104291634149998,0.041080687268816536,-0.0036651914291880926,-0.04291328298341058,0.046340000000000006,0.49350000000000005,-0.46046000000000004,20.5,0,2138,1095,758,3829,29.3169140625,85296,28.051289843255567,1000.8910858213917,0
2024-03-17T10:18:06,-0.29252256285,0.01256231865,10.070792117749999,0.04566217655530165,-0.00045814892864851157,-0.04505131131710364,0.055020000000000006,0.49854000000000004,-0.45794000000000007,20.5,0,2138,1095,758,3829,29.3169140625,85296,28.051289843255567,1000.8910858213917,0
2024-03-17T10:18:06,-0.33619157529999993,0.030508488149999995,10.089934698549998,0.04489859500755413,-0.004886921905584123,-0.04550946024575215,0.055020000000000006,0.49854000000000004,-0.45794000000000007,20.5,0,2138,1095,758,3829,29.3169140625,85296,28.051289843255567,1000.8910858213917,0
2024-03-17T10:18:06,-0.33619157529999993,0.056231331100000004,10.0845508477,0.041080687268816536,-0.004276056667386108,-0.04612032548395016,0.0539,0.48874000000000006,-0.4461800000000001,20.5,0,2138,1095,758,3829,29.3169140625,85296,28.051289843255567,1000.8910858213917,0
2024-03-17T10:18:06,-0.33619157529999993,0.05802594804999999,10.060622621699999,0.04535674393620265,-0.0022907446432425577,-0.04566217655530165,0.06174000000000001,0.4907,-0.45528,20.5,0,2138,1095,758,3829,29.4833203125,90221,27.98727894962274,1000.895825622204,0
2024-03-17T10:18:06,-0.33439695834999994,0.0646062102,10.028917722249998,0.039858956792420505,-0.0019853120241435504,-0.04627304179349966,0.04914000000000001,0.49602,-0.46592000000000006,20.5,0,2138,1095,759,3828,29.4833203125,90221,27.98727894962274,1000.895825622204,0
2024-03-17T10:18:06,-0.36670006345,0.058624153699999994,10.121639597999998,0.039858956792420505,-0.00595593607243065,-0.04581489286485116,0.0539,0.4968600000000001,-0.45150000000000007,20.5,0,2138,1095,759,3828,29.4833203125,90221,27.98727894962274,1000.895825622204,0
2024-03-17T10:18:06,-0.2787638329,0.0167497582,10.0546405652,0.04673119072214818,0.0012217304763960308,-0.04245513405476207,0.0539,0.4968600000000001,-0.45150000000000007,20.5,0,2138,1095,759,3828,29.4833203125,90221,27.98727894962274,1000.895825622204,0
2024-03-17T10:18:06,-0.28055844984999995,-0.0017946169499999999,10.0546405652,0.039553524173321496,-0.0033597588100890844,-0.04810563750809371,0.0539,0.49462000000000006,-0.4578000000000001,21.5,0,2138,1095,759,3828,29.4833203125,90221,27.98727894962274,1000.895825622204,0
2024-03-17T10:18:06,-0.34097722049999996,0.06580262149999999,10.2197453246,0.040317105721069016,-0.003054326190990077,-0.04581489286485116,0.0609,0.49910000000000004,-0.46340000000000003,21.5,0,2138,1095,759,3828,29.4833203125,90221,27.98727894962274,1000.895825622204,0
2024-03-17T10:18:06,-0.3397808092,0.07776673449999999,10.17966554605,0.043676864531158106,-0.0035124751196385882,-0.04596760917440065,0.0609,0.49910000000000004,-0.46340000000000003,20.5,0,2138,1095,759,3828,29.4833203125,90221,27.98727894962274,1000.895825622204,0
2024-03-17T10:18:06,-0.3355933696499999,0.04247260115,10.101300605899999,0.0433714319120591,-0.0009162978572970231,-0.04688390703169768,0.0497,0.49966000000000005,-0.44744000000000006,20.5,0,2138,1095,759,3828,29.626875,94464,27.92137987521595,1000.890275263637,0
2024-03-17T10:18:06,-0.29611179675,0.057427742399999995,10.0546405652,0.04520402762665314,0.0007635815477475193,-0.04520402762665314,0.05278000000000001,0.49574000000000007,-0.4513600000000001,21.5,0,2138,1095,759,3828,29.626875,94464,27.92137987521595,1000.890275263637,0
2024-03-17T10:18:06,-0.32063822839999995,0.05982056499999999,10.14018397315,0.040317105721069016,-0.0024434609527920616,-0.04657847441259867,0.05642000000000001,0.49322000000000005,-0.44772,20.5,0,2138,1095,759,3828,29.626875,94464,27.92137987521595,1000.890275263637,0
2024-03-17T10:18:06,-0.29252256285,0.013758729949999998,10.0905329042,0.04596760917440065,-0.004123340357836604,-0.04321871560250959,0.054740000000000004,0.49658,-0.45682000000000006,21.5,0,2138,1095,759,3828,29.626875,94464,27.92137987521595,1000.890275263637,0
2024-03-17T10:18:06,-0.3038884702,0.017946169499999998,10.073783145999998,0.041996985126113565,-0.0015271630954950385,-0.04092797095926703,0.054740000000000004,0.49658,-0.45682000000000006,20.5,0,2138,1095,759,3828,29.626875,94464,27.92137987521595,1000.890275263637,0
2024-03-17T10:18:06,-0.31046873235,0.0382851616,10.025926693999999,0.04016438941151951,-0.005345070834232635,-0.04520402762665314,0.06314,0.4979800000000001,-0.45976000000000006,20.5,0,2138,1095,759,3828,29.626875,94464,27.92137987521595,1000.890275263637,0
2024-03-17T10:18:06,-0.45403808835,0.029312076849999997,10.0845508477,0.04382958084070761,-0.0038179077387375964,-0.04489859500755413,0.062020000000000006,0.4968600000000001,-0.45766,21.5,0,2138,1095,759,3828,29.626875,94464,27.92137987521595,1000.890275263637,0
2024-03-17T10:18:06,-0.33020951879999993,0.038883367249999995,10.101898811549999,0.041386119887915546,-0.0035124751196385882,-0.04382958084070761,0.062020000000000006,0.4968600000000001,-0.45766,20.5,0,2138,1095,759,3828,29.75265625,96983,27.84291221706801,1000.8898753233972,0
2024-03-17T10:18:06,-0.32841490184999994,0.035892338999999995,10.0893364929,0.0433714319120591,-0.0025961772623415654,-0.04520402762665314,0.051660000000000005,0.49154000000000003,-0.4566800000000001,20.5,0,2138,1095,759,3828,29.75265625,96983,27.84291221706801,1000.8898753233972,0
2024-03-17T10:18:06,-0.3062812928,0.028713871199999998,10.096514960699999,0.04382958084070761,-0.003970624048287101,-0.048258353817643214,0.051660000000000005,0.49154000000000003,-0.4566800000000001,21.5,0,2138,1095,759,3828,29.75265625,96983,27.84291221706801,1000.8898753233972,0
2024-03-17T10:18:06,-0.33678978094999995,0.02691925425,10.0749795573,0.041386119887915546,-0.0015271630954950385,-0.04428772976935611,0.05754000000000001,0.49826000000000004,-0.4502400000000001,20.5,0,2138,1095,759,3828,29.75265625,96983,27.84291221706801,1000.8898753233972,0
2024-03-17T10:18:06,-0.30747770409999997,0.03529413334999999,10.036096190049998,0.04276056667386108,-0.0007635815477475193,-0.043982297150257116,0.053340000000000005,0.4963000000000001,-0.46004,20.5,0,2138,1095,759,3828,29.75265625,96983,27.84291221706801,1000.8898753233972,0
2024-03-17T10:18:06,-0.30687949845,0.0346959277,10.028319516599998,0.04550946024575215,-0.004276056667386108,-0.04505131131710364,0.053340000000000005,0.4963000000000001,-0.46004,20.5,0,2138,1095,759,3828,29.75265625,96983,27.84291221706801,1000.8898753233972,0
2024-03-17T10:18:06,-0.29910282499999996,0.010169496049999999,10.05882800475,0.04382958084070761,-0.001069014166846527,-0.04520402762665314,0.0511,0.49378000000000005,-0.4432400000000001,20.5,0,2138,1095,759,3828,29.75265625,96983,27.84291221706801,1000.8898753233972,0
2024-03-17T10:18:06,-0.26979074815,0.04366901245,10.048060303049999,0.04046982203061852,0.0006108652381980154,-0.04321871560250959,0.054180000000000006,0.49238000000000004,-0.4625600000000001,20.5,0,2138,1095,759,3828,29.8614453125,100387,27.763057497129793,1000.8995109131743,0
2024-03-17T10:18:06,-0.2943171798,0.0334995164,10.078568791199999,0.040317105721069016,-0.0013744467859455349,-0.04444044607890562,0.05446000000000001,0.49266000000000004,-0.46172,20.5,0,2138,1095,759,3828,29.8614453125,100387,27.763057497129793,1000.8995109131743,0
2024-03-17T10:18:06,-0.30927232104999997,0.013758729949999998,10.088738287249999,0.0435241482216086,-0.010384709049366262,-0.049938233222687756,0.0539,0.49378000000000005,-0.46088000000000007,20.5,0,2138,1095,759,3828,29.8614453125,100387,27.763057497129793,1000.8995109131743,0
2024-03-17T10:18:06,-0.30209385325,0.0131605243,10.109077279349998,0.040317105721069016,-0.00015271630954950385,-0.048258353817643214,0.0539,0.49378000000000005,-0.46088000000000007,20.5,0,2138,1095,759,3828,29.8614453125,100387,27.763057497129793,1000.8995109131743,0
2024-03-17T10:18:06,-0.34516466005,0.025722842949999998,10.08395264205,0.0435241482216086,0.0,-0.04230241774521256,0.0553,0.49266000000000004,-0.44772,20.5,0,2138,1095,759,3828,29.8614453125,100387,27.763057497129793,1000.8995109131743,0
2024-03-17T10:18:06,-0.32901310749999996,0.028713871199999998,10.103693428499998,0.043982297150257116,-0.0022907446432425577,-0.04489859500755413,0.055580000000000004,0.48902000000000007,-0.4590600000000001,20.5,0,2138,1095,759,3828,29.8614453125,100387,27.763057497129793,1000.8995109131743,0
2024-03-17T10:18:06,-0.33020951879999993,0.030508488149999995,10.06839929515,0.03772092845872745,-0.002138028333693054,-0.04382958084070761,0.055580000000000004,0.48902000000000007,-0.4590600000000001,20.5,0,2138,1095,759,3828,29.8614453125,100387,27.763057497129793,1000.8995109131743,0
2024-03-17T10:18:06,-0.30149564759999997,0.021535403399999997,10.0941221381,0.041844268816564056,-0.006261368691529657,-0.04550946024575215,0.051660000000000005,0.49294000000000004,-0.45276000000000005,21.5,0,2138,1095,759,3828,29.9565625,103846,27.665452361046583,1000.9066617780547,0
2024-03-17T10:18:06,-0.3062812928,0.029910282499999996,10.092327521149999,0.04596760917440065,-0.00473420559603462,-0.04642575810304917,0.0539,0.4963000000000001,-0.44856000000000007,20.5,0,1545,796,534,2734,29.9565625,103846,27.665452361046583,1000.9066617780547,0
2024-03-17T10:18:06,-0.3391826035499999,0.02691925425,10.09830957765,0.04520402762665314,-0.0044287729769356115,-0.04734205596034619,0.04886000000000001,0.4904200000000001,-0.46270000000000006,21.5,0,1545,796,534,2734,29.9565625,103846,27.665452361046583,1000.9066617780547,0
2024-03-17T10:18:06,-0.33140593009999997,0.037686955949999996,10.05882800475,0.04077525464971753,-0.0013744467859455349,-0.048716502746291725,0.058100000000000006,0.49378000000000005,-0.44254000000000004,20.5,0,1545,796,534,2734,29.9565625,103846,27.665452361046583,1000.9066617780547,0
2024-03-17T10:18:06,-0.3176472001499999,0.0370887503,10.08634546465,0.04535674393620265,-0.002901609881440573,-0.04444044607890562,0.058100000000000006,0.49378000000000005,-0.44254000000000004,20.5,0,1545,796,534,2734,29.9565625,103846,27.665452361046583,1000.9066617780547,0
2024-03-17T10:18:06,-0.32542387359999997,0.01974078645,10.293324619549997,0.04291328298341058,-0.00045814892864851157,-0.04459316238845512,0.042980000000000004,0.49518000000000006,-0.44646,21.5,0,1545,796,534,2734,29.9565625,103846,27.665452361046583,1000.9066617780547,0
2024-03-17T10:18:06,-0.37387853125,0.02691925425,10.0295159279,0.04046982203061852,-0.004886921905584123,-0.04642575810304917,0.05782000000000001,0.49994000000000005,-0.4494,20.5,0,1545,796,534,2734,29.9565625,103846,27.665452361046583,1000.9066617780547,0
2024-03-17T10:18:06,-0.2763710103,0.013758729949999998,9.8979106849,0.04321871560250959,-0.0035124751196385882,-0.04627304179349966,0.05782000000000001,0.49994000000000005,-0.4494,21.5,0,1545,796,534,2734,30.041328125,107007,27.589214004385937,1000.9095515837273,0
2024-03-17T10:18:07,-0.4037888137499999,-0.045463629400000004,10.040283629599998,0.03497203488683638,0.0006108652381980154,-0.04627304179349966,0.04942,0.49378000000000005,-0.45892,20.5,0,1545,796,534,2734,30.041328125,107007,27.589214004385937,1000.9095515837273,0
2024-03-17T10:18:07,-0.3505485109,0.021535403399999997,10.238887905399999,0.0474947722698957,-0.006261368691529657,-0.04673119072214818,0.04942,0.49378000000000005,-0.45892,20.5,0,1545,796,534,2734,30.041328125,107007,27.589214004385937,1000.9095515837273,0
2024-03-17T10:18:07,-0.3397808092,0.0897308475,10.048658508699999,0.04810563750809371,-0.0025961772623415654,-0.04688390703169768,0.05138,0.4979800000000001,-0.45528,20.5,0,1545,796,534,2734,30.041328125,107007,27.589214004385937,1000.9095515837273,0
2024-03-17T10:18:07,-0.2955135911,0.01615155255,9.97388280245,0.04306599929296009,-0.0025961772623415654,-0.043676864531158106,0.055580000000000004,0.49462000000000006,-0.45626000000000005,20.5,0,1545,796,534,2734,30.041328125,107007,27.589214004385937,1000.9095515837273,0
2024-03-17T10:18:07,-0.30508488149999996,0.062213387599999996,10.181460162999999,0.04612032548395016,0.0007635815477475193,-0.04413501345980661,0.055580000000000004,0.49462000000000006,-0.45626000000000005,20.5,0,1545,796,534,2734,30.041328125,107007,27.589214004385937,1000.9095515837273,0
2024-03-17T10:18:07,-0.3391826035499999,0.0035892338999999997,10.139585767500002,0.037110063220529434,-0.0027488935718910697,-0.04657847441259867,0.046340000000000006,0.49266000000000004,-0.4529,20.5,0,1545,796,534,2734,30.041328125,107007,27.589214004385937,1000.9095515837273,0
2024-03-17T10:18:07,-0.33439695834999994,0.03649054465,10.260423308799998,0.04016438941151951,-0.0036651914291880926,-0.04642575810304917,0.0609,0.49238000000000004,-0.46088000000000007,20.5,0,1545,796,534,2734,30.1157421875,110078,27.50106186119255,1000.915364482598,0
2024-03-17T10:18:07,-0.2703889538,0.0526420972,10.209575828550001,0.04077525464971753,0.0007635815477475193,-0.0433714319120591,0.05922000000000001,0.4974200000000001,-0.45444000000000007,21.5,0,1545,796,534,2734,30.1157421875,110078,27.50106186119255,1000.915364482598,0
2024-03-17T10:18:07,-0.3565305674,0.028115665550000002,10.106086251099997,0.04474587869800463,-0.00473420559603462,-0.04566217655530165,0.058660000000000004,0.49882000000000004,-0.4443600000000001,21.5,0,1545,796,534,2734,30.1157421875,110078,27.50106186119255,1000.915364482598,0
2024-03-17T10:18:07,-0.34516466005,0.049651068949999995,10.2197453246,0.040317105721069016,-0.004276056667386108,-0.04291328298341058,0.0609,0.4963000000000001,-0.45094000000000006,20.5,0,1545,796,534,2734,30.1157421875,110078,27.50106186119255,1000.915364482598,0
2024-03-17T10:18:07,-0.36430724085,0.051445685899999996,10.12223780365,0.038484510006474966,-0.0027488935718910697,-0.04505131131710364,0.0609,0.4963000000000001,-0.45094000000000006,20.5,0,1545,796,534,2734,30.1157421875,110078,27.50106186119255,1000.915364482598,0
2024-03-17T10:18:07,-0.34277183744999995,-0.00059820565,10.0594262104,0.04673119072214818,-0.004886921905584123,-0.04489859500755413,0.05922000000000001,0.4907,-0.46424000000000004,20.5,0,1545,796,534,2734,30.1157421875,110078,27.50106186119255,1000.915364482598,0
2024-03-17T10:18:07,-0.3002992363,0.0382851616,9.96072227815,0.04428772976935611,-0.005039638215133627,-0.0476474885794452,0.054180000000000006,0.49154000000000003,-0.46354,20.5,0,1545,796,534,2734,30.1157421875,110078,27.50106186119255,1000.915364482598,0
2024-03-17T10:18:07,-0.27337998204999997,0.05563312545,10.100702400249999,0.04016438941151951,0.00473420559603462,-0.04474587869800463,0.054180000000000006,0.49154000000000003,-0.46354,20.5,0,1545,796,534,2734,30.18234375,112425,27.41784403057269,1000.9120823277617,0
2024-03-17T10:18:07,-0.32243284534999994,0.0191425808,10.1084790737,0.04596760917440065,-0.0003054326190990077,-0.04474587869800463,0.06146000000000001,0.49238000000000004,-0.46396000000000004,20.5,0,1545,796,534,2734,30.18234375,112425,27.41784403057269,1000.9120823277617,0
2024-03-17T10:18:07,-0.35712877305,0.013758729949999998,10.03131054485,0.036499197982331415,0.038484510006474966,-0.04612032548395016,0.06146000000000001,0.49238000000000004,-0.46396000000000004,20.5,0,1545,796,534,2734,30.18234375,112425,27.41784403057269,1000.9120823277617,0
2024-03-17T10:18:07,-0.3278166962,0.011964112999999998,10.152746291799998,0.04230241774521256,-0.00473420559603462,-0.04596760917440065,0.0637,0.49182000000000003,-0.44548000000000004,20.5,0,1545,796,534,2734,30.18234375,112425,27.41784403057269,1000.9120823277617,0
2024-03-17T10:18:07,-0.31645078885,0.013758729949999998,10.097711372000001,0.04474587869800463,-0.0035124751196385882,-0.043982297150257116,0.05754000000000001,0.48958,-0.45570000000000005,20.5,0,1545,796,534,2734,30.18234375,112425,27.41784403057269,1000.9120823277617,0
2024-03-17T10:18:07,-0.29850461935,0.01974078645,10.109077279349998,0.04306599929296009,-0.0054977871437821395,-0.04520402762665314,0.05754000000000001,0.48958,-0.45570000000000005,20.5,0,1545,796,534,2734,30.18234375,112425,27.41784403057269,1000.9120823277617,0
2024-03-17T10:18:07,-0.33260234139999995,0.044267218100000005,10.31725284555,0.04321871560250959,-0.0013744467859455349,-0.04688390703169768,0.05194000000000001,0.49434000000000006,-0.45640000000000003,20.5,0,1545,796,534,2734,30.18234375,112425,27.41784403057269,1000.9120823277617,0
2024-03-17T10:18:07,-0.37926238209999996,0.023928225999999997,9.832706269049998,0.04016438941151951,-0.009773843811168246,-0.041844268816564056,0.04942,0.49126000000000003,-0.45220000000000005,20.5,0,1545,796,534,2734,30.2415234375,114874,27.31744001760274,1000.9057240022187,0
2024-03-17T10:18:07,-0.32542387359999997,0.03529413334999999,9.9696953629,0.04214970143566306,-0.0009162978572970231,-0.04612032548395016,0.061180000000000005,0.49854000000000004,-0.44772,20.5,0,1720,878,594,2910,30.2415234375,114874,27.31744001760274,1000.9057240022187,0
2024-03-17T10:18:07,-0.32063822839999995,0.058624153699999994,9.9960164115,0.041386119887915546,-0.0016798794050445422,-0.04703662334124718,0.05922000000000001,0.49238000000000004,-0.4424,21.5,0,1720,878,594,2910,30.2415234375,114874,27.31744001760274,1000.9057240022187,0
2024-03-17T10:18:07,-0.3391826035499999,0.05503491979999999,10.2197453246,0.043982297150257116,-0.0007635815477475193,-0.049327367984489744,0.05922000000000001,0.49238000000000004,-0.4424,20.5,0,1720,878,594,2910,30.2415234375,114874,27.31744001760274,1000.9057240022187,0
2024-03-17T10:18:07,-0.3391826035499999,0.013758729949999998,10.0845508477,0.04413501345980661,0.0012217304763960308,-0.04505131131710364,0.050820000000000004,0.49182000000000003,-0.45934,20.5,0,1720,878,594,2910,30.2415234375,114874,27.31744001760274,1000.9057240022187,0
2024-03-17T10:18:07,-0.45104706009999995,0.013758729949999998,9.994820000199999,0.0433714319120591,-0.0027488935718910697,-0.049021935365390734,0.057260000000000005,0.49294000000000004,-0.46284000000000003,20.5,0,1720,878,594,2910,30.2415234375,114874,27.31744001760274,1000.9057240022187,0
2024-03-17T10:18:07,-0.30747770409999997,0.038883367249999995,10.0893364929,0.04474587869800463,-0.004581489286485115,-0.04413501345980661,0.057260000000000005,0.49294000000000004,-0.46284000000000003,20.5,0,1720,878,594,2910,30.2415234375,114874,27.31744001760274,1000.9057240022187,0
2024-03-17T10:18:07,-0.3176472001499999,0.0526420972,10.037890806999998,0.03772092845872745,-0.0024434609527920616,-0.04596760917440065,0.054740000000000004,0.49546,-0.45444000000000007,20.5,0,1720,878,594,2910,30.2958203125,117596,27.227756848614924,1000.9219366953624,0
2024-03-17T10:18:07,-0.3529413335,0.032901310749999996,10.1922278647,0.03924809155422249,-0.0003054326190990077,-0.04566217655530165,0.058660000000000004,0.4909800000000001,-0.46242,20.5,0,1720,878,594,2910,30.2958203125,117596,27.227756848614924,1000.9219366953624,0
2024-03-17T10:18:07,-0.31046873235,0.029312076849999997,9.8632147572,0.04382958084070761,-0.003207042500539581,-0.04596760917440065,0.052500000000000005,0.49238000000000004,-0.4501,21.5,0,1720,878,594,2910,30.2958203125,117596,27.227756848614924,1000.9219366953624,0
2024-03-17T10:18:07,-0.2835494781,0.056231331100000004,10.30768155515,0.04260785036431157,-0.002138028333693054,-0.04810563750809371,0.051660000000000005,0.48846000000000006,-0.45234,21.5,0,1720,878,594,2910,30.2958203125,117596,27.227756848614924,1000.9219366953624,0
2024-03-17T10:18:07,-0.32542387359999997,0.011365907350000001,10.00498949625,0.03924809155422249,-0.004886921905584123,-0.04657847441259867,0.051660000000000005,0.48846000000000006,-0.45234,20.5,0,1720,878,594,2910,30.2958203125,117596,27.227756848614924,1000.9219366953624,0
2024-03-17T10:18:07,-0.35353953914999997,-0.008973084749999999,9.999007439749999,0.04550946024575215,-0.0036651914291880926,-0.04612032548395016,0.051660000000000005,0.4974200000000001,-0.46172,20.5,0,1720,878,594,2910,30.2958203125,117596,27.227756848614924,1000.9219366953624,0
2024-03-17T10:18:07,-0.30867411539999995,0.049651068949999995,10.223334558499998,0.04153883619746505,-0.0035124751196385882,-0.04459316238845512,0.052500000000000005,0.49574000000000007,-0.44422,21.5,0,1720,878,594,2910,30.2958203125,117596,27.227756848614924,1000.9219366953624,0
2024-03-17T10:18:07,-0.34456645439999994,0.0263210486,10.06839929515,0.04016438941151951,0.0013744467859455349,-0.048716502746291725,0.052500000000000005,0.49574000000000007,-0.44422,20.5,0,1720,878,594,2910,30.345234375,119596,27.137717719120133,1000.9248459378958,0
2024-03-17T10:18:07,-0.28534409504999997,0.05802594804999999,10.204790183349997,0.041996985126113565,-0.0009162978572970231,-0.04260785036431157,0.0539,0.49210000000000004,-0.44856000000000007,20.5,0,1720,878,594,2910,30.345234375,119596,27.137717719120133,1000.9248459378958,0
2024-03-17T10:18:07,-0.31046873235,0.005982056499999999,10.082756230749998,0.039706240482871004,-0.00045814892864851157,-0.04535674393620265,0.0539,0.49210000000000004,-0.44856000000000007,20.5,0,1720,878,594,2910,30.345234375,119596,27.137717719120133,1000.9248459378958,0
2024-03-17T10:18:07,-0.32243284534999994,0.01974078645,9.9936235889,0.04657847441259867,-0.0056505034533316425,-0.04520402762665314,0.053340000000000005,0.49126000000000003,-0.45052000000000003,21.5,0,1720,878,594,2910,30.345234375,119596,27.137717719120133,1000.9248459378958,0
2024-03-17T10:18:08,-0.29910282499999996,0.024526431649999996,10.08634546465,0.04077525464971753,-0.005345070834232635,-0.04550946024575215,0.05138,0.49294000000000004,-0.4513600000000001,21.5,0,1720,878,594,2910,30.345234375,119596,27.137717719120133,1000.9248459378958,0
2024-03-17T10:18:08,-0.3026920589,0.048454657649999996,10.0905329042,0.041844268816564056,0.0003054326190990077,-0.041996985126113565,0.05138,0.49294000000000004,-0.4513600000000001,20.5,0,1720,878,594,2910,30.345234375,119596,27.137717719120133,1000.9248459378958,0
2024-03-17T10:18:08,-0.33499516399999996,0.028713871199999998,10.0929257268,0.0435241482216086,-0.004276056667386108,-0.041386119887915546,0.0539,0.4963000000000001,-0.46340000000000003,21.5,0,1720,878,594,2910,30.345234375,119596,27.137717719120133,1000.9248459378958,0
2024-03-17T10:18:08,-0.3236292566499999,0.017946169499999998,10.11864856975,0.039553524173321496,-0.002901609881440573,-0.04657847441259867,0.06006,0.48930000000000007,-0.4561200000000001,20.5,0,1720,878,594,2910,30.390546875,121753,27.04186119170468,1000.9228946316074,0
2024-03-17T10:18:08,-0.3272184905499999,0.01734796385,10.0929257268,0.04214970143566306,-0.0027488935718910697,-0.0474947722698957,0.06006,0.49574000000000007,-0.44982000000000005,20.5,0,1720,878,594,2910,30.390546875,121753,27.04186119170468,1000.9228946316074,0
2024-03-17T10:18:08,-0.32004002274999993,0.0131605243,9.978070242,0.04520402762665314,-0.005192354524683131,-0.04688390703169768,0.0567,0.49406000000000005,-0.44450000000000006,20.5,0,1720,878,594,2910,30.390546875,121753,27.04186119170468,1000.9228946316074,0
2024-03-17T10:18:08,-0.26739792554999997,0.06400800455,10.2149596794,0.04092797095926703,0.0006108652381980154,-0.04550946024575215,0.0567,0.49406000000000005,-0.44450000000000006,21.5,0,1720,878,594,2910,30.390546875,121753,27.04186119170468,1000.9228946316074,0
2024-03-17T10:18:08,-0.33738798659999997,0.04127618984999999,10.000203851049998,0.043676864531158106,-0.006414085001079162,-0.047952921198544204,0.05642000000000001,0.49238000000000004,-0.45990000000000003,20.5,0,1720,878,594,2910,30.390546875,121753,27.04186119170468,1000.9228946316074,0
2024-03-17T10:18:08,-0.30149564759999997,0.0370887503,10.04566748045,0.04016438941151951,-0.0009162978572970231,-0.04291328298341058,0.05362000000000001,0.49714,-0.45052000000000003,20.5,0,1720,878,594,2910,30.390546875,121753,27.04186119170468,1000.9228946316074,0
2024-03-17T10:18:08,-0.3038884702,0.046660040699999995,10.1587283483,0.041386119887915546,-0.005039638215133627,-0.04428772976935611,0.05362000000000001,0.49714,-0.45052000000000003,20.5,0,1720,878,594,2910,30.390546875,121753,27.04186119170468,1000.9228946316074,0
2024-03-17T10:18:08,-0.3272184905499999,0.014356935599999999,9.999007439749999,0.04153883619746505,-0.003207042500539581,-0.048258353817643214,0.06062000000000001,0.49406000000000005,-0.45248,20.5,0,1937,992,709,3532,30.4313671875,123717,26.951216462208045,1000.9244235495596,0
2024-03-17T10:18:08,-0.32662028489999995,-0.010767701699999998,10.25862869185,0.04474587869800463,-0.0027488935718910697,-0.04627304179349966,0.05698,0.49378000000000005,-0.46858000000000005,20.5,0,1937,992,709,3532,30.4313671875,123717,26.951216462208045,1000.9244235495596,0
2024-03-17T10:18:08,-0.38763726119999997,0.023928225999999997,10.077970585549998,0.04001167310197001,-0.0068722339297276735,-0.04489859500755413,0.06006,0.49966000000000005,-0.46536000000000005,21.5,0,1937,992,709,3532,30.4313671875,123717,26.951216462208045,1000.9244235495596,0
2024-03-17T10:18:08,-0.32303105099999996,0.03409772205,9.940383286049999,0.04673119072214818,-0.0054977871437821395,-0.04810563750809371,0.050260000000000006,0.49266000000000004,-0.46662000000000003,20.5,0,1937,992,709,3532,30.4313671875,123717,26.951216462208045,1000.9244235495596,0
2024-03-17T10:18:08,-0.31345976059999997,0.04247260115,10.0187482262,0.043676864531158106,-0.0033597588100890844,-0.043676864531158106,0.050260000000000006,0.49266000000000004,-0.46662000000000003,20.5,0,1937,992,709,3532,30.4313671875,123717,26.951216462208045,1000.9244235495596,0
2024-03-17T10:18:08,-0.26380869165,0.0131605243,10.192826070349998,0.0433714319120591,-0.00015271630954950385,-0.041691552507014555,0.05138,0.49658,-0.4543000000000001,20.5,0,1937,992,709,3532,30.4313671875,123717,26.951216462208045,1000.9244235495596,0
2024-03-17T10:18:08,-0.34037901484999994,0.014955141249999998,10.0546405652,0.0433714319120591,-0.0007635815477475193,-0.04886921905584123,0.05194000000000001,0.49294000000000004,-0.4614400000000001,20.5,0,1937,992,709,3532,30.4313671875,123717,26.951216462208045,1000.9244235495596,0
2024-03-17T10:18:08,-0.37387853125,0.022731814700000002,10.2029955664,0.04276056667386108,-0.0003054326190990077,-0.0433714319120591,0.05194000000000001,0.49294000000000004,-0.4614400000000001,20.5,0,1937,992,709,3532,30.4696484375,125558,26.87145527746277,1000.9272159480137,0
2024-03-17T10:18:08,-0.3002992363,0.0729810893,10.098907783299998,0.04428772976935611,-0.003054326190990077,-0.04673119072214818,0.06062000000000001,0.49518000000000006,-0.45458000000000004,20.5,0,1937,992,709,3532,30.4696484375,125558,26.87145527746277,1000.9272159480137,0
2024-03-17T10:18:08,-0.32303105099999996,0.05503491979999999,10.0558369765,0.039858956792420505,-0.0016798794050445422,-0.04581489286485116,0.06062000000000001,0.49518000000000006,-0.45458000000000004,20.5,0,1937,992,709,3532,30.4696484375,125558,26.87145527746277,1000.9272159480137,0
2024-03-17T10:18:08,-0.32063822839999995,0.0251246373,10.216156090699998,0.04581489286485116,0.0013744467859455349,-0.0476474885794452,0.05642000000000001,0.49294000000000004,-0.4571,20.5,0,1937,992,709,3532,30.4696484375,125558,26.87145527746277,1000.9272159480137,0
2024-03-17T10:18:08,-0.31345976059999997,0.00658026215,9.9732845968,0.04382958084070761,-0.006719517620178169,-0.04596760917440065,0.05978000000000001,0.49014,-0.4548600000000001,21.5,0,1937,992,709,3532,30.4696484375,125558,26.87145527746277,1000.9272159480137,0
2024-03-17T10:18:08,-0.31465617189999995,0.028115665550000002,10.067801089499998,0.04276056667386108,-0.003207042500539581,-0.04291328298341058,0.05978000000000001,0.49014,-0.4548600000000001,20.5,0,1937,992,709,3532,30.4696484375,125558,26.87145527746277,1000.9272159480137,0
2024-03-17T10:18:08,-0.31345976059999997,0.037686955949999996,10.1072826624,0.04123340357836604,-0.0035124751196385882,-0.04642575810304917,0.05278000000000001,0.49826000000000004,-0.4459,20.5,0,1937,992,709,3532,30.4696484375,125558,26.87145527746277,1000.9272159480137,0
2024-03-17T10:18:08,-0.30568308715,0.045463629400000004,10.087541875949999,0.04688390703169768,-0.003054326190990077,-0.04214970143566306,0.05446000000000001,0.49406000000000005,-0.4438000000000001,21.5,0,1937,992,709,3532,30.5048046875,127262,26.774922533342984,1000.9285296598679,0
2024-03-17T10:18:08,-0.28773691765000003,0.028115665550000002,10.0187482262,0.041996985126113565,-0.006108652381980154,-0.04703662334124718,0.060340000000000005,0.49714,-0.45178,20.5,0,1937,992,709,3532,30.5048046875,127262,26.774922533342984,1000.9285296598679,0
2024-03-17T10:18:08,-0.29910282499999996,0.029312076849999997,10.1862458082,0.041386119887915546,0.0,-0.041691552507014555,0.06006,0.49518000000000006,-0.4572400000000001,20.5,0,1937,992,709,3532,30.5048046875,127262,26.774922533342984,1000.9285296598679,0
2024-03-17T10:18:08,-0.2835494781,0.0382851616,10.06481006125,0.0015271630954950385,0.0006108652381980154,-0.04474587869800463,0.06258000000000001,0.49770000000000003,-0.44828,20.5,0,1937,992,709,3532,30.5048046875,127262,26.774922533342984,1000.9285296598679,0
2024-03-17T10:18:08,-0.3158525832,-0.014356935599999999,9.84945602725,0.04321871560250959,-0.007788531787024696,-0.04245513405476207,0.06258000000000001,0.49770000000000003,-0.44828,21.5,0,1937,992,709,3532,30.5048046875,127262,26.774922533342984,1000.9285296598679,0
2024-03-17T10:18:08,-0.24107687694999996,0.0634097989,10.114461130199999,0.04153883619746505,0.0015271630954950385,-0.043676864531158106,0.058660000000000004,0.4907,-0.46592000000000006,21.5,0,1937,992,709,3532,30.5048046875,127262,26.774922533342984,1000.9285296598679,0
2024-03-17T10:18:08,-0.31345976059999997,0.06580262149999999,10.25264663535,0.03924809155422249,-0.0025961772623415654,-0.04642575810304917,0.057260000000000005,0.49602,-0.46088000000000007,20.5,0,1937,992,709,3532,30.5048046875,127262,26.774922533342984,1000.9285296598679,0
2024-03-17T10:18:08,-0.37028929735,0.0131605243,10.007980524499999,0.050243665841786765,-0.0013744467859455349,-0.04596760917440065,0.057260000000000005,0.49602,-0.46088000000000007,20.5,0,1937,992,709,3532,30.5378125,128817,26.683786826104352,1000.929947611638,0
2024-03-17T10:18:08,-0.2919243572,0.027517459899999996,10.109077279349998,0.04245513405476207,-0.0007635815477475193,-0.041844268816564056,0.055580000000000004,0.4968600000000001,-0.4536,21.5,0,1937,992,709,3532,30.5378125,128817,26.683786826104352,1000.929947611638,0
2024-03-17T10:18:08,-0.37328032559999996,0.0,9.9601240725,0.043982297150257116,-0.0033597588100890844,-0.04718933965079669,0.055580000000000004,0.4968600000000001,-0.4536,21.5,0,1937,992,709,3532,30.5378125,128817,26.683786826104352,1000.929947611638,0
2024-03-17T10:18:08,-0.33858439789999994,0.0251246373,10.060024416049998,0.043676864531158106,-0.0054977871437821395,-0.04703662334124718,0.05278000000000001,0.49126000000000003,-0.4491200000000001,20.5,0,1937,992,709,3532,30.5378125,128817,26.683786826104352,1000.929947611638,0
2024-03-17T10:18:08,-0.2679961312,0.04007977854999999,10.048060303049999,0.04016438941151951,-0.005039638215133627,-0.047952921198544204,0.060340000000000005,0.49154000000000003,-0.4520600000000001,21.5,0,1937,992,709,3532,30.5378125,128817,26.683786826104352,1000.929947611638,0
2024-03-17T10:18:08,-0.35413774480000004,0.09152546445000001,10.118050364099998,0.04489859500755413,0.002138028333693054,-0.0474947722698957,0.060340000000000005,0.49154000000000003,-0.4520600000000001,20.5,0,1993,1019,721,3610,30.5378125,128817,26.683786826104352,1000.929947611638,0
2024-03-17T10:18:08,-0.29850461935,0.025722842949999998,10.06122082735,0.039858956792420505,-0.0016798794050445422,-0.04245513405476207,0.054740000000000004,0.49434000000000006,-0.45808000000000004,20.5,0,1993,1019,721,3610,30.5378125,128817,26.683786826104352,1000.929947611638,0
2024-03-17T10:18:08,-0.32542387359999997,0.035892338999999995,10.128219860149999,0.04459316238845512,-0.00045814892864851157,-0.04505131131710364,0.052500000000000005,0.49350000000000005,-0.4601800000000001,20.5,0,1993,1019,721,3610,30.5690625,130410,26.587047923892975,1000.9213347565233,0
2024-03-17T10:18:09,-0.2919243572,0.04606183504999999,10.2197453246,0.04566217655530165,0.0,-0.04260785036431157,0.046900000000000004,0.49462000000000006,-0.45976000000000006,21.5,0,1993,1019,721,3610,30.5690625,130410,26.587047923892975,1000.9213347565233,0
2024-03-17T10:18:09,-0.36610185780000004,0.015553346899999999,10.127023448849998,0.040622538340168025,-0.0033597588100890844,-0.04520402762665314,0.046900000000000004,0.49462000000000006,-0.45976000000000006,20.5,0,1993,1019,721,3610,30.5690625,130410,26.587047923892975,1000.9213347565233,0
2024-03-17T10:18:09,-0.34456645439999994,0.029910282499999996,9.80399239785,0.041080687268816536,-0.0022907446432425577,-0.043676864531158106,0.04914000000000001,0.49546,-0.45472,20.5,0,1993,1019,721,3610,30.5690625,130410,26.587047923892975,1000.9213347565233,0
2024-03-17T10:18:09,-0.24107687694999996,0.08614161359999999,10.25862869185,0.04077525464971753,0.0,-0.04245513405476207,0.05838,0.49126000000000003,-0.4531800000000001,20.5,0,1993,1019,721,3610,30.5690625,130410,26.587047923892975,1000.9213347565233,0
2024-03-17T10:18:09,-0.39182470075,0.05443671415,10.328020547249999,0.039706240482871004,0.001069014166846527,-0.04566217655530165,0.05838,0.49126000000000003,-0.4531800000000001,20.5,0,1993,1019,721,3610,30.5690625,130410,26.587047923892975,1000.9213347565233,0
2024-03-17T10:18:09,-0.44386859230000003,-0.011365907350000001,9.9086783866,0.041386119887915546,-0.008857545953871223,-0.04428772976935611,0.0511,0.4949,-0.4496800000000001,20.5,0,1993,1019,721,3610,30.5690625,130410,26.587047923892975,1000.9213347565233,0
2024-03-17T10:18:09,-0.25782663515,0.05682953674999999,10.08395264205,0.043676864531158106,-0.0036651914291880926,-0.04260785036431157,0.054180000000000006,0.49966000000000005,-0.45528,20.5,0,1993,1019,721,3610,30.5973828125,131528,26.51216463668567,1000.9187411601915,0
2024-03-17T10:18:09,-0.2584248408,0.07477570624999999,10.17966554605,0.0433714319120591,-0.0035124751196385882,-0.0009162978572970231,0.05754000000000001,0.49378000000000005,-0.44408000000000003,20.5,0,1993,1019,721,3610,30.5973828125,131528,26.51216463668567,1000.9187411601915,0
2024-03-17T10:18:09,-0.30807590975,0.03529413334999999,10.180861957349999,0.04016438941151951,0.0035124751196385882,-0.043676864531158106,0.05698,0.49238000000000004,-0.45654,20.5,0,1993,1019,721,3610,30.5973828125,131528,26.51216463668567,1000.9187411601915,0
2024-03-17T10:18:09,-0.34037901484999994,0.00418743955,10.1419785901,0.03787364476827696,-0.0024434609527920616,-0.04291328298341058,0.05698,0.49238000000000004,-0.45654,21.5,0,1993,1019,721,3610,30.5973828125,131528,26.51216463668567,1000.9187411601915,0
2024-03-17T10:18:09,-0.3415754261499999,0.03649054465,10.0319087505,0.04505131131710364,-0.007177666548826681,-0.048411070127192715,0.04662,0.5005000000000001,-0.46214000000000005,20.5,0,1993,1019,721,3610,30.5973828125,131528,26.51216463668567,1000.9187411601915,0
2024-03-17T10:18:09,-0.31106693799999996,0.038883367249999995,10.1001041946,0.04474587869800463,-0.002138028333693054,-0.04688390703169768,0.055580000000000004,0.49994000000000005,-0.46046000000000004,20.5,0,1993,1019,721,3610,30.5973828125,131528,26.51216463668567,1000.9187411601915,0
2024-03-17T10:18:09,-0.31704899449999996,0.037686955949999996,9.9828558872,0.041386119887915546,-0.006108652381980154,-0.0476474885794452,0.05054000000000001,0.49966000000000005,-0.45094000000000006,21.5,0,1993,1019,721,3610,30.5973828125,131528,26.51216463668567,1000.9187411601915,0
2024-03-17T10:18:09,-0.3026920589,0.051445685899999996,10.07318494035,0.04550946024575215,-0.0018325957145940463,-0.04535674393620265,0.05054000000000001,0.49966000000000005,-0.45094000000000006,20.5,0,1993,1019,721,3610,30.6247265625,132769,26.420719469935598,1000.9289216632569,0
2024-03-17T10:18:09,-0.3296113131499999,0.03529413334999999,10.25862869185,0.0435241482216086,0.0035124751196385882,-0.04780020488899471,0.05838,0.4898600000000001,-0.4555600000000001,20.5,0,1993,1019,721,3610,30.6247265625,132769,26.420719469935598,1000.9289216632569,0
2024-03-17T10:18:09,-0.37447673689999994,0.14775679555,10.11864856975,0.04123340357836604,-0.007635815477475193,-0.04673119072214818,0.05838,0.4898600000000001,-0.4555600000000001,20.5,0,1993,1019,721,3610,30.6247265625,132769,26.420719469935598,1000.9289216632569,0
2024-03-17T10:18:09,-0.35353953914999997,0.021535403399999997,10.125228831899998,0.040317105721069016,-0.004123340357836604,-0.039400807863771994,0.06454,0.4949,-0.4529,20.5,0,1993,1019,721,3610,30.6247265625,132769,26.420719469935598,1000.9289216632569,0
2024-03-17T10:18:09,-0.34097722049999996,0.029312076849999997,9.86740219675,0.03726277953007894,-0.00946841119206924,-0.04245513405476207,0.04578,0.49462000000000006,-0.4494,21.5,0,1993,1019,721,3610,30.6247265625,132769,26.420719469935598,1000.9289216632569,0
2024-03-17T10:18:09,-0.24287149389999999,0.0502492746,10.0319087505,0.04581489286485116,0.0012217304763960308,-0.04581489286485116,0.04578,0.49462000000000006,-0.4494,20.5,0,1993,1019,721,3610,30.6247265625,132769,26.420719469935598,1000.9289216632569,0
2024-03-17T10:18:09,-0.29252256285,0.04725824635,10.247860990149999,0.04016438941151951,-0.0007635815477475193,-0.04444044607890562,0.05698,0.49574000000000007,-0.45500000000000007,20.5,0,1993,1019,721,3610,30.6247265625,132769,26.420719469935598,1000.9289216632569,0
2024-03-17T10:18:09,-0.30568308715,0.02691925425,10.166505021749998,0.041996985126113565,-0.0019853120241435504,-0.04917465167494024,0.054180000000000006,0.50246,-0.45458000000000004,20.5,0,1993,1019,721,3610,30.6512890625,134355,26.33476530842835,1000.9288594577115,0
2024-03-17T10:18:09,-0.3038884702,0.01734796385,10.02054284315,0.04489859500755413,-0.0012217304763960308,-0.04505131131710364,0.057260000000000005,0.5005000000000001,-0.45654,21.5,0,1993,1019,721,3610,30.6512890625,134355,26.33476530842835,1000.9288594577115,0
2024-03-17T10:18:09,-0.34815568830000004,0.0083748791,10.05643518215,0.04077525464971753,-0.007788531787024696,-0.04046982203061852,0.05138,0.49910000000000004,-0.44814000000000004,20.5,0,1993,1019,721,3610,30.6512890625,134355,26.33476530842835,1000.9288594577115,0
2024-03-17T10:18:09,-0.3272184905499999,0.0394815729,10.0749795573,0.04306599929296009,-0.0054977871437821395,-0.04627304179349966,0.05138,0.49910000000000004,-0.44814000000000004,21.5,0,1993,1019,721,3610,30.6512890625,134355,26.33476530842835,1000.9288594577115,0
2024-03-17T10:18:09,-0.32482566794999995,0.04127618984999999,10.168897844349999,0.04123340357836604,-0.0016798794050445422,-0.04535674393620265,0.062020000000000006,0.50022,-0.4529,20.5,0,2086,1067,745,3749,30.6512890625,134355,26.33476530842835,1000.9288594577115,0
2024-03-17T10:18:09,-0.31645078885,0.027517459899999996,10.098907783299998,0.04642575810304917,-0.0068722339297276735,-0.04474587869800463,0.05782000000000001,0.4963000000000001,-0.45752000000000004,20.5,0,2086,1067,745,3749,30.6512890625,134355,26.33476530842835,1000.9288594577115,0
2024-03-17T10:18:09,-0.33080772444999995,0.01854437515,9.94756175385,0.04230241774521256,-0.00595593607243065,-0.04291328298341058,0.05782000000000001,0.4963000000000001,-0.45752000000000004,20.5,0,2086,1067,745,3749,30.6512890625,134355,26.33476530842835,1000.9288594577115,0
2024-03-17T10:18:09,-0.27517459899999996,0.028115665550000002,10.12223780365,0.038484510006474966,0.00015271630954950385,-0.047952921198544204,0.05698,0.50078,-0.4520600000000001,20.5,0,2086,1067,745,3749,30.674921875,135542,26.259622892707682,1000.9312300676828,0
2024-03-17T10:18:09,-0.3720839143,0.060418770649999995,10.321440285099998,0.038789942625573975,-0.001069014166846527,-0.04413501345980661,0.057260000000000005,0.50078,-0.45234,21.5,0,2086,1067,745,3749,30.674921875,135542,26.259622892707682,1000.9312300676828,0
2024-03-17T10:18:09,-0.41276189849999995,-0.0095712904,9.81834933345,0.04230241774521256,-0.016035212502697904,-0.04291328298341058,0.05922000000000001,0.50022,-0.4572400000000001,20.5,0,2086,1067,745,3749,30.674921875,135542,26.259622892707682,1000.9312300676828,0
2024-03-17T10:18:09,-0.23150558654999998,0.08374879099999999,10.0462656861,0.04810563750809371,-0.005803219762881146,-0.04673119072214818,0.05278000000000001,0.5010600000000001,-0.4520600000000001,20.5,0,2086,1067,745,3749,30.674921875,135542,26.259622892707682,1000.9312300676828,0
2024-03-17T10:18:09,-0.2679961312,0.07238288365,10.234102260199998,0.039706240482871004,0.005039638215133627,-0.04321871560250959,0.05278000000000001,0.5010600000000001,-0.4520600000000001,20.5,0,2086,1067,745,3749,30.674921875,135542,26.259622892707682,1000.9312300676828,0
2024-03-17T10:18:09,-0.41455651544999994,0.0167497582,10.04088183525,0.04092797095926703,-0.0016798794050445422,-0.04734205596034619,0.06258000000000001,0.4909800000000001,-0.45640000000000003,21.5,0,2086,1067,745,3749,30.674921875,135542,26.259622892707682,1000.9312300676828,0
2024-03-17T10:18:09,-0.3505485109,-0.008973084749999999,10.00498949625,0.041691552507014555,-0.007635815477475193,-0.04260785036431157,0.06566000000000001,0.49294000000000004,-0.4520600000000001,20.5,0,2086,1067,745,3749,30.674921875,135542,26.259622892707682,1000.9312300676828,0
2024-03-17T10:18:09,-0.24765713909999998,0.08315058534999999,9.955338427300001,0.04382958084070761,-0.00595593607243065,-0.04550946024575215,0.06566000000000001,0.49294000000000004,-0.4520600000000001,20.5,0,2086,1067,745,3749,30.6989453125,136529,26.179048753962242,1000.9306406356758,0
2024-03-17T10:18:09,-0.36909288605,0.04247260115,10.380662644449998,0.04260785036431157,0.006108652381980154,-0.0476474885794452,0.05838,0.49238000000000004,-0.45934,20.5,0,2086,1067,745,3749,30.6989453125,136529,26.179048753962242,1000.9306406356758,0
2024-03-17T10:18:09,-0.35114671655,-0.0095712904,9.9469635482,0.04123340357836604,-0.009926560120717751,-0.04688390703169768,0.05838,0.49238000000000004,-0.45934,20.5,0,2086,1067,745,3749,30.6989453125,136529,26.179048753962242,1000.9306406356758,0
2024-03-17T10:18:09,-0.215354034,0.037686955949999996,9.871589636299998,0.04581489286485116,-0.0038179077387375964,-0.049021935365390734,0.058660000000000004,0.4949,-0.46424000000000004,20.5,0,2086,1067,745,3749,30.6989453125,136529,26.179048753962242,1000.9306406356758,0
2024-03-17T10:18:09,-0.2608176634,0.11844471869999999,10.22632558675,0.041691552507014555,0.005039638215133627,-0.04627304179349966,0.058660000000000004,0.4963000000000001,-0.4555600000000001,21.5,0,2086,1067,745,3749,30.6989453125,136529,26.179048753962242,1000.9306406356758,0
2024-03-17T10:18:10,-0.3900300838,0.03529413334999999,10.155737320049997,0.039553524173321496,0.0016798794050445422,-0.04428772976935611,0.058660000000000004,0.4963000000000001,-0.4555600000000001,21.5,0,2086,1067,745,3749,30.6989453125,136529,26.179048753962242,1000.9306406356758,0
2024-03-17T10:18:10,-0.34277183744999995,-0.010169496049999999,10.0103733471,0.04413501345980661,-0.008704829644321718,-0.04520402762665314,0.05138,0.49322000000000005,-0.46046000000000004,20.5,0,2086,1067,745,3749,30.6989453125,136529,26.179048753962242,1000.9306406356758,0
2024-03-17T10:18:10,-0.2895315346,0.0394815729,10.033703367449998,0.04214970143566306,-0.00473420559603462,-0.043982297150257116,0.06706000000000001,0.49406000000000005,-0.4585000000000001,20.5,0,2086,1067,745,3749,30.7221875,137531,26.1039463915666,1000.9305786950114,0
2024-03-17T10:18:10,-0.3062812928,0.07537391189999999,10.43210833035,0.04596760917440065,0.0012217304763960308,-0.04459316238845512,0.05922000000000001,0.49462000000000006,-0.46032000000000006,20.5,0,2086,1067,745,3749,30.7221875,137531,26.1039463915666,1000.9305786950114,0
2024-03-17T10:18:10,-0.40019957984999993,0.0131605243,10.10668445675,0.04092797095926703,-0.008704829644321718,-0.04780020488899471,0.058100000000000006,0.49322000000000005,-0.44870000000000004,20.5,0,2086,1067,745,3749,30.7221875,137531,26.1039463915666,1000.9305786950114,0
2024-03-17T10:18:10,-0.3038884702,0.023330020349999998,9.877571692799998,0.04810563750809371,-0.0070249502392771765,-0.04703662334124718,0.058100000000000006,0.49322000000000005,-0.44870000000000004,20.5,0,2086,1067,745,3749,30.7221875,137531,26.1039463915666,1000.9305786950114,0
2024-03-17T10:18:10,-0.2584248408,0.07118647234999999,10.15214808615,0.041386119887915546,-0.0033597588100890844,-0.04535674393620265,0.06454,0.49434000000000006,-0.46284000000000003,20.5,0,2086,1067,745,3749,30.7221875,137531,26.1039463915666,1000.9305786950114,0
2024-03-17T10:18:10,-0.38584264425,0.044267218100000005,10.296913853449999,0.037110063220529434,0.007941248096574201,-0.04688390703169768,0.0511,0.48846000000000006,-0.4548600000000001,20.5,0,2086,1067,745,3749,30.7221875,137531,26.1039463915666,1000.9305786950114,0
2024-03-17T10:18:10,-0.36011980130000004,-0.041874395499999995,9.958329455549999,0.04306599929296009,-0.009773843811168246,-0.04642575810304917,0.0511,0.48846000000000006,-0.4548600000000001,20.5,0,2086,1067,745,3749,30.7221875,137531,26.1039463915666,1000.9305786950114,0
2024-03-17T10:18:10,-0.2548356069,0.053240302850000004,10.213763268099997,0.04505131131710364,-0.0036651914291880926,-0.04596760917440065,0.05922000000000001,0.49854000000000004,-0.4526200000000001,20.5,0,2086,1067,745,3749,30.7446484375,138206,26.034307997473768,1000.9310445463511,0
2024-03-17T10:18:10,-0.2667997199,0.03170489945,10.077970585549998,0.04627304179349966,-0.03665191429188092,-0.049327367984489744,0.05194000000000001,0.49546,-0.4590600000000001,20.5,0,2086,1067,745,3749,30.7446484375,138206,26.034307997473768,1000.9310445463511,0
2024-03-17T10:18:10,-0.26979074815,0.015553346899999999,9.631110965,0.04214970143566306,-0.0009162978572970231,-0.048411070127192715,0.054740000000000004,0.49994000000000005,-0.4543000000000001,20.5,0,2086,1067,745,3749,30.7446484375,138206,26.034307997473768,1000.9310445463511,0
2024-03-17T10:18:10,-0.16630117069999997,0.09750752095,10.199406332499999,0.04535674393620265,-0.0018325957145940463,-0.04474587869800463,0.06398000000000001,0.49266000000000004,-0.45472,20.5,0,2108,1078,750,3781,30.7446484375,138206,26.034307997473768,1000.9310445463511,0
2024-03-17T10:18:10,-0.28414768374999994,0.0897308475,10.5391871417,0.03527746750593539,0.012675453692608819,-0.04657847441259867,0.06398000000000001,0.49266000000000004,-0.45472,21.5,0,2108,1078,750,3781,30.7446484375,138206,26.034307997473768,1000.9310445463511,0
2024-03-17T10:18:10,-0.4935196612499999,-0.05563312545,10.04088183525,0.041386119887915546,-0.0054977871437821395,-0.04581489286485116,0.04914000000000001,0.49770000000000003,-0.4473000000000001,20.5,0,2108,1078,750,3781,30.7446484375,138206,26.034307997473768,1000.9310445463511,0
2024-03-17T10:18:10,-0.29491538544999996,0.0011964113,9.851848849849999,0.04474587869800463,-0.0119118721448613,-0.04245513405476207,0.054180000000000006,0.49210000000000004,-0.45052000000000003,21.5,0,2108,1078,750,3781,30.7446484375,138206,26.034307997473768,1000.9310445463511,0
2024-03-17T10:18:10,-0.2117648001,0.08434699664999999,10.25264663535,0.04306599929296009,0.0003054326190990077,-0.04780020488899471,0.04802,0.4963000000000001,-0.44282000000000005,21.5,0,2108,1078,750,3781,30.7659375,140158,25.953630315008724,1000.9296106595662,0
2024-03-17T10:18:10,-0.23270199784999998,0.09870393224999999,10.4542419394,0.041691552507014555,0.006719517620178169,-0.048716502746291725,0.052500000000000005,0.49574000000000007,-0.45584,20.5,0,2108,1078,750,3781,30.7659375,140158,25.953630315008724,1000.9296106595662,0
2024-03-17T10:18:10,-0.41814574934999993,0.038883367249999995,10.2580304862,0.036499197982331415,0.0018325957145940463,-0.05009094953223726,0.052500000000000005,0.49462000000000006,-0.4531800000000001,21.5,0,2108,1078,750,3781,30.7659375,140158,25.953630315008724,1000.9296106595662,0
2024-03-17T10:18:10,-0.3816552047,0.0023928226,9.887142983199999,0.04642575810304917,-0.01069014166846527,-0.0433714319120591,0.0539,0.49462000000000006,-0.4531800000000001,20.5,0,2108,1078,750,3781,30.7659375,140158,25.953630315008724,1000.9296106595662,0
2024-03-17T10:18:10,-0.23030917524999997,0.07238288365,10.259226897499998,0.041691552507014555,-0.0068722339297276735,-0.041844268816564056,0.052500000000000005,0.5005000000000001,-0.4543000000000001,20.5,0,2108,1078,750,3781,30.7659375,140158,25.953630315008724,1000.9296106595662,0
2024-03-17T10:18:10,-0.31824540579999994,0.046660040699999995,9.8608219346,0.041691552507014555,0.0,-0.04566217655530165,0.05978000000000001,0.49966000000000005,-0.44800000000000006,20.5,0,2108,1078,750,3781,30.7659375,140158,25.953630315008724,1000.9296106595662,0
2024-03-17T10:18:10,-0.28893332894999996,0.049651068949999995,10.2580304862,0.04596760917440065,0.004276056667386108,-0.04642575810304917,0.05978000000000001,0.49966000000000005,-0.44800000000000006,20.5,0,2108,1078,750,3781,30.7659375,140158,25.953630315008724,1000.9296106595662,0
2024-03-17T10:18:10,-0.3278166962,0.032901310749999996,9.8608219346,0.039095375244672985,-0.0044287729769356115,-0.041844268816564056,0.05698,0.4979800000000001,-0.45346000000000003,21.5,0,2108,1078,750,3781,30.7864453125,141213,25.883903080572825,1000.9376819088467,0
2024-03-17T10:18:10,-0.29611179675,0.08315058534999999,10.339984660249998,0.03695734691097993,0.0044287729769356115,-0.04642575810304917,0.0539,0.49238000000000004,-0.44646,20.5,0,2108,1078,750,3781,30.7864453125,141213,25.883903080572825,1000.9376819088467,0
2024-03-17T10:18:10,-0.42652062845,-0.062213387599999996,10.021141048799999,0.04214970143566306,-0.010537425358915765,-0.043676864531158106,0.0553,0.5049800000000001,-0.45416,20.5,0,2108,1078,750,3781,30.7864453125,141213,25.883903080572825,1000.9376819088467,0
2024-03-17T10:18:10,-0.3152543775499999,0.014955141249999998,10.1240324206,0.04489859500755413,-0.00595593607243065,-0.048258353817643214,0.055580000000000004,0.50414,-0.45458000000000004,21.5,0,2108,1078,750,3781,30.7864453125,141213,25.883903080572825,1000.9376819088467,0
2024-03-17T10:18:10,-0.28474588939999995,0.07477570624999999,10.1431750014,0.0433714319120591,-0.0022907446432425577,-0.0474947722698957,0.055580000000000004,0.50414,-0.45458000000000004,20.5,0,2108,1078,750,3781,30.7864453125,141213,25.883903080572825,1000.9376819088467,0
2024-03-17T10:18:10,-0.32422746229999994,0.0167497582,10.185647602549999,0.041386119887915546,-0.0022907446432425577,-0.04245513405476207,0.0623,0.49350000000000005,-0.45248,20.5,0,2108,1078,750,3781,30.7864453125,141213,25.883903080572825,1000.9376819088467,0
2024-03-17T10:18:10,-0.32662028489999995,0.0191425808,10.0893364929,0.04535674393620265,-0.003207042500539581,-0.04459316238845512,0.05306,0.49966000000000005,-0.45066,20.5,0,2108,1078,750,3781,30.7864453125,141213,25.883903080572825,1000.9376819088467,0
2024-03-17T10:18:10,-0.30508488149999996,0.04307080679999999,10.048658508699999,0.04077525464971753,-0.0022907446432425577,-0.04444044607890562,0.05306,0.49966000000000005,-0.45066,20.5,0,2108,1078,750,3781,30.8059765625,142045,25.797681521544504,1000.9387843013017,0
2024-03-17T10:18:10,-0.11665010174999998,0.09212367009999999,10.19402248165,0.04612032548395016,0.008704829644321718,-0.04413501345980661,0.062020000000000006,0.49826000000000004,-0.43960000000000005,20.5,0,2108,1078,750,3781,30.8059765625,142045,25.797681521544504,1000.9387843013017,0
2024-03-17T10:18:10,-0.22432711874999997,0.06640082715,10.4578311733,0.03604104905368291,0.004581489286485115,-0.04245513405476207,0.058940000000000006,0.49770000000000003,-0.4520600000000001,21.5,0,2108,1078,750,3781,30.8059765625,142045,25.797681521544504,1000.9387843013017,0
2024-03-17T10:18:10,-0.45942193919999996,-0.011964112999999998,10.080961613799998,0.04291328298341058,-0.008399397025222712,-0.04321871560250959,0.049980000000000004,0.4963000000000001,-0.45444000000000007,20.5,0,2108,1078,750,3781,30.8059765625,142045,25.797681521544504,1000.9387843013017,0
2024-03-17T10:18:10,-0.3212364340499999,0.013758729949999998,9.934401229549998,0.0474947722698957,-0.009315694882519735,-0.049938233222687756,0.049980000000000004,0.4963000000000001,-0.45444000000000007,21.5,0,2108,1078,750,3781,30.8059765625,142045,25.797681521544504,1000.9387843013017,0
2024-03-17T10:18:10,-0.21894326790000002,0.04606183504999999,9.753144917599998,0.040317105721069016,-0.00595593607243065,-0.04612032548395016,0.060340000000000005,0.49602,-0.45388000000000006,20.5,0,2108,1078,750,3781,30.8059765625,142045,25.797681521544504,1000.9387843013017,0
2024-03-17T10:18:10,-0.24047867129999997,0.05982056499999999,10.362716474949998,0.04627304179349966,0.0013744467859455349,-0.04459316238845512,0.05838,0.50022,-0.4631200000000001,20.5,0,2108,1078,750,3781,30.8059765625,142045,25.797681521544504,1000.9387843013017,0
2024-03-17T10:18:10,-0.4157529267499999,-0.0029910282499999996,10.127621654499999,0.0355829001250344,0.00045814892864851157,-0.04612032548395016,0.05838,0.50022,-0.4631200000000001,20.5,0,2108,1078,750,3781,30.8255078125,143008,25.727945921374605,1000.9488624445295,0
2024-03-17T10:18:11,-0.32662028489999995,0.06281159324999999,10.393823168749998,0.038637226316024474,0.0015271630954950385,-0.041996985126113565,0.06594000000000001,0.49322000000000005,-0.45920000000000005,20.5,0,2108,1078,750,3781,30.8255078125,143008,25.727945921374605,1000.9488624445295,0
2024-03-17T10:18:11,-0.33439695834999994,0.008973084749999999,9.870393224999999,0.04428772976935611,-0.008246680715673207,-0.04886921905584123,0.06594000000000001,0.49322000000000005,-0.45920000000000005,21.5,0,2125,1086,754,3806,30.8255078125,143008,25.727945921374605,1000.9488624445295,0
2024-03-17T10:18:11,-0.25663022385,0.07537391189999999,10.33160978115,0.04077525464971753,0.0018325957145940463,-0.04612032548395016,0.05222,0.49602,-0.45346000000000003,20.5,0,2125,1086,754,3806,30.8255078125,143008,25.727945921374605,1000.9488624445295,0
2024-03-17T10:18:11,-0.33499516399999996,0.0023928226,10.06839929515,0.038942658935123484,-0.0024434609527920616,-0.04566217655530165,0.05754000000000001,0.49182000000000003,-0.44800000000000006,20.5,0,2125,1086,754,3806,30.8255078125,143008,25.727945921374605,1000.9488624445295,0
2024-03-17T10:18:11,-0.36430724085,0.0382851616,10.131809094049999,0.04291328298341058,-0.004886921905584123,-0.04428772976935611,0.05782000000000001,0.4974200000000001,-0.44422,20.5,0,2125,1086,754,3806,30.8255078125,143008,25.727945921374605,1000.9488624445295,0
2024-03-17T10:18:11,-0.28534409504999997,0.046660040699999995,10.252048429699999,0.04444044607890562,-0.0068722339297276735,-0.04718933965079669,0.05782000000000001,0.4974200000000001,-0.44422,20.5,0,2125,1086,754,3806,30.8255078125,143008,25.727945921374605,1000.9488624445295,0
2024-03-17T10:18:11,-0.3397808092,0.06281159324999999,10.076175968599998,0.043676864531158106,0.0006108652381980154,-0.04505131131710364,0.05782000000000001,0.4949,-0.4496800000000001,20.5,0,2125,1086,754,3806,30.8440625,143617,25.658164787293337,1000.9358119721363,0
2024-03-17T10:18:11,-0.3529413335,0.025722842949999998,10.0594262104,0.04428772976935611,-0.0035124751196385882,-0.04612032548395016,0.06174000000000001,0.49462000000000006,-0.45332000000000006,20.5,0,2125,1086,754,3806,30.8440625,143617,25.658164787293337,1000.9358119721363,0
2024-03-17T10:18:11,-0.28414768374999994,0.05084748024999999,10.179067340399998,0.038484510006474966,-0.006261368691529657,-0.04306599929296009,0.05194000000000001,0.49966000000000005,-0.44884,20.5,0,2125,1086,754,3806,30.8440625,143617,25.658164787293337,1000.9358119721363,0
2024-03-17T10:18:11,-0.35772697870000003,-0.022133609050000003,9.865607579799999,0.043982297150257116,-0.006414085001079162,-0.04444044607890562,0.0497,0.5021800000000001,-0.44072,20.5,0,2125,1086,754,3806,30.8440625,143617,25.658164787293337,1000.9358119721363,0
2024-03-17T10:18:11,-0.28594230069999993,0.038883367249999995,9.9960164115,0.049021935365390734,-0.0027488935718910697,-0.04657847441259867,0.0497,0.5021800000000001,-0.44072,20.5,0,2125,1086,754,3806,30.8440625,143617,25.658164787293337,1000.9358119721363,0
2024-03-17T10:18:11,-0.43190447930000003,0.07836494014999999,10.31366361165,0.038637226316024474,0.0012217304763960308,-0.04459316238845512,0.059500000000000004,0.49322000000000005,-0.45458000000000004,21.5,0,2125,1086,754,3806,30.8440625,143617,25.658164787293337,1000.9358119721363,0
2024-03-17T10:18:11,-0.37387853125,0.0191425808,10.028917722249998,0.04123340357836604,-0.0015271630954950385,-0.04886921905584123,0.058940000000000006,0.50554,-0.44534,21.5,0,2125,1086,754,3806,30.8440625,143617,25.658164787293337,1000.9358119721363,0
2024-03-17T10:18:11,-0.33619157529999993,0.029910282499999996,10.1132647189,0.04001167310197001,-0.006566801310628666,-0.049021935365390734,0.058940000000000006,0.50554,-0.44534,21.5,0,2125,1086,754,3806,30.86203125,144726,25.588368819107497,1000.934379638638,0
2024-03-17T10:18:11,-0.2536391956,0.0251246373,10.000203851049998,0.04444044607890562,-0.007941248096574201,-0.04459316238845512,0.049980000000000004,0.49966000000000005,-0.45654,21.5,0,2125,1086,754,3806,30.86203125,144726,25.588368819107497,1000.934379638638,0
2024-03-17T10:18:11,-0.34217363179999993,0.08793623055000001,10.406983693049998,0.03344487179134134,0.003207042500539581,-0.04276056667386108,0.049980000000000004,0.49966000000000005,-0.45654,21.5,0,2125,1086,754,3806,30.86203125,144726,25.588368819107497,1000.934379638638,0
2024-03-17T10:18:11,-0.4295116567,0.0011964113,10.015158992299998,0.04459316238845512,-0.008704829644321718,-0.04627304179349966,0.0497,0.49518000000000006,-0.45220000000000005,20.5,0,2125,1086,754,3806,30.86203125,144726,25.588368819107497,1000.934379638638,0
2024-03-17T10:18:11,-0.33020951879999993,0.008973084749999999,9.992427177599998,0.04673119072214818,-0.0070249502392771765,-0.04535674393620265,0.050260000000000006,0.49154000000000003,-0.44884,20.5,0,2125,1086,754,3806,30.86203125,144726,25.588368819107497,1000.934379638638,0
2024-03-17T10:18:11,-0.25543381255,0.0323031051,10.19641530425,0.0433714319120591,-0.005345070834232635,-0.04566217655530165,0.050260000000000006,0.49154000000000003,-0.44884,21.5,0,2125,1086,754,3806,30.86203125,144726,25.588368819107497,1000.934379638638,0
2024-03-17T10:18:11,-0.30329026454999997,0.022133609050000003,10.04207824655,0.04123340357836604,-0.003207042500539581,-0.049021935365390734,0.045500000000000006,0.49770000000000003,-0.44996,21.5,0,2125,1086,754,3806,30.86203125,144726,25.588368819107497,1000.934379638638,0
2024-03-17T10:18:11,-0.36011980130000004,-0.0035892338999999997,10.373484176649999,0.043982297150257116,-0.0027488935718910697,-0.04505131131710364,0.05138,0.49546,-0.45542,21.5,0,2125,1086,754,3806,30.880390625,144602,25.524105777997676,1000.9228044202563,0
2024-03-17T10:18:11,-0.31405796625,0.029312076849999997,9.750752095,0.041080687268816536,-0.007941248096574201,-0.043676864531158106,0.054180000000000006,0.49546,-0.43610000000000004,21.5,0,2125,1086,754,3806,30.880390625,144602,25.524105777997676,1000.9228044202563,0
2024-03-17T10:18:11,-0.24945175605,0.11545369045,10.47398272585,0.04444044607890562,0.0027488935718910697,-0.04321871560250959,0.060340000000000005,0.49378000000000005,-0.4502400000000001,20.5,0,2125,1086,754,3806,30.880390625,144602,25.524105777997676,1000.9228044202563,0
2024-03-17T10:18:11,-0.38344982164999997,0.0251246373,10.386644700949999,0.04550946024575215,0.0044287729769356115,-0.049021935365390734,0.060340000000000005,0.49378000000000005,-0.4502400000000001,20.5,0,2125,1086,754,3806,30.880390625,144602,25.524105777997676,1000.9228044202563,0
2024-03-17T10:18:11,-0.44207397535,-0.035892338999999995,9.886544777549998,0.04444044607890562,-0.00946841119206924,-0.04489859500755413,0.0609,0.49014,-0.45192,21.5,0,2125,1086,754,3806,30.880390625,144602,25.524105777997676,1000.9228044202563,0
2024-03-17T10:18:11,-0.24885355039999998,0.04127618984999999,9.913464031799998,0.05009094953223726,-0.010079276430267254,-0.04581489286485116,0.05194000000000001,0.5010600000000001,-0.4443600000000001,21.5,0,2125,1086,754,3806,30.880390625,144602,25.524105777997676,1000.9228044202563,0
2024-03-17T10:18:11,-0.25184457865,0.09631110964999999,10.17846913475,0.038484510006474966,-0.038484510006474966,-0.04428772976935611,0.05194000000000001,0.5010600000000001,-0.4443600000000001,20.5,0,2125,1086,754,3806,30.880390625,144602,25.524105777997676,1000.9228044202563,0
2024-03-17T10:18:11,-0.36909288605,0.021535403399999997,10.0953185494,0.043676864531158106,-0.0025961772623415654,-0.04550946024575215,0.05278000000000001,0.49574000000000007,-0.46298,21.5,0,2125,1086,754,3806,30.89875,147123,25.470808471348832,1000.9202054366801,0
2024-03-17T10:18:11,-0.40857445894999994,-0.011964112999999998,10.0103733471,0.039858956792420505,-0.00595593607243065,-0.04612032548395016,0.0497,0.49938000000000005,-0.44520000000000004,21.5,0,2127,1087,754,3809,30.89875,147123,25.470808471348832,1000.9202054366801,0
2024-03-17T10:18:11,-0.3038884702,0.03649054465,10.033703367449998,0.04382958084070761,-0.0033597588100890844,-0.04673119072214818,0.05362000000000001,0.49658,-0.45248,21.5,0,2127,1087,754,3809,30.89875,147123,25.470808471348832,1000.9202054366801,0
2024-03-17T10:18:11,-0.2967100024,0.060418770649999995,10.089934698549998,0.041386119887915546,-0.0012217304763960308,-0.04489859500755413,0.055020000000000006,0.4974200000000001,-0.44604000000000005,20.5,0,2127,1087,754,3809,30.89875,147123,25.470808471348832,1000.9202054366801,0
2024-03-17T10:18:11,-0.33858439789999994,0.008973084749999999,10.11386292455,0.041844268816564056,0.001069014166846527,-0.04627304179349966,0.055020000000000006,0.4974200000000001,-0.44604000000000005,20.5,0,2127,1087,754,3809,30.89875,147123,25.470808471348832,1000.9202054366801,0
2024-03-17T10:18:11,-0.33439695834999994,0.0095712904,10.010971552749998,0.043676864531158106,-0.0025961772623415654,-0.04948008429403925,0.05642000000000001,0.4898600000000001,-0.44772,20.5,0,2127,1087,754,3809,30.89875,147123,25.470808471348832,1000.9202054366801,0
2024-03-17T10:18:11,-0.31405796625,0.0681954441,10.45484014505,0.04627304179349966,-0.003054326190990077,-0.04917465167494024,0.06006,0.49322000000000005,-0.45514000000000004,20.5,0,2127,1087,754,3809,30.89875,147123,25.470808471348832,1000.9202054366801,0
2024-03-17T10:18:11,-0.40857445894999994,0.01974078645,10.16770143305,0.04276056667386108,-0.001069014166846527,-0.04688390703169768,0.047740000000000005,0.49854000000000004,-0.43400000000000005,20.5,0,2127,1087,754,3809,30.914375,147638,25.40091383827581,1000.9131781695879,0
2024-03-17T10:18:11,-0.31884361145,0.023928225999999997,10.06481006125,0.043982297150257116,-0.00595593607243065,-0.04673119072214818,0.052500000000000005,0.4979800000000001,-0.44492000000000004,20.5,0,2127,1087,754,3809,30.914375,147638,25.40091383827581,1000.9131781695879,0
2024-03-17T10:18:11,-0.28115665549999996,0.0251246373,9.9373922578,0.04703662334124718,-0.002138028333693054,-0.048258353817643214,0.052500000000000005,0.49210000000000004,-0.4466,21.5,0,2127,1087,754,3809,30.914375,147638,25.40091383827581,1000.9131781695879,0
2024-03-17T10:18:11,-0.30089744194999996,0.041874395499999995,10.253843046649997,0.041844268816564056,-0.0036651914291880926,-0.04382958084070761,0.04886000000000001,0.49210000000000004,-0.4466,21.5,0,2127,1087,754,3809,30.914375,147638,25.40091383827581,1000.9131781695879,0
2024-03-17T10:18:11,-0.35174492220000003,0.03649054465,10.1419785901,0.038789942625573975,-0.0036651914291880926,-0.04321871560250959,0.0539,0.49406000000000005,-0.44926000000000005,21.5,0,2127,1087,754,3809,30.914375,147638,25.40091383827581,1000.9131781695879,0
2024-03-17T10:18:11,-0.37148570864999997,0.011365907350000001,10.027123105299998,0.04489859500755413,-0.008246680715673207,-0.04688390703169768,0.053340000000000005,0.49602,-0.4432400000000001,21.5,0,2127,1087,754,3809,30.914375,147638,25.40091383827581,1000.9131781695879,0
2024-03-17T10:18:12,-0.2895315346,0.03170489945,10.02413207705,0.04566217655530165,-0.0054977871437821395,-0.04596760917440065,0.053340000000000005,0.49602,-0.4432400000000001,20.5,0,2127,1087,754,3809,30.914375,147638,25.40091383827581,1000.9131781695879,0
2024-03-17T10:18:12,-0.2979064137,0.056231331100000004,10.092327521149999,0.04260785036431157,0.0013744467859455349,-0.04245513405476207,0.05278000000000001,0.49938000000000005,-0.4578000000000001,20.5,0,2127,1087,754,3809,30.931171875,147897,25.347536705115647,1000.9188211492067,0
2024-03-17T10:18:12,-0.19920248144999997,0.08374879099999999,10.0905329042,0.04688390703169768,0.0,-0.0476474885794452,0.050260000000000006,0.49546,-0.4606,20.5,0,2127,1087,754,3809,30.931171875,147897,25.347536705115647,1000.9188211492067,0
2024-03-17T10:18:12,-0.34875389395,0.044267218100000005,10.305886938199999,0.039553524173321496,-0.00045814892864851157,-0.04627304179349966,0.0511,0.4979800000000001,-0.46284000000000003,21.5,0,2127,1087,754,3809,30.931171875,147897,25.347536705115647,1000.9188211492067,0
2024-03-17T10:18:12,-0.4079762533,0.00418743955,10.066006472549999,0.04046982203061852,-0.006414085001079162,-0.049021935365390734,0.0511,0.4979800000000001,-0.46284000000000003,20.5,0,2127,1087,754,3809,30.931171875,147897,25.347536705115647,1000.9188211492067,0
2024-03-17T10:18:12,-0.29611179675,0.015553346899999999,10.0366943957,0.041691552507014555,-0.006261368691529657,-0.04535674393620265,0.05278000000000001,0.50246,-0.4432400000000001,21.5,0,2127,1087,754,3809,30.931171875,147897,25.347536705115647,1000.9188211492067,0
2024-03-17T10:18:12,-0.24765713909999998,0.035892338999999995,10.096514960699999,0.00045814892864851157,-0.0013744467859455349,-0.047952921198544204,0.0567,0.4949,-0.4424,21.5,0,2127,1087,754,3809,30.931171875,147897,25.347536705115647,1000.9188211492067,0
2024-03-17T10:18:12,-0.43130627364999996,0.0669990328,10.12582703755,0.04321871560250959,-0.0035124751196385882,-0.048411070127192715,0.0567,0.4949,-0.4424,20.5,0,2127,1087,754,3809,30.931171875,147897,25.347536705115647,1000.9188211492067,0
2024-03-17T10:18:12,-0.37387853125,0.03170489945,10.1084790737,0.038789942625573975,-0.0018325957145940463,-0.04703662334124718,0.04914000000000001,0.49518000000000006,-0.45234,20.5,0,2127,1087,754,3809,30.9462109375,147638,25.28311524825935,1000.921617554708,0
2024-03-17T10:18:12,-0.31286155495,0.0191425808,10.13539832795,0.0435241482216086,-0.0036651914291880926,-0.04474587869800463,0.057260000000000005,0.5019,-0.45164000000000004,20.5,0,2127,1087,754,3809,30.9462109375,147638,25.28311524825935,1000.921617554708,0
2024-03-17T10:18:12,-0.16630117069999997,0.04007977854999999,10.068997500799998,0.04474587869800463,-0.008399397025222712,-0.04703662334124718,0.05586000000000001,0.4968600000000001,-0.46032000000000006,20.5,0,2127,1087,754,3809,30.9462109375,147638,25.28311524825935,1000.921617554708,0
2024-03-17T10:18:12,-0.3272184905499999,0.011365907350000001,10.0115697584,0.04321871560250959,-0.0027488935718910697,-0.04673119072214818,0.05642000000000001,0.5019,-0.45332000000000006,20.5,0,2127,1087,754,3809,30.9462109375,147638,25.28311524825935,1000.921617554708,0
2024-03-17T10:18:12,-0.2907279459,0.03170489945,10.19880812685,0.041691552507014555,-0.0003054326190990077,-0.04428772976935611,0.05642000000000001,0.5019,-0.45332000000000006,21.5,0,2127,1087,754,3809,30.9462109375,147638,25.28311524825935,1000.921617554708,0
2024-03-17T10:18:12,-0.3840480273,0.07597211755,10.241280727999998,0.03802636107782646,-0.0006108652381980154,-0.04428772976935611,0.0553,0.49882000000000004,-0.45220000000000005,21.5,0,2127,1087,754,3809,30.9462109375,147638,25.28311524825935,1000.921617554708,0
2024-03-17T10:18:12,-0.3002992363,0.00658026215,9.88295554365,0.04382958084070761,-0.0022907446432425577,-0.043676864531158106,0.0483,0.49994000000000005,-0.46480000000000005,21.5,0,2127,1087,754,3809,30.9462109375,147638,25.28311524825935,1000.921617554708,0
2024-03-17T10:18:12,-0.27517459899999996,0.041874395499999995,10.181460162999999,0.04276056667386108,-0.001069014166846527,-0.04413501345980661,0.0483,0.49994000000000005,-0.46480000000000005,21.5,0,2127,1087,754,3809,30.960859375,148941,25.21869055552602,1000.9183931837206,0
2024-03-17T10:18:12,-0.30867411539999995,0.005383850849999999,9.814760099549998,0.04245513405476207,-0.007483099167925688,-0.04642575810304917,0.05754000000000001,0.4963000000000001,-0.44464000000000004,21.5,0,2129,1088,755,3813,30.960859375,148941,25.21869055552602,1000.9183931837206,0
2024-03-17T10:18:12,-0.19082760235,0.07776673449999999,10.290333591299998,0.0433714319120591,0.0025961772623415654,-0.048258353817643214,0.05754000000000001,0.4963000000000001,-0.44464000000000004,20.5,0,2129,1088,755,3813,30.960859375,148941,25.21869055552602,1000.9183931837206,0
2024-03-17T10:18:12,-0.40857445894999994,0.03529413334999999,10.39262675745,0.04016438941151951,-0.004276056667386108,-0.043982297150257116,0.04914000000000001,0.49938000000000005,-0.46508000000000005,21.5,0,2129,1088,755,3813,30.960859375,148941,25.21869055552602,1000.9183931837206,0
2024-03-17T10:18:12,-0.43609191885,0.13339985995,10.04207824655,0.04077525464971753,-0.012828170002158324,-0.041386119887915546,0.046900000000000004,0.50078,-0.45696000000000003,20.5,0,2129,1088,755,3813,30.960859375,148941,25.21869055552602,1000.9183931837206,0
2024-03-17T10:18:12,-0.23928225999999997,0.0370887503,10.033105161799998,0.04657847441259867,-0.008399397025222712,-0.04413501345980661,0.046900000000000004,0.48678000000000005,-0.4614400000000001,20.5,0,2129,1088,755,3813,30.960859375,148941,25.21869055552602,1000.9183931837206,0
2024-03-17T10:18:12,-0.25902304644999996,0.07776673449999999,10.182058368649999,0.04001167310197001,0.0068722339297276735,-0.04459316238845512,0.04886000000000001,0.48678000000000005,-0.4614400000000001,21.5,0,2129,1088,755,3813,30.960859375,148941,25.21869055552602,1000.9183931837206,0
2024-03-17T10:18:12,-0.31405796625,0.05503491979999999,10.1240324206,0.038789942625573975,0.0009162978572970231,-0.04703662334124718,0.05194000000000001,0.49770000000000003,-0.4438000000000001,21.5,0,2129,1088,755,3813,30.9747265625,150133,25.154233030171675,1000.9264742546419,0
2024-03-17T10:18:12,-0.30329026454999997,0.014356935599999999,9.85902731765,0.04123340357836604,-0.0054977871437821395,-0.04657847441259867,0.05642000000000001,0.49126000000000003,-0.4333000000000001,20.5,0,2129,1088,755,3813,30.9747265625,150133,25.154233030171675,1000.9264742546419,0
2024-03-17T10:18:12,-0.35952159564999997,0.028713871199999998,10.151549880500001,0.043676864531158106,-0.003970624048287101,-0.04306599929296009,0.052500000000000005,0.49714,-0.44338000000000005,21.5,0,2129,1088,755,3813,30.9747265625,150133,25.154233030171675,1000.9264742546419,0
2024-03-17T10:18:12,-0.35473595045,-0.03649054465,9.5413801175,0.04077525464971753,-0.002901609881440573,-0.04886921905584123,0.04914000000000001,0.49322000000000005,-0.43176000000000003,20.5,0,2129,1088,755,3813,30.9747265625,150133,25.154233030171675,1000.9264742546419,0
2024-03-17T10:18:12,-0.2560320182,0.10169496049999999,10.4315101247,0.043676864531158106,0.004886921905584123,-0.04566217655530165,0.04914000000000001,0.49322000000000005,-0.43176000000000003,20.5,0,2129,1088,755,3813,30.9747265625,150133,25.154233030171675,1000.9264742546419,0
2024-03-17T10:18:12,-0.3756731482,0.0023928226,10.0701939121,0.037110063220529434,-0.0054977871437821395,-0.041691552507014555,0.054740000000000004,0.49462000000000006,-0.4466,21.5,0,2129,1088,755,3813,30.9747265625,150133,25.154233030171675,1000.9264742546419,0
2024-03-17T10:18:12,-0.3816552047,0.15014961815,10.061819032999999,0.04550946024575215,-0.0036651914291880926,-0.043676864531158106,0.053340000000000005,0.49182000000000003,-0.44226000000000004,20.5,0,2129,1088,755,3813,30.9747265625,150133,25.154233030171675,1000.9264742546419,0
2024-03-17T10:18:12,-0.26620151425,0.023330020349999998,9.96431151205,0.04092797095926703,-0.007330382858376185,-0.04642575810304917,0.053340000000000005,0.49182000000000003,-0.44226000000000004,20.5,0,2129,1088,755,3813,30.9878125,150670,25.10611202493535,1000.9296983020173,0
2024-03-17T10:18:12,-0.21954147355,0.0167497582,10.08036340815,0.04306599929296009,0.0,-0.04612032548395016,0.05278000000000001,0.49574000000000007,-0.44954,20.5,0,2129,1088,755,3813,30.9878125,150670,25.10611202493535,1000.9296983020173,0
2024-03-17T10:18:12,-0.2739781877,0.05084748024999999,10.062417238649997,0.04001167310197001,0.002901609881440573,-0.04413501345980661,0.05278000000000001,0.49574000000000007,-0.44954,20.5,0,2129,1088,755,3813,30.9878125,150670,25.10611202493535,1000.9296983020173,0
2024-03-17T10:18:12,-0.33020951879999993,0.030508488149999995,10.07916699685,0.04092797095926703,-0.0016798794050445422,-0.04612032548395016,0.0567,0.49966000000000005,-0.44884,20.5,0,2129,1088,755,3813,30.9878125,150670,25.10611202493535,1000.9296983020173,0
2024-03-17T10:18:12,-0.3218346397,0.062213387599999996,10.223334558499998,0.040317105721069016,0.00045814892864851157,-0.043676864531158106,0.0483,0.49938000000000005,-0.44296,20.5,0,2129,1088,755,3813,30.9878125,150670,25.10611202493535,1000.9296983020173,0
2024-03-17T10:18:12,-0.36789647475,0.0323031051,10.0725867347,0.041080687268816536,-0.002901609881440573,-0.049021935365390734,0.0483,0.49938000000000005,-0.44296,21.5,0,2129,1088,755,3813,30.9878125,150670,25.10611202493535,1000.9296983020173,0
2024-03-17T10:18:12,-0.31704899449999996,0.0047856452,10.036096190049998,0.04581489286485116,-0.003970624048287101,-0.04535674393620265,0.05446000000000001,0.49378000000000005,-0.45304,21.5,0,2129,1088,755,3813,30.9878125,150670,25.10611202493535,1000.9296983020173,0
2024-03-17T10:18:12,-0.26141586904999997,0.03649054465,10.087541875949999,0.04444044607890562,-0.0013744467859455349,-0.04627304179349966,0.04802,0.49154000000000003,-0.4543000000000001,20.5,0,2129,1088,755,3813,31.00109375,151481,25.052565635676142,1000.9296459509703,0
2024-03-17T10:18:13,-0.42412780585,0.0323031051,10.31725284555,0.041080687268816536,0.0013744467859455349,-0.04566217655530165,0.05446000000000001,0.49322000000000005,-0.45108000000000004,20.5,0,2129,1088,755,3813,31.00109375,151481,25.052565635676142,1000.9296459509703,0
2024-03-17T10:18:13,-0.40319060809999996,0.0047856452,9.9218389109,0.04963280060358875,-0.013897184169004852,-0.04321871560250959,0.05306,0.4909800000000001,-0.45164000000000004,21.5,0,2129,1088,755,3813,31.00109375,151481,25.052565635676142,1000.9296459509703,0
2024-03-17T10:18:13,-0.39720855159999996,0.05503491979999999,9.981061270249999,0.04627304179349966,-0.004276056667386108,-0.04428772976935611,0.05306,0.4909800000000001,-0.45164000000000004,21.5,0,2129,1088,755,3813,31.00109375,151481,25.052565635676142,1000.9296459509703,0
2024-03-17T10:18:13,-0.2536391956,0.056231331100000004,9.954740221649999,0.04306599929296009,0.0013744467859455349,-0.04153883619746505,0.05306,0.49322000000000005,-0.46004,20.5,0,2129,1088,755,3813,31.00109375,151481,25.052565635676142,1000.9296459509703,0
2024-03-17T10:18:13,-0.34097722049999996,0.028713871199999998,10.152746291799998,0.041691552507014555,-0.0006108652381980154,-0.048716502746291725,0.05586000000000001,0.48818000000000006,-0.44492000000000004,21.5,0,2129,1088,755,3813,31.00109375,151481,25.052565635676142,1000.9296459509703,0
2024-03-17T10:18:13,-0.37686955949999995,0.01854437515,10.37468058795,0.04077525464971753,0.00015271630954950385,-0.04657847441259867,0.05586000000000001,0.48818000000000006,-0.44492000000000004,21.5,0,2129,1088,755,3813,31.00109375,151481,25.052565635676142,1000.9296459509703,0
2024-03-17T10:18:13,-0.38285161599999995,0.00418743955,10.1084790737,0.04123340357836604,-0.009621127501618741,-0.041691552507014555,0.0511,0.49266000000000004,-0.4426800000000001,20.5,0,2129,1088,755,3813,31.0159375,151617,24.993703488330194,1000.9267340318817,0
2024-03-17T10:18:13,-0.24646072779999997,0.0526420972,10.12463062625,0.041691552507014555,-0.0022907446432425577,-0.04535674393620265,0.0511,0.49434000000000006,-0.43316000000000004,20.5,0,2129,1089,755,3812,31.0159375,151617,24.993703488330194,1000.9267340318817,0
2024-03-17T10:18:13,-0.3026920589,0.051445685899999996,10.009176935799998,0.036499197982331415,-0.004276056667386108,-0.04382958084070761,0.061180000000000005,0.49378000000000005,-0.4501,20.5,0,2129,1089,755,3812,31.0159375,151617,24.993703488330194,1000.9267340318817,0
2024-03-17T10:18:13,-0.19202401365,0.023330020349999998,10.06839929515,0.04153883619746505,0.0,-0.049021935365390734,0.05446000000000001,0.4968600000000001,-0.44086000000000003,21.5,0,2129,1089,755,3812,31.0159375,151617,24.993703488330194,1000.9267340318817,0
2024-03-17T10:18:13,-0.31166514365,0.020338992099999998,10.098907783299998,0.043676864531158106,0.001069014166846527,-0.041691552507014555,0.05446000000000001,0.4968600000000001,-0.44086000000000003,20.5,0,2129,1089,755,3812,31.0159375,151617,24.993703488330194,1000.9267340318817,0
2024-03-17T10:18:13,-0.30089744194999996,0.023330020349999998,10.173085283899999,0.04260785036431157,0.0016798794050445422,-0.041996985126113565,0.0553,0.49994000000000005,-0.45388000000000006,20.5,0,2129,1089,755,3812,31.0159375,151617,24.993703488330194,1000.9267340318817,0
2024-03-17T10:18:13,-0.34755748264999997,0.01974078645,10.037890806999998,0.04230241774521256,-0.0044287729769356115,-0.048258353817643214,0.05642000000000001,0.49994000000000005,-0.45164000000000004,20.5,0,2129,1089,755,3812,31.0159375,151617,24.993703488330194,1000.9267340318817,0
2024-03-17T10:18:13,-0.34456645439999994,0.020338992099999998,10.013962581,0.04276056667386108,-0.005192354524683131,-0.05009094953223726,0.0553,0.49434000000000006,-0.4566800000000001,20.5,0,2129,1089,755,3812,31.0294140625,152439,24.940210225867837,1000.9252000520614,0
2024-03-17T10:18:13,-0.39661034595,-0.00658026215,10.12104139235,0.04413501345980661,-0.0025961772623415654,-0.04505131131710364,0.05194000000000001,0.5027400000000001,-0.44450000000000006,20.5,0,2129,1089,755,3812,31.0294140625,152439,24.940210225867837,1000.9252000520614,0
2024-03-17T10:18:13,-0.30568308715,0.0526420972,10.0008020567,0.04428772976935611,-0.003054326190990077,-0.04291328298341058,0.05194000000000001,0.5027400000000001,-0.44450000000000006,20.5,0,2129,1089,755,3812,31.0294140625,152439,24.940210225867837,1000.9252000520614,0
2024-03-17T10:18:13,-0.29132615154999997,0.04307080679999999,10.238289699749998,0.0435241482216086,-0.0007635815477475193,-0.04627304179349966,0.05782000000000001,0.4949,-0.44982000000000005,20.5,0,2129,1089,755,3812,31.0294140625,152439,24.940210225867837,1000.9252000520614,0
2024-03-17T10:18:13,-0.30089744194999996,0.03170489945,10.107880868049998,0.038637226316024474,0.0022907446432425577,-0.043982297150257116,0.049980000000000004,0.4979800000000001,-0.4496800000000001,20.5,0,2129,1089,755,3812,31.0294140625,152439,24.940210225867837,1000.9252000520614,0
2024-03-17T10:18:13,-0.3332005470499999,0.020338992099999998,10.0701939121,0.038179077387375956,-0.0038179077387375964,-0.04428772976935611,0.049980000000000004,0.4979800000000001,-0.4496800000000001,20.5,0,2129,1089,755,3812,31.0294140625,152439,24.940210225867837,1000.9252000520614,0
2024-03-17T10:18:13,-0.3493520996,0.05443671415,10.223334558499998,0.04291328298341058,-0.005803219762881146,-0.04627304179349966,0.049980000000000004,0.49266000000000004,-0.44954,20.5,0,2129,1089,755,3812,31.0294140625,152439,24.940210225867837,1000.9252000520614,0
2024-03-17T10:18:13,-0.31345976059999997,0.0251246373,10.14257679575,0.04016438941151951,0.0,-0.048258353817643214,0.0609,0.49322000000000005,-0.45598,21.5,0,2129,1089,755,3812,31.0411328125,152439,24.881154018138385,1000.9244120722383,0
2024-03-17T10:18:13,-0.34097722049999996,0.01615155255,10.073783145999998,0.04444044607890562,-0.0033597588100890844,-0.04642575810304917,0.055020000000000006,0.4979800000000001,-0.45626000000000005,20.5,0,2129,1089,755,3812,31.0411328125,152439,24.881154018138385,1000.9244120722383,0
2024-03-17T10:18:13,-0.32004002274999993,0.029910282499999996,10.028319516599998,0.038484510006474966,-0.0036651914291880926,-0.04520402762665314,0.05278000000000001,0.49770000000000003,-0.46032000000000006,20.5,0,2129,1089,755,3812,31.0411328125,152439,24.881154018138385,1000.9244120722383,0
2024-03-17T10:18:13,-0.31884361145,0.020937197749999997,10.11386292455,0.04505131131710364,-0.0033597588100890844,-0.04581489286485116,0.05278000000000001,0.49770000000000003,-0.46032000000000006,21.5,0,2129,1089,755,3812,31.0411328125,152439,24.881154018138385,1000.9244120722383,0
2024-03-17T10:18:13,-0.31645078885,0.021535403399999997,9.91525864875,0.041844268816564056,-0.0044287729769356115,-0.048411070127192715,0.06062000000000001,0.49938000000000005,-0.44926000000000005,20.5,0,2129,1089,755,3812,31.0411328125,152439,24.881154018138385,1000.9244120722383,0
2024-03-17T10:18:13,-0.29252256285,0.05084748024999999,10.349555950649997,0.04642575810304917,-0.006566801310628666,-0.04321871560250959,0.04802,0.49546,-0.4501,20.5,0,2129,1089,755,3812,31.0411328125,152439,24.881154018138385,1000.9244120722383,0
2024-03-17T10:18:13,-0.34576286570000003,0.0,10.0055877019,0.04092797095926703,-0.004886921905584123,-0.04596760917440065,0.04802,0.49546,-0.4501,21.5,0,2129,1089,755,3812,31.0411328125,152439,24.881154018138385,1000.9244120722383,0
2024-03-17T10:18:13,-0.3439682487499999,0.00658026215,10.0546405652,0.043676864531158106,-0.004581489286485115,-0.048411070127192715,0.0511,0.49406000000000005,-0.44506000000000007,20.5,0,2129,1089,755,3812,31.055390625,152715,24.83320467507579,1000.9259371092699,0
2024-03-17T10:18:13,-0.33200413574999993,-0.0131605243,9.96072227815,0.04245513405476207,-0.003207042500539581,-0.04657847441259867,0.0553,0.49434000000000006,-0.45626000000000005,20.5,0,2129,1089,755,3812,31.055390625,152715,24.83320467507579,1000.9259371092699,0
2024-03-17T10:18:13,-0.29132615154999997,0.01615155255,9.6861458848,0.04321871560250959,-0.007635815477475193,-0.04688390703169768,0.054740000000000004,0.49770000000000003,-0.44996,20.5,0,2129,1089,755,3812,31.055390625,152715,24.83320467507579,1000.9259371092699,0
2024-03-17T10:18:13,-0.22731814699999997,0.08913264185,10.1359965336,0.04001167310197001,0.009315694882519735,-0.049938233222687756,0.059500000000000004,0.4907,-0.44954,20.5,0,2129,1089,755,3812,31.055390625,152715,24.83320467507579,1000.9259371092699,0
2024-03-17T10:18:13,-0.3553341561,0.031106693799999998,10.3932249631,0.040622538340168025,0.005803219762881146,-0.04459316238845512,0.059500000000000004,0.4907,-0.44954,20.5,0,2129,1089,755,3812,31.055390625,152715,24.83320467507579,1000.9259371092699,0
2024-03-17T10:18:13,-0.36909288605,-0.024526431649999996,10.001998467999998,0.04016438941151951,-0.006414085001079162,-0.04245513405476207,0.05922000000000001,0.49658,-0.4548600000000001,20.5,0,2129,1089,755,3812,31.055390625,152715,24.83320467507579,1000.9259371092699,0
2024-03-17T10:18:13,-0.2979064137,0.014356935599999999,10.025926693999999,0.04489859500755413,-0.010384709049366262,-0.04276056667386108,0.058940000000000006,0.49546,-0.43792000000000003,20.5,0,2129,1089,755,3812,31.055390625,152715,24.83320467507579,1000.9259371092699,0
2024-03-17T10:18:13,-0.30747770409999997,0.0191425808,10.0354979844,0.04306599929296009,-0.001069014166846527,-0.04474587869800463,0.058940000000000006,0.49546,-0.43792000000000003,20.5,0,2129,1089,755,3812,31.0692578125,154392,24.779795607934435,1000.9142560249437,0
2024-03-17T10:18:13,-0.2967100024,0.0502492746,10.1072826624,0.04413501345980661,-0.00045814892864851157,-0.04230241774521256,0.05614000000000001,0.49882000000000004,-0.45766,20.5,0,2131,1089,755,3813,31.0692578125,154392,24.779795607934435,1000.9142560249437,0
2024-03-17T10:18:13,-0.27936203854999997,0.028115665550000002,10.0115697584,0.04092797095926703,-0.006261368691529657,-0.04596760917440065,0.05614000000000001,0.49882000000000004,-0.45766,20.5,0,2131,1089,755,3813,31.0692578125,154392,24.779795607934435,1000.9142560249437,0
2024-03-17T10:18:13,-0.3332005470499999,0.023928225999999997,10.13539832795,0.04306599929296009,-0.002901609881440573,-0.04688390703169768,0.04802,0.50022,-0.45402000000000003,21.5,0,2131,1089,755,3813,31.0692578125,154392,24.779795607934435,1000.9142560249437,0
2024-03-17T10:18:13,-0.33020951879999993,0.028713871199999998,10.0594262104,0.04276056667386108,-0.0018325957145940463,-0.04657847441259867,0.04746000000000001,0.5021800000000001,-0.45052000000000003,20.5,0,2131,1089,755,3813,31.0692578125,154392,24.779795607934435,1000.9142560249437,0
2024-03-17T10:18:13,-0.31226334929999994,0.0346959277,10.14975526355,0.043982297150257116,0.0016798794050445422,-0.0435241482216086,0.04746000000000001,0.5021800000000001,-0.45052000000000003,20.5,0,2131,1089,755,3813,31.0692578125,154392,24.779795607934435,1000.9142560249437,0
2024-03-17T10:18:13,-0.32662028489999995,0.037686955949999996,10.0929257268,0.041080687268816536,-0.004886921905584123,-0.04734205596034619,0.04746000000000001,0.5027400000000001,-0.44996,21.5,0,2131,1089,755,3813,31.0692578125,154392,24.779795607934435,1000.9142560249437,0
2024-03-17T10:18:14,-0.3212364340499999,0.049651068949999995,10.337591837649999,0.038789942625573975,-0.0018325957145940463,-0.04291328298341058,0.046900000000000004,0.49154000000000003,-0.44884,21.5,0,2131,1089,755,3813,31.08234375,153969,24.73178845602613,1000.9228632811823,0
2024-03-17T10:18:14,-0.36909288605,0.022133609050000003,10.2281202037,0.04245513405476207,-0.00595593607243065,-0.04581489286485116,0.04802,0.49966000000000005,-0.45528,20.5,0,2131,1089,755,3813,31.08234375,153969,24.73178845602613,1000.9228632811823,0
2024-03-17T10:18:14,-0.38225341035,0.025722842949999998,10.006784113199998,0.04566217655530165,-0.005039638215133627,-0.0476474885794452,0.05054000000000001,0.49994000000000005,-0.45696000000000003,21.5,0,2131,1089,755,3813,31.08234375,153969,24.73178845602613,1000.9228632811823,0
2024-03-17T10:18:14,-0.28773691765000003,0.023928225999999997,9.954740221649999,0.04642575810304917,-0.0035124751196385882,-0.04444044607890562,0.05222,0.49574000000000007,-0.45234,20.5,0,2131,1089,755,3813,31.08234375,153969,24.73178845602613,1000.9228632811823,0
2024-03-17T10:18:14,-0.30209385325,0.04725824635,10.0773723799,0.04459316238845512,-0.00045814892864851157,-0.041691552507014555,0.05222,0.49574000000000007,-0.45234,20.5,0,2131,1089,755,3813,31.08234375,153969,24.73178845602613,1000.9228632811823,0
2024-03-17T10:18:14,-0.33260234139999995,0.044267218100000005,10.159326553949999,0.04291328298341058,0.0003054326190990077,-0.04535674393620265,0.054180000000000006,0.49770000000000003,-0.44688000000000005,21.5,0,2131,1089,755,3813,31.08234375,153969,24.73178845602613,1000.9228632811823,0
2024-03-17T10:18:14,-0.32063822839999995,0.0370887503,10.1024970172,0.039400807863771994,-0.005192354524683131,-0.04474587869800463,0.0539,0.49882000000000004,-0.44688000000000005,20.5,0,2131,1089,755,3813,31.08234375,153969,24.73178845602613,1000.9228632811823,0
2024-03-17T10:18:14,-0.28235306679999994,0.037686955949999996,10.03729260135,0.0474947722698957,-0.0035124751196385882,-0.0474947722698957,0.0539,0.49882000000000004,-0.44688000000000005,21.5,0,2131,1089,755,3813,31.0946484375,153549,24.694619315826014,1000.9194283406583,0
2024-03-17T10:18:14,-0.3696910917,0.011964112999999998,9.978070242,0.0433714319120591,-0.0054977871437821395,-0.04718933965079669,0.05362000000000001,0.49266000000000004,-0.45864000000000005,21.5,0,2131,1089,755,3813,31.0946484375,153549,24.694619315826014,1000.9194283406583,0
2024-03-17T10:18:14,-0.3176472001499999,0.03649054465,9.97148997985,0.04413501345980661,-0.005345070834232635,-0.04612032548395016,0.05362000000000001,0.49266000000000004,-0.45864000000000005,21.5,0,2131,1089,755,3813,31.0946484375,153549,24.694619315826014,1000.9194283406583,0
2024-03-17T10:18:14,-0.2667997199,0.028713871199999998,10.006784113199998,0.04505131131710364,-0.006566801310628666,-0.04566217655530165,0.049980000000000004,0.50778,-0.45738000000000006,20.5,0,2131,1089,755,3813,31.0946484375,153549,24.694619315826014,1000.9194283406583,0
2024-03-17T10:18:14,-0.30508488149999996,0.060418770649999995,10.225129175449998,0.04474587869800463,-0.002138028333693054,-0.051618112627732304,0.0553,0.49406000000000005,-0.44982000000000005,20.5,0,2131,1089,755,3813,31.0946484375,153549,24.694619315826014,1000.9194283406583,0
2024-03-17T10:18:14,-0.3218346397,0.04725824635,10.143773207049998,0.04291328298341058,-0.0035124751196385882,-0.0474947722698957,0.0553,0.49406000000000005,-0.44982000000000005,21.5,0,2131,1089,755,3813,31.0946484375,153549,24.694619315826014,1000.9194283406583,0
2024-03-17T10:18:14,-0.35174492220000003,0.013758729949999998,10.127023448849998,0.04612032548395016,-0.006566801310628666,-0.04428772976935611,0.060340000000000005,0.49658,-0.44422,20.5,0,2131,1089,755,3813,31.0946484375,153549,24.694619315826014,1000.9194283406583,0
2024-03-17T10:18:14,-0.30209385325,0.040677984199999996,10.05763159345,0.041844268816564056,-0.0036651914291880926,-0.04505131131710364,0.055020000000000006,0.5019,-0.45066,21.5,0,2131,1089,755,3813,31.1063671875,155101,24.641095840461542,1000.9132480095016,0
2024-03-17T10:18:14,-0.31046873235,0.04366901245,10.062417238649997,0.04245513405476207,-0.003207042500539581,-0.049327367984489744,0.06146000000000001,0.49462000000000006,-0.45864000000000005,21.5,0,2131,1089,755,3813,31.1063671875,155101,24.641095840461542,1000.9132480095016,0
2024-03-17T10:18:14,-0.3278166962,0.062213387599999996,10.164710404799997,0.039706240482871004,0.0019853120241435504,-0.04673119072214818,0.054740000000000004,0.49574000000000007,-0.45234,21.5,0,2131,1089,755,3813,31.1063671875,155101,24.641095840461542,1000.9132480095016,0
2024-03-17T10:18:14,-0.31944181709999997,0.030508488149999995,10.03250695615,0.04276056667386108,-0.003970624048287101,-0.0474947722698957,0.054740000000000004,0.49574000000000007,-0.45234,21.5,0,2131,1089,755,3813,31.1063671875,155101,24.641095840461542,1000.9132480095016,0
2024-03-17T10:18:14,-0.30807590975,0.022731814700000002,10.087541875949999,0.041996985126113565,-0.005039638215133627,-0.04428772976935611,0.05222,0.49406000000000005,-0.45276000000000005,21.5,0,2131,1089,755,3813,31.1063671875,155101,24.641095840461542,1000.9132480095016,0
2024-03-17T10:18:14,-0.3391826035499999,0.025722842949999998,10.03848901265,0.04413501345980661,-0.0027488935718910697,-0.04810563750809371,0.06258000000000001,0.49266000000000004,-0.45766,21.5,0,2131,1089,755,3813,31.1063671875,155101,24.641095840461542,1000.9132480095016,0
2024-03-17T10:18:14,-0.29371897415,0.041874395499999995,10.078568791199999,0.04428772976935611,-0.0025961772623415654,-0.04474587869800463,0.06258000000000001,0.49266000000000004,-0.45766,21.5,0,2131,1089,755,3813,31.1063671875,155101,24.641095840461542,1000.9132480095016,0
2024-03-17T10:18:14,-0.31046873235,0.0251246373,9.9984092341,0.038942658935123484,-0.004276056667386108,-0.04856378643674222,0.054740000000000004,0.48510000000000003,-0.4536,20.5,0,2130,1089,755,3812,31.117109375,154675,24.598392854281492,1000.9144676935754,0
2024-03-17T10:18:14,-0.3158525832,0.010169496049999999,10.128219860149999,0.04413501345980661,0.0006108652381980154,-0.04566217655530165,0.053340000000000005,0.49658,-0.44898000000000005,20.5,0,2130,1089,755,3812,31.117109375,154675,24.598392854281492,1000.9144676935754,0
2024-03-17T10:18:14,-0.3212364340499999,0.0394815729,10.08036340815,0.04153883619746505,-0.0056505034533316425,-0.04856378643674222,0.04914000000000001,0.49854000000000004,-0.4590600000000001,20.5,0,2130,1089,755,3812,31.117109375,154675,24.598392854281492,1000.9144676935754,0
2024-03-17T10:18:14,-0.32243284534999994,0.04366901245,10.0725867347,0.04245513405476207,-0.006108652381980154,-0.0474947722698957,0.055020000000000006,0.4974200000000001,-0.45234,20.5,0,2130,1089,755,3812,31.117109375,154675,24.598392854281492,1000.9144676935754,0
2024-03-17T10:18:14,-0.31465617189999995,0.0251246373,10.11625574715,0.04306599929296009,-0.003054326190990077,-0.04718933965079669,0.055020000000000006,0.4974200000000001,-0.45234,20.5,0,2130,1089,755,3812,31.117109375,154675,24.598392854281492,1000.9144676935754,0
2024-03-17T10:18:14,-0.32063822839999995,0.035892338999999995,10.06481006125,0.041844268816564056,-0.002901609881440573,-0.04657847441259867,0.05278000000000001,0.49350000000000005,-0.46284000000000003,20.5,0,2130,1089,755,3812,31.117109375,154675,24.598392854281492,1000.9144676935754,0
2024-03-17T10:18:14,-0.3272184905499999,0.0538385085,10.060622621699999,0.04260785036431157,-0.007788531787024696,-0.04734205596034619,0.049980000000000004,0.49854000000000004,-0.45304,21.5,0,2130,1089,755,3812,31.117109375,154675,24.598392854281492,1000.9144676935754,0
2024-03-17T10:18:14,-0.34217363179999993,0.058624153699999994,10.07916699685,0.04230241774521256,-0.0015271630954950385,-0.04489859500755413,0.049980000000000004,0.49854000000000004,-0.45304,21.5,0,2130,1089,755,3812,31.128828125,154959,24.55577452847184,1000.9118784964094,0
2024-03-17T10:18:14,-0.34037901484999994,0.047856451999999994,10.104291634149998,0.043982297150257116,-0.004886921905584123,-0.04703662334124718,0.054180000000000006,0.49938000000000005,-0.45514000000000004,21.5,0,2130,1089,755,3812,31.128828125,154959,24.55577452847184,1000.9118784964094,0
2024-03-17T10:18:14,-0.32602207924999993,-0.0083748791,10.1024970172,0.04734205596034619,-0.003207042500539581,-0.051618112627732304,0.054180000000000006,0.49938000000000005,-0.45514000000000004,20.5,0,2130,1089,755,3812,31.128828125,154959,24.55577452847184,1000.9118784964094,0
2024-03-17T10:18:14,-0.32303105099999996,0.0011964113,10.1359965336,0.0435241482216086,-0.005192354524683131,-0.04444044607890562,0.0553,0.5005000000000001,-0.44408000000000003,20.5,0,2130,1089,755,3812,31.128828125,154959,24.55577452847184,1000.9118784964094,0
2024-03-17T10:18:14,-0.2955135911,0.040677984199999996,10.097711372000001,0.038331793696925465,-0.0022907446432425577,-0.041691552507014555,0.0553,0.4949,-0.4520600000000001,21.5,0,2130,1089,755,3812,31.128828125,154959,24.55577452847184,1000.9118784964094,0
2024-03-17T10:18:14,-0.31345976059999997,0.0538385085,10.1048898398,0.04474587869800463,-0.0016798794050445422,-0.04657847441259867,0.0553,0.4949,-0.4520600000000001,21.5,0,2130,1089,755,3812,31.128828125,154959,24.55577452847184,1000.9118784964094,0
2024-03-17T10:18:14,-0.31286155495,0.0251246373,10.097711372000001,0.04123340357836604,-0.0022907446432425577,-0.041386119887915546,0.05978000000000001,0.49714,-0.44954,20.5,0,2130,1089,755,3812,31.128828125,154959,24.55577452847184,1000.9118784964094,0
2024-03-17T10:18:14,-0.31345976059999997,0.0167497582,10.101898811549999,0.04444044607890562,0.03787364476827696,-0.04917465167494024,0.05614000000000001,0.4909800000000001,-0.4520600000000001,21.5,0,2130,1089,755,3812,31.138203125,154959,24.518427269363013,1000.9072917623786,0
2024-03-17T10:18:14,-0.32602207924999993,0.022731814700000002,10.0845508477,0.04214970143566306,-0.0044287729769356115,-0.04306599929296009,0.055020000000000006,0.49350000000000005,-0.43946,20.5,0,2130,1089,755,3812,31.138203125,154959,24.518427269363013,1000.9072917623786,0
2024-03-17T10:18:15,-0.31046873235,0.037686955949999996,10.109675485,0.039553524173321496,-0.0035124751196385882,-0.04245513405476207,0.05446000000000001,0.49574000000000007,-0.44338000000000005,20.5,0,2130,1089,755,3812,31.138203125,154959,24.518427269363013,1000.9072917623786,0
2024-03-17T10:18:15,-0.17706887240000002,0.04905286329999999,10.13539832795,0.04459316238845512,-0.0022907446432425577,-0.048716502746291725,0.05446000000000001,0.49574000000000007,-0.44338000000000005,20.5,0,2130,1089,755,3812,31.138203125,154959,24.518427269363013,1000.9072917623786,0
2024-03-17T10:18:15,-0.3218346397,0.0370887503,10.13420191665,0.0433714319120591,-0.006261368691529657,-0.04810563750809371,0.0567,0.49714,-0.4502400000000001,21.5,0,2130,1089,755,3812,31.138203125,154959,24.518427269363013,1000.9072917623786,0
2024-03-17T10:18:15,-0.34995030525,0.046660040699999995,10.073783145999998,0.04566217655530165,-0.0022907446432425577,-0.04474587869800463,0.055580000000000004,0.49994000000000005,-0.45346000000000003,21.5,0,2130,1089,755,3812,31.138203125,154959,24.518427269363013,1000.9072917623786,0
2024-03-17T10:18:15,-0.28474588939999995,0.03649054465,10.10309522285,0.04413501345980661,0.00015271630954950385,-0.04734205596034619,0.055580000000000004,0.49994000000000005,-0.45346000000000003,20.5,0,2130,1089,755,3812,31.138203125,154959,24.518427269363013,1000.9072917623786,0
2024-03-17T10:18:15,-0.2907279459,0.029910282499999996,10.112666513249998,0.041080687268816536,-0.003207042500539581,-0.04642575810304917,0.05138,0.49854000000000004,-0.44828,21.5,0,2130,1089,755,3812,31.149921875,155530,24.481263704347402,1000.911886704519,0
2024-03-17T10:18:15,-0.31345976059999997,0.0191425808,10.077970585549998,0.04642575810304917,-0.006261368691529657,-0.04673119072214818,0.04942,0.4979800000000001,-0.45248,20.5,0,2130,1089,755,3812,31.149921875,155530,24.481263704347402,1000.911886704519,0
2024-03-17T10:18:15,-0.3296113131499999,0.029910282499999996,10.0845508477,0.04092797095926703,-0.0022907446432425577,-0.04428772976935611,0.051660000000000005,0.49910000000000004,-0.44492000000000004,20.5,0,2130,1089,755,3812,31.149921875,155530,24.481263704347402,1000.911886704519,0
2024-03-17T10:18:15,-0.3218346397,0.05084748024999999,10.0701939121,0.07788531787024697,-0.0056505034533316425,-0.04535674393620265,0.05922000000000001,0.4968600000000001,-0.4459,20.5,0,2130,1089,755,3812,31.149921875,155530,24.481263704347402,1000.911886704519,0
2024-03-17T10:18:15,-0.3158525832,0.020937197749999997,10.083354436399997,0.041996985126113565,-0.002901609881440573,-0.04917465167494024,0.05922000000000001,0.4968600000000001,-0.4459,21.5,0,2130,1089,755,3812,31.149921875,155530,24.481263704347402,1000.911886704519,0
2024-03-17T10:18:15,-0.31106693799999996,0.04486542375,10.019944637499998,0.03924809155422249,-0.0056505034533316425,-0.04550946024575215,0.06146000000000001,0.49294000000000004,-0.45052000000000003,20.5,0,2130,1089,755,3812,31.149921875,155530,24.481263704347402,1000.911886704519,0
2024-03-17T10:18:15,-0.2703889538,0.0526420972,10.2077812116,0.043676864531158106,-0.002138028333693054,-0.04856378643674222,0.05054000000000001,0.49378000000000005,-0.4443600000000001,20.5,0,2086,1064,740,3737,31.149921875,155530,24.481263704347402,1000.911886704519,0
2024-03-17T10:18:15,-0.32901310749999996,0.008973084749999999,10.0163554036,0.04260785036431157,-0.0035124751196385882,-0.04535674393620265,0.05978000000000001,0.49574000000000007,-0.4466,20.5,0,2086,1064,740,3737,31.160859375,157858,24.444050451766945,1000.9152168320464,0
2024-03-17T10:18:15,-0.33140593009999997,0.03649054465,10.02652489965,0.04627304179349966,-0.004276056667386108,-0.04459316238845512,0.06314,0.49658,-0.4537400000000001,20.5,0,2086,1064,740,3737,31.160859375,157858,24.444050451766945,1000.9152168320464,0
2024-03-17T10:18:15,-0.28175486115,0.021535403399999997,9.967900745949999,0.041996985126113565,-0.0025961772623415654,-0.04703662334124718,0.058660000000000004,0.50778,-0.45248,21.5,0,2086,1064,740,3737,31.160859375,157858,24.444050451766945,1000.9152168320464,0
2024-03-17T10:18:15,-0.33858439789999994,0.0502492746,10.12582703755,0.040317105721069016,-0.005192354524683131,-0.041844268816564056,0.058660000000000004,0.50778,-0.45248,21.5,0,2086,1064,740,3737,31.160859375,157858,24.444050451766945,1000.9152168320464,0
2024-03-17T10:18:15,-0.31884361145,0.04247260115,10.11864856975,0.040317105721069016,-0.0018325957145940463,-0.043982297150257116,0.05642000000000001,0.49658,-0.4536,21.5,0,2086,1064,740,3737,31.160859375,157858,24.444050451766945,1000.9152168320464,0
2024-03-17T10:18:15,-0.3278166962,0.020338992099999998,10.101300605899999,0.041080687268816536,0.00473420559603462,-0.04734205596034619,0.05782000000000001,0.49210000000000004,-0.45150000000000007,21.5,0,2086,1064,740,3737,31.160859375,157858,24.444050451766945,1000.9152168320464,0
