Timestamp,Accel_X,Accel_Y,Accel_Z,Gyro_X,Gyro_Y,Gyro_Z,Mag_X,Mag_Y,Mag_Z,LSM9DS1_Temp,Proximity,Color_R,Color_G,Color_B,Color_C,BME680_Temp,Gas,Humidity,Pressure,Switch_Pressed,GPS_Latitude,GPS_Longitude,GPS_Speed,GPS_Timestamp,Pad_press
2024-04-02T10:38:55,1.4051850718499999,-0.1268195978,9.80159957525,0.020769418098732523,0.022754730122876075,0.09025533894375677,0.032060000000000005,0.29722000000000004,-0.19978000000000004,22.5,1,515,377,724,2031,33.574921875,131630,100,695.662002676745,0,,,,N/A,False
2024-04-02T10:38:55,1.3220344865,-0.17706887240000002,9.8153583052,0.021838432265579053,0.022754730122876075,0.08888089215781124,0.03878,0.28714000000000006,-0.20244000000000004,22.5,1,515,377,724,2031,33.574921875,131630,100,695.662002676745,0,,,,N/A,False
2024-04-02T10:38:55,1.32502551475,-0.11904292434999998,9.60419171075,0.020158552860534508,0.022449297503777065,0.08827002691961322,0.03122,0.30086,-0.20692000000000002,22.5,1,515,377,724,2031,33.574921875,131630,100,695.662002676745,0,,,,N/A,False
2024-04-02T10:38:55,1.2574282763,-0.14536397295,9.74177901025,0.019853120241435502,0.020463985479633514,0.08536841703817265,0.032900000000000006,0.29806,-0.21532,22.5,1,515,377,724,2031,31.66671875,39952,23.13425158439602,1013.0693639573889,0,,,,N/A,False
2024-04-02T10:38:55,1.2652049497499998,-0.10408778309999998,9.55992449265,0.01756237559819294,0.019700403931885997,0.09086620418195479,0.040740000000000005,0.28546000000000005,-0.20216000000000003,22.5,1,515,377,724,2031,31.66671875,39952,23.13425158439602,1013.0693639573889,0,,,,N/A,False
2024-04-02T10:38:55,1.25683007065,-0.14955141249999998,9.6454679006,0.014966198335851376,0.020922134408282028,0.09162978572970232,0.03514,0.29442,-0.19992000000000001,22.5,1,515,377,724,2031,31.66671875,39952,23.13425158439602,1013.0693639573889,0,,,,N/A,False
2024-04-02T10:38:56,1.2753744458,-0.19322042494999997,9.865607579799999,0.019242255003237483,0.023671027980173096,0.08689558013366769,0.03654,0.29414000000000007,-0.19698000000000002,22.5,1,515,377,724,2031,31.8883984375,43581,23.19855846988886,1013.0543437534108,0,,,,N/A,False
2024-04-02T10:38:56,1.3686945271999997,-0.16869399329999998,9.905089152699999,0.018173240836390957,0.02107485071783153,0.08903360846736075,0.04102,0.29190000000000005,-0.21812000000000004,22.5,1,515,377,724,2031,31.8883984375,43581,23.19855846988886,1013.0543437534108,0,,,,N/A,False
2024-04-02T10:38:56,1.4063814831500001,-0.17706887240000002,9.848857821599998,0.01664607774089592,0.02138028333693054,0.08857545953871222,0.03962,0.29526,-0.20244000000000004,22.5,1,515,377,724,2031,32.2680859375,47583,23.247340780121096,1013.0599051960613,0,,,,N/A,False
2024-04-02T10:38:56,1.3196416639,-0.19142580799999998,9.815956510849999,0.015882496193148403,0.019089538693687978,0.08918632477691024,0.03654,0.29358000000000006,-0.21280000000000002,22.5,1,515,377,724,2031,32.2680859375,47583,23.247340780121096,1013.0599051960613,0,,,,N/A,False
2024-04-02T10:38:56,1.3328021881999996,-0.16929219894999997,9.863812962849998,0.018173240836390957,0.019089538693687978,0.0919352183488013,0.04522,0.30002000000000006,-0.21532,22.5,1,515,377,724,2031,32.686640625,51130,23.28826313672338,1013.0562935456254,0,,,,N/A,False
2024-04-02T10:38:56,1.30588293395,-0.17587246110000002,9.830911652099998,0.02229658119422756,0.02168571595602955,0.08628471489546968,0.03542,0.30198,-0.20552,22.5,1,523,384,734,2054,32.686640625,51130,23.28826313672338,1013.0562935456254,0,,,,N/A,False
2024-04-02T10:38:56,1.3926227532000002,-0.1280160091,9.89372324535,0.019853120241435502,0.023976460599272102,0.08872817584826173,0.03486000000000001,0.28770000000000007,-0.21798,22.5,1,523,384,734,2054,32.686640625,51130,23.28826313672338,1013.0562935456254,0,,,,N/A,False
2024-04-02T10:38:56,1.3884353136499998,-0.16211373114999997,9.815956510849999,0.024740042147019626,0.020005836550985007,0.08842274322916273,0.04046,0.30142,-0.19502,22.5,1,523,384,734,2054,33.09328125,55032,23.323053517460302,1013.06125578003,0,,,,N/A,False
2024-04-02T10:38:56,1.3740783780499999,-0.1387837108,9.705288465599999,0.019700403931885997,0.021227567027381034,0.08842274322916273,0.03514,0.2975,-0.20692000000000002,22.5,1,523,384,734,2054,33.09328125,55032,23.323053517460302,1013.06125578003,0,,,,N/A,False
2024-04-02T10:38:56,1.3070793452499998,-0.12023933564999999,9.671788949199998,0.01893682238413848,0.021991148575128558,0.08765916168141522,0.03122,0.28938,-0.19936,22.5,1,523,384,734,2054,33.46046875,58182,23.338854631072934,1013.0587645113025,0,,,,N/A,False
2024-04-02T10:38:56,1.30349011135,-0.0849452023,9.637691227149999,0.0238237442897226,0.020463985479633514,0.09056077156285579,0.02758,0.29414000000000007,-0.19306000000000004,22.5,1,523,384,734,2054,33.46046875,58182,23.338854631072934,1013.0587645113025,0,,,,N/A,False
2024-04-02T10:38:56,1.37766761195,-0.17407784415000002,9.857830906349998,0.025503623694767143,0.18325957145940464,0.08032877882303902,0.03458000000000001,0.29694000000000004,-0.20552,22.5,1,523,384,734,2054,33.7833203125,61355,23.329824456520583,1013.0572750335156,0,,,,N/A,False
2024-04-02T10:38:57,1.3525429746499997,-0.1734796385,9.873384253249998,0.04505131131710364,-0.03527746750593539,-0.050549098460885775,0.034300000000000004,0.29722000000000004,-0.2044,22.5,1,523,384,734,2054,33.7833203125,61355,23.329824456520583,1013.0572750335156,0,,,,N/A,False
2024-04-02T10:38:57,1.3507483577,-0.1447657673,9.965507923349998,0.043676864531158106,-0.005803219762881146,-0.051618112627732304,0.0371,0.29834000000000005,-0.20188000000000003,22.5,1,523,384,734,2054,34.0633984375,65195,23.301438276466897,1013.0703641715986,0,,,,N/A,False
2024-04-02T10:38:57,1.3310075712499998,-0.19680965884999999,9.8763752815,0.04123340357836604,0.005345070834232635,-0.04673119072214818,0.030660000000000003,0.29302000000000006,-0.21504,22.5,0,523,384,734,2053,34.0633984375,65195,23.301438276466897,1013.0703641715986,0,,,,N/A,False
2024-04-02T10:38:57,1.3339985995,-0.1052841944,9.896714273599999,0.04077525464971753,0.015729779883598898,-0.0435241482216086,0.030660000000000003,0.29218,-0.22288000000000002,22.5,0,523,384,734,2053,34.304609375,68198,23.270216035022628,1013.0756926465187,0,,,,N/A,False
2024-04-02T10:38:57,1.3387842447,-0.1950150419,9.8261260069,0.04092797095926703,-0.0007635815477475193,-0.04260785036431157,0.02758,0.30058,-0.20006000000000004,22.5,0,523,384,734,2053,34.304609375,68198,23.270216035022628,1013.0756926465187,0,,,,N/A,False
2024-04-02T10:38:57,1.2466605746,-0.16510475939999997,9.7998049583,0.04077525464971753,-0.0024434609527920616,-0.03802636107782646,0.027860000000000003,0.2933,-0.20216000000000003,22.5,0,523,384,734,2053,34.51125,71071,23.22562408146049,1013.0803857268927,0,,,,N/A,False
2024-04-02T10:38:57,1.3417752729499999,-0.1052841944,9.844670382049998,0.04489859500755413,-0.0025961772623415654,-0.038484510006474966,0.02758,0.2947000000000001,-0.20370000000000002,22.5,0,523,384,734,2053,34.51125,71071,23.22562408146049,1013.0803857268927,0,,,,N/A,False
2024-04-02T10:38:57,1.36091785375,-0.11545369045,9.812965482600001,0.04505131131710364,-0.0018325957145940463,-0.039706240482871004,0.026740000000000003,0.29918,-0.19908,22.5,0,523,384,734,2053,34.6878125,72599,23.184252881269714,1013.0882497582769,0,,,,N/A,False
2024-04-02T10:38:57,1.31186499045,-0.10588240005,9.6598248362,0.041080687268816536,-0.008399397025222712,-0.040622538340168025,0.030940000000000002,0.30114,-0.20300000000000004,23.5,0,523,384,734,2053,34.6878125,72599,23.184252881269714,1013.0882497582769,0,,,,N/A,False
2024-04-02T10:38:57,1.2382856955,-0.18424734019999997,9.6945207639,0.04153883619746505,-0.010384709049366262,-0.00015271630954950385,0.032900000000000006,0.29610000000000003,-0.19250000000000003,23.5,0,523,384,734,2053,34.6878125,72599,23.184252881269714,1013.0882497582769,0,,,,N/A,False
2024-04-02T10:38:57,1.3615160593999998,-0.1387837108,9.85902731765,0.04627304179349966,-0.0003054326190990077,-0.0357356164345839,0.02478,0.29162,-0.19810000000000003,22.5,1,523,384,734,2055,34.839375,74920,23.135631819938915,1013.0877575502038,0,,,,N/A,False
2024-04-02T10:38:57,1.3549357972499998,-0.08673981925,9.752546711949998,0.039858956792420505,0.002901609881440573,-0.038789942625573975,0.039900000000000005,0.28826000000000007,-0.21714000000000003,23.5,1,523,384,734,2055,34.839375,74920,23.135631819938915,1013.0877575502038,0,,,,N/A,False
2024-04-02T10:38:57,1.3627124707,-0.07238288365,9.844670382049998,0.04489859500755413,0.0015271630954950385,-0.039553524173321496,0.037660000000000006,0.29806,-0.20118,22.5,1,523,384,734,2055,34.9680859375,78111,23.07450114095312,1013.0878788931664,0,,,,N/A,False
2024-04-02T10:38:58,1.3411770672999999,-0.17407784415000002,10.000203851049998,0.0474947722698957,-0.006719517620178169,-0.04016438941151951,0.030380000000000004,0.28546000000000005,-0.19334000000000004,22.5,1,523,384,734,2055,34.9680859375,78111,23.07450114095312,1013.0878788931664,0,,,,N/A,False
2024-04-02T10:38:58,1.3429716842499997,-0.1579262916,9.896116067949999,0.04245513405476207,-0.011606439525762293,-0.03665191429188092,0.027300000000000005,0.29246000000000005,-0.20202,23.5,1,523,384,734,2055,35.0786328125,80037,23.01205229431447,1013.0926767368402,0,,,,N/A,False
2024-04-02T10:38:58,1.27118700625,-0.0873380249,9.638887638449999,0.04245513405476207,-0.009773843811168246,-0.039095375244672985,0.00406,0.30226000000000003,-0.20846,22.5,1,523,384,734,2055,35.0786328125,80037,23.01205229431447,1013.0926767368402,0,,,,N/A,False
2024-04-02T10:38:58,1.3064811395999998,-0.18963119104999998,9.821340361699999,0.040317105721069016,-0.010384709049366262,-0.04046982203061852,0.02842,0.29190000000000005,-0.19936,22.5,1,523,384,734,2055,35.0786328125,80037,23.01205229431447,1013.0926767368402,0,,,,N/A,False
2024-04-02T10:38:58,1.3399806559999998,-0.17228322719999997,9.97388280245,0.0435241482216086,-0.003970624048287101,-0.039553524173321496,0.029820000000000003,0.29694000000000004,-0.20314000000000002,23.5,1,523,384,734,2055,35.1227734375,79210,22.912303293664987,1013.115786673876,0,,,,N/A,False
2024-04-02T10:38:58,1.3411770672999999,-0.11186445655,9.843473970749999,0.04291328298341058,-0.0013744467859455349,-0.04077525464971753,0.023100000000000002,0.29526,-0.19334000000000004,23.5,0,522,384,734,2053,35.1227734375,79210,22.912303293664987,1013.115786673876,0,,,,N/A,False
2024-04-02T10:38:58,1.3663017045999997,-0.11605189609999998,9.785448022699999,0.04459316238845512,-0.0019853120241435504,-0.04092797095926703,0.028980000000000002,0.29666000000000003,-0.18914,23.5,0,522,384,734,2053,35.13546875,81981,22.859066807534152,1013.1075447604086,0,,,,N/A,False
2024-04-02T10:38:58,1.29750805485,-0.11545369045,9.752546711949998,0.04016438941151951,-0.007330382858376185,-0.036193765363232405,0.027860000000000003,0.29526,-0.19446000000000002,22.5,0,522,384,734,2053,35.18390625,84274,22.797593878610304,1013.1069096908675,0,,,,N/A,False
2024-04-02T10:38:58,1.3980066040499999,-0.1351944769,9.9014999188,0.0435241482216086,-0.038484510006474966,-0.04046982203061852,0.029820000000000003,0.29442,-0.20538000000000003,23.5,0,522,384,734,2053,35.18390625,84274,22.797593878610304,1013.1069096908675,0,,,,N/A,False
2024-04-02T10:38:58,1.3746765837,-0.1339980656,10.015757197949998,0.04474587869800463,-0.0033597588100890844,-0.039095375244672985,0.030660000000000003,0.3017,-0.20594000000000004,23.5,0,522,384,734,2053,35.24484375,85124,22.737033479330943,1013.1049287658982,0,,,,N/A,False
2024-04-02T10:38:59,1.2987044661499998,-0.14356935599999998,9.777073143599997,0.04092797095926703,-0.008399397025222712,-0.03787364476827696,0.037380000000000004,0.30002000000000006,-0.1932,22.5,0,522,384,734,2053,35.24484375,85124,22.737033479330943,1013.1049287658982,0,,,,N/A,False
2024-04-02T10:38:59,1.30468652265,-0.1292124204,9.77767134925,0.04092797095926703,-0.006414085001079162,-0.03741549583962844,0.03318,0.29498,-0.20594000000000004,23.5,0,522,384,734,2053,35.292109375,87146,22.680914774938245,1013.1041686045257,0,,,,N/A,False
2024-04-02T10:38:59,1.2777672683999999,-0.11605189609999998,9.772287498399999,0.0435241482216086,-0.007177666548826681,-0.04230241774521256,0.03178,0.29106,-0.20426000000000002,22.5,0,521,383,732,2050,35.292109375,87146,22.680914774938245,1013.1041686045257,0,,,,N/A,False
2024-04-02T10:38:59,1.2939188209499997,-0.20039889274999997,9.7639126193,0.04245513405476207,-0.007177666548826681,-0.03772092845872745,0.03878,0.29582,-0.20202,22.5,0,521,383,732,2050,35.292109375,87146,22.680914774938245,1013.1041686045257,0,,,,N/A,False
2024-04-02T10:38:59,1.22811619945,-0.10588240005,9.746564655449998,0.04535674393620265,-0.007330382858376185,-0.03756821214917795,0.030940000000000002,0.28994000000000003,-0.21014000000000002,22.5,0,521,383,732,2050,35.3440625,89172,22.61432939644285,1013.0911398613047,0,,,,N/A,False
2024-04-02T10:38:59,1.3304093655999998,-0.1112662509,9.832706269049998,0.04245513405476207,-0.0016798794050445422,-0.037110063220529434,0.02926,0.30506,-0.19362000000000001,23.5,0,521,383,732,2050,35.3440625,89172,22.61432939644285,1013.0911398613047,0,,,,N/A,False
2024-04-02T10:38:59,1.3232308977999998,-0.10588240005,9.84227755945,0.04612032548395016,-0.0015271630954950385,-0.038789942625573975,0.03318,0.2975,-0.19782000000000002,22.5,0,521,383,732,2050,35.3942578125,91098,22.54763711997946,1013.095128879143,0,,,,N/A,False
2024-04-02T10:38:59,1.4111671283499998,-0.12023933564999999,9.8763752815,0.049021935365390734,-0.00045814892864851157,-0.0433714319120591,0.033460000000000004,0.30282000000000003,-0.20846,23.5,0,521,383,732,2050,35.3942578125,91098,22.54763711997946,1013.095128879143,0,,,,N/A,False
2024-04-02T10:38:59,1.31186499045,-0.09092725880000001,9.773483909699998,0.04245513405476207,-0.004123340357836604,-0.03802636107782646,0.03402,0.29218,-0.19138000000000002,23.5,0,521,383,732,2050,35.3942578125,91098,22.54763711997946,1013.095128879143,0,,,,N/A,False
2024-04-02T10:38:59,1.32502551475,-0.1268195978,9.88774118885,0.04321871560250959,0.004276056667386108,-0.036193765363232405,0.02842,0.3003,-0.20048000000000002,23.5,0,521,383,732,2050,35.4407421875,92395,22.49150548353101,1013.0894456341038,0,,,,N/A,False
2024-04-02T10:38:59,1.3112667848,-0.17048861024999998,9.839884736850001,0.0024434609527920616,-0.00473420559603462,-0.039400807863771994,0.025900000000000003,0.30338000000000004,-0.20272000000000004,23.5,0,521,383,732,2050,35.4407421875,92395,22.49150548353101,1013.0894456341038,0,,,,N/A,False
2024-04-02T10:38:59,1.30588293395,-0.1328016543,9.742975421549998,0.04276056667386108,-0.0054977871437821395,-0.03924809155422249,0.0371,0.29498,-0.20216000000000003,23.5,1,522,383,732,2048,35.4837109375,93418,22.41893378350757,1013.1015420091421,0,,,,N/A,False
2024-04-02T10:39:00,1.3208380751999997,-0.1112662509,9.81715292215,0.04520402762665314,-0.0038179077387375964,-0.040622538340168025,0.026740000000000003,0.29834000000000005,-0.20566000000000004,22.5,1,522,383,732,2048,35.4837109375,93418,22.41893378350757,1013.1015420091421,0,,,,N/A,False
2024-04-02T10:39:00,1.30229370005,-0.11545369045,9.73460054245,0.04673119072214818,-0.00595593607243065,-0.04046982203061852,0.03458000000000001,0.30310000000000004,-0.20720000000000002,23.5,1,522,383,732,2048,35.4837109375,93418,22.41893378350757,1013.1015420091421,0,,,,N/A,False
2024-04-02T10:39:00,1.3710873497999998,-0.16151552549999998,10.00259667365,0.04153883619746505,-0.007330382858376185,-0.03787364476827696,0.030380000000000004,0.29022000000000003,-0.20986000000000002,23.5,1,522,383,732,2048,35.464765625,91992,22.288043913446472,1013.1249535953284,0,,,,N/A,False
2024-04-02T10:39:00,1.3531411802999997,-0.06281159324999999,9.886544777549998,0.04321871560250959,0.003207042500539581,-0.03924809155422249,0.03234,0.29190000000000005,-0.19754000000000002,23.5,1,522,383,732,2048,35.464765625,91992,22.288043913446472,1013.1249535953284,0,,,,N/A,False
2024-04-02T10:39:00,1.3345968051500001,-0.12981062605,9.88415195495,0.04550946024575215,0.002901609881440573,-0.039553524173321496,0.03626000000000001,0.29778000000000004,-0.19306000000000004,23.5,1,522,383,732,2048,35.464765625,91992,22.288043913446472,1013.1249535953284,0,,,,N/A,False
2024-04-02T10:39:00,1.3561322085499998,-0.10468598874999999,9.89491965665,0.039553524173321496,-0.006108652381980154,-0.03924809155422249,0.034300000000000004,0.2933,-0.20622000000000001,23.5,1,522,383,732,2048,35.4251171875,94253,22.225918443214468,1013.1164514286493,0,,,,N/A,False
2024-04-02T10:39:00,1.2592228932499998,-0.16211373114999997,9.83150985775,0.04535674393620265,-0.008704829644321718,-0.03695734691097993,0.039900000000000005,0.29638000000000003,-0.21238,23.5,1,522,383,732,2048,35.4251171875,94253,22.225918443214468,1013.1164514286493,0,,,,N/A,False
2024-04-02T10:39:00,1.2915259983499998,-0.16570296504999998,9.900303507499999,0.040317105721069016,-0.007635815477475193,-0.036499197982331415,0.039900000000000005,0.29918,-0.20510000000000003,23.5,1,522,383,732,2048,35.433515625,94485,22.151040075178894,1013.1192775597269,0,,,,N/A,False
2024-04-02T10:39:00,1.32981115995,-0.1363908882,9.725627457699998,0.04016438941151951,-0.0036651914291880926,-0.039095375244672985,0.03794,0.29414000000000007,-0.20678000000000002,23.5,1,522,383,732,2048,35.433515625,94485,22.151040075178894,1013.1192775597269,0,,,,N/A,False
2024-04-02T10:39:00,1.2604193045499996,-0.1328016543,9.7555377402,0.03772092845872745,-0.004581489286485115,-0.03787364476827696,0.035980000000000005,0.30002000000000006,-0.20874,23.5,0,522,384,734,2053,35.464375,95285,22.07777374707768,1013.1116555173819,0,,,,N/A,False
2024-04-02T10:39:00,1.3004990831,-0.08614161359999999,9.76570723625,0.04428772976935611,0.0024434609527920616,-0.038942658935123484,0.03318,0.28770000000000007,-0.20356000000000002,23.5,0,522,384,734,2053,35.464375,95285,22.07777374707768,1013.1116555173819,0,,,,N/A,False
2024-04-02T10:39:00,1.29990087745,-0.07956135144999998,9.676574594399998,0.04214970143566306,-0.0027488935718910697,-0.039400807863771994,0.030940000000000002,0.29554,-0.20300000000000004,22.5,0,522,384,734,2053,35.5063671875,97656,22.021468815522837,1013.1094960604117,0,,,,N/A,False
2024-04-02T10:39:00,1.34536450685,-0.1447657673,9.9493563708,0.04489859500755413,-0.005803219762881146,-0.04260785036431157,0.03542,0.30226000000000003,-0.21070000000000003,22.5,0,522,384,734,2053,35.5063671875,97656,22.021468815522837,1013.1094960604117,0,,,,N/A,False
2024-04-02T10:39:01,1.3292129543,-0.11605189609999998,9.809974454349998,0.04444044607890562,0.00045814892864851157,-0.039553524173321496,0.030940000000000002,0.29918,-0.21084000000000003,23.5,0,522,384,734,2053,35.5063671875,97656,22.021468815522837,1013.1094960604117,0,,,,N/A,False
2024-04-02T10:39:01,1.3531411802999997,-0.18424734019999997,9.878169898449999,0.04657847441259867,-0.006719517620178169,-0.039400807863771994,0.026180000000000002,0.29106,-0.21056000000000002,23.5,0,522,384,734,2053,35.551484375,98110,21.949247259843414,1013.1087989884936,0,,,,N/A,False
2024-04-02T10:39:01,1.32382910345,-0.09990034354999999,9.89013401145,0.047952921198544204,-0.004276056667386108,-0.04001167310197001,0.03654,0.28854,-0.20748000000000003,23.5,1,521,384,733,2049,35.4628125,94538,21.824737340429017,1013.1362433504728,0,,,,N/A,False
2024-04-02T10:39:01,1.27836547405,-0.14775679555,9.839286531199999,0.04214970143566306,-0.009621127501618741,-0.0357356164345839,0.03682,0.29946000000000006,-0.20566000000000004,23.5,1,521,384,733,2049,35.4628125,94538,21.824737340429017,1013.1362433504728,0,,,,N/A,False
2024-04-02T10:39:01,1.3435698898999997,-0.12562318649999998,9.938588669099998,0.04505131131710364,-0.003207042500539581,-0.03772092845872745,0.0371,0.29246000000000005,-0.21840000000000004,23.5,1,521,384,733,2049,35.3891796875,95663,21.760520603655596,1013.1266478688508,0,,,,N/A,False
2024-04-02T10:39:01,1.2861421475,-0.13818550515,9.810572659999998,0.041844268816564056,-0.008552113334772215,-0.07773260156069746,0.03234,0.30086,-0.1918,23.5,1,521,384,733,2049,35.3891796875,95663,21.760520603655596,1013.1266478688508,0,,,,N/A,False
2024-04-02T10:39:01,1.25204442545,-0.12083754129999999,9.74776106675,0.039706240482871004,-0.0068722339297276735,-0.04001167310197001,0.030940000000000002,0.29722000000000004,-0.20454000000000003,23.5,1,521,384,733,2049,35.38625,97206,21.706601557338466,1013.1146414691767,0,,,,N/A,False
2024-04-02T10:39:01,1.3621142650499998,-0.1004985492,9.9373922578,0.04627304179349966,-0.0044287729769356115,-0.04092797095926703,0.03486000000000001,0.29722000000000004,-0.20650000000000002,23.5,1,521,384,733,2049,35.38625,97206,21.706601557338466,1013.1146414691767,0,,,,N/A,False
2024-04-02T10:39:01,1.3268201317,-0.17706887240000002,10.02054284315,0.04428772976935611,-0.0027488935718910697,-0.03741549583962844,0.04326000000000001,0.29778000000000004,-0.19376000000000002,23.5,1,521,384,733,2049,35.4266796875,99032,21.65032052271804,1013.1135700821816,0,,,,N/A,False
2024-04-02T10:39:01,1.3028919057,-0.15553346899999998,9.936794052149999,0.039706240482871004,-0.00473420559603462,-0.038637226316024474,0.033460000000000004,0.29442,-0.20776000000000003,23.5,1,521,384,733,2049,35.4266796875,99032,21.65032052271804,1013.1135700821816,0,,,,N/A,False
2024-04-02T10:39:02,1.3645070876499998,-0.19800607015,9.80399239785,0.04688390703169768,-0.006108652381980154,-0.04046982203061852,0.03178,0.30366000000000004,-0.19502,23.5,1,522,384,733,2051,35.483125,100208,21.61125625135375,1013.1204855845807,0,,,,N/A,False
2024-04-02T10:39:02,1.2897313813999998,-0.07956135144999998,9.71545796165,0.051007247389534285,0.0003054326190990077,-0.04153883619746505,0.03626000000000001,0.28686,-0.20860000000000004,23.5,1,522,384,733,2051,35.483125,100208,21.61125625135375,1013.1204855845807,0,,,,N/A,False
2024-04-02T10:39:02,1.2921242039999998,-0.10648060570000001,9.674181771799999,0.04520402762665314,-0.008552113334772215,-0.03726277953007894,0.02562,0.29834000000000005,-0.21322000000000002,23.5,1,522,384,733,2051,35.54171875,100806,21.56160826527151,1013.1164139892753,0,,,,N/A,False
2024-04-02T10:39:02,1.2442677519999998,-0.1004985492,9.744770038499999,0.04123340357836604,-0.005345070834232635,-0.039095375244672985,0.0315,0.2888200000000001,-0.21462000000000003,23.5,1,522,384,733,2051,35.54171875,100806,21.56160826527151,1013.1164139892753,0,,,,N/A,False
2024-04-02T10:39:02,1.2789636797,-0.15732808594999997,9.76929647015,0.04413501345980661,-0.0038179077387375964,-0.03741549583962844,0.0315,0.28938,-0.20160000000000003,23.5,1,522,384,733,2051,35.5971875,101534,21.527849134171735,1013.1144742351717,0,,,,N/A,False
2024-04-02T10:39:02,1.2699905949499997,-0.14237294469999998,9.72383284075,0.04276056667386108,-0.012980886311707827,-0.038484510006474966,0.028700000000000003,0.29666000000000003,-0.20454000000000003,23.5,1,522,384,733,2051,35.5971875,101534,21.527849134171735,1013.1144742351717,0,,,,N/A,False
2024-04-02T10:39:02,1.36809632155,-0.12382856954999999,9.972686391149999,0.04596760917440065,-0.001069014166846527,-0.03802636107782646,0.03122,0.29162,-0.20132000000000003,23.5,1,522,384,733,2051,35.5971875,101534,21.527849134171735,1013.1144742351717,0,,,,N/A,False
2024-04-02T10:39:02,1.3339985995,-0.11545369045,9.75135030065,0.03802636107782646,0.03588833274413341,-0.038789942625573975,0.026180000000000002,0.28490000000000004,-0.19544000000000003,23.5,1,522,384,733,2051,35.6469921875,102149,21.488338059380823,1013.1268191401256,0,,,,N/A,False
2024-04-02T10:39:02,1.3686945271999997,-0.09750752095,9.92482993915,0.0514653963181828,0.0016798794050445422,-0.041844268816564056,0.021700000000000004,0.2933,-0.21028000000000002,23.5,1,522,384,733,2051,35.6469921875,102149,21.488338059380823,1013.1268191401256,0,,,,N/A,False
2024-04-02T10:39:02,1.39920301535,-0.1351944769,9.9565348386,0.04596760917440065,-0.0022907446432425577,-0.04077525464971753,0.025060000000000002,0.3017,-0.20916,23.5,1,522,384,733,2051,35.68859375,103085,21.448269653049977,1013.1239889788193,0,,,,N/A,False
2024-04-02T10:39:02,1.3339985995,-0.1292124204,9.8500542329,0.0433714319120591,-0.010079276430267254,-0.04077525464971753,0.03122,0.29302000000000006,-0.20496,23.5,1,522,384,733,2051,35.68859375,103085,21.448269653049977,1013.1239889788193,0,,,,N/A,False
2024-04-02T10:39:02,1.3591232368,-0.16211373114999997,9.994221794549999,0.039400807863771994,-0.007788531787024696,-0.03695734691097993,0.034300000000000004,0.29134000000000004,-0.20776000000000003,23.5,1,522,384,733,2051,35.6684765625,101169,21.382548857569127,1013.1382792418756,0,,,,N/A,False
2024-04-02T10:39:03,1.32382910345,-0.1280160091,9.735796953749999,0.040622538340168025,-0.004886921905584123,-0.04382958084070761,0.02842,0.29246000000000005,-0.20706000000000002,23.5,1,522,384,733,2051,35.6684765625,101169,21.382548857569127,1013.1382792418756,0,,,,N/A,False
2024-04-02T10:39:03,1.2556336593499997,-0.062213387599999996,9.79561751875,0.04001167310197001,0.003054326190990077,-0.03695734691097993,0.030660000000000003,0.29946000000000006,-0.19992000000000001,23.5,1,522,384,733,2051,35.62296875,101902,21.341931453955528,1013.129316106169,0,,,,N/A,False
2024-04-02T10:39:03,1.3088739621999996,-0.10229316614999999,9.8548398781,0.04520402762665314,-0.0027488935718910697,-0.038484510006474966,0.0315,0.29358000000000006,-0.20748000000000003,23.5,1,522,384,733,2051,35.62296875,101902,21.341931453955528,1013.129316106169,0,,,,N/A,False
2024-04-02T10:39:03,1.3417752729499999,-0.0669990328,9.776474937949999,0.04321871560250959,0.0035124751196385882,-0.04428772976935611,0.025060000000000002,0.29778000000000004,-0.19796,23.5,1,522,384,733,2051,35.6235546875,103528,21.299109320994035,1013.1230330871851,0,,,,N/A,False
2024-04-02T10:39:03,1.3603196481,-0.17228322719999997,9.936195846499999,0.04474587869800463,-0.004581489286485115,-0.038942658935123484,0.02758,0.3017,-0.2023,23.5,1,523,384,732,2050,35.64640625,104554,21.263166370296776,1013.1204370581895,0,,,,N/A,False
2024-04-02T10:39:03,1.2945170265999997,-0.11605189609999998,9.7794659662,0.0435241482216086,-0.003207042500539581,-0.038179077387375956,0.032900000000000006,0.29666000000000003,-0.18998,23.5,1,523,384,732,2050,35.64640625,104554,21.263166370296776,1013.1204370581895,0,,,,N/A,False
2024-04-02T10:39:03,1.31545422435,-0.10408778309999998,9.717850784249999,0.041844268816564056,-0.0056505034533316425,-0.03802636107782646,0.032060000000000005,0.29386,-0.20384000000000002,23.5,1,523,384,732,2050,35.676875,103846,21.222391090049324,1013.1193842574024,0,,,,N/A,False
2024-04-02T10:39:03,1.3615160593999998,-0.14057832774999998,9.966106128999998,0.04474587869800463,-0.0013744467859455349,-0.039400807863771994,0.04046,0.30394000000000004,-0.21028000000000002,23.5,1,523,384,732,2050,35.676875,103846,21.222391090049324,1013.1193842574024,0,,,,N/A,False
2024-04-02T10:39:03,1.34536450685,-0.16271193679999998,9.954142015999999,0.04260785036431157,-0.006108652381980154,-0.03924809155422249,0.028980000000000002,0.30450000000000005,-0.21994000000000002,23.5,1,523,384,732,2050,35.7008984375,105140,21.170481551953905,1013.1204997839051,0,,,,N/A,False
2024-04-02T10:39:04,1.3914263418999997,-0.19621145319999997,9.887142983199999,0.043982297150257116,-0.003054326190990077,-0.039400807863771994,0.02478,0.29414000000000007,-0.19642,23.5,1,523,384,732,2050,35.7008984375,105140,21.170481551953905,1013.1204997839051,0,,,,N/A,False
2024-04-02T10:39:04,1.3926227532000002,-0.16151552549999998,9.905687358349997,0.04413501345980661,0.0013744467859455349,-0.03924809155422249,0.025340000000000005,0.28742,-0.20174,23.5,1,523,384,732,2050,35.7008984375,105140,21.170481551953905,1013.1204997839051,0,,,,N/A,False
2024-04-02T10:39:04,1.3573286198499999,-0.1304088317,10.082756230749998,0.043676864531158106,-0.0027488935718910697,-0.038179077387375956,0.03262,0.29974,-0.21714000000000003,23.5,1,520,384,731,2046,35.73234375,105999,21.145844704286343,1013.1156004962696,0,,,,N/A,False
2024-04-02T10:39:04,1.2765708571,-0.14416756165,9.685547679149998,0.040622538340168025,-0.008857545953871223,-0.03726277953007894,0.03514,0.30142,-0.20426000000000002,23.5,1,520,384,731,2046,35.76515625,106601,21.094547318550614,1013.1183509883687,0,,,,N/A,False
2024-04-02T10:39:04,1.4135599509499999,-0.08315058534999999,9.9529456047,0.048411070127192715,0.0009162978572970231,-0.039400807863771994,0.030940000000000002,0.29834000000000005,-0.19950000000000004,23.5,1,520,384,731,2046,35.76515625,106601,21.094547318550614,1013.1183509883687,0,,,,N/A,False
2024-04-02T10:39:04,1.3345968051500001,-0.12323036389999999,9.77288570405,0.04413501345980661,-0.0038179077387375964,-0.041080687268816536,0.03486000000000001,0.29778000000000004,-0.20468,23.5,1,520,384,731,2046,35.7973828125,106939,21.048571787419665,1013.1183332069204,0,,,,N/A,False
2024-04-02T10:39:04,1.32382910345,-0.1531406464,9.981659475899999,0.0435241482216086,-0.0012217304763960308,-0.03695734691097993,0.025340000000000005,0.30618,-0.20958000000000002,23.5,1,520,384,731,2046,35.7973828125,106939,21.048571787419665,1013.1183332069204,0,,,,N/A,False
2024-04-02T10:39:04,1.3740783780499999,-0.15074782379999999,10.001400262349998,0.0476474885794452,-0.0009162978572970231,-0.04046982203061852,0.035980000000000005,0.30086,-0.20524,23.5,1,520,384,731,2046,35.8180859375,107484,21.02322214332006,1013.115840384802,0,,,,N/A,False
2024-04-02T10:39:04,1.3172488412999999,-0.09990034354999999,9.7375915707,0.041844268816564056,-0.003970624048287101,-0.038637226316024474,0.02926,0.29386,-0.19978000000000004,23.5,1,520,384,731,2046,35.8180859375,107484,21.02322214332006,1013.115840384802,0,,,,N/A,False
2024-04-02T10:39:04,1.2843475305499996,-0.13698909385,9.77288570405,0.041844268816564056,-0.0012217304763960308,-0.03634648167278191,0.029540000000000004,0.30114,-0.19656000000000004,23.5,1,521,384,732,2048,35.842109375,108104,20.976710683394916,1013.115130628473,0,,,,N/A,False
2024-04-02T10:39:05,1.3854442854,-0.1734796385,10.004391290600001,0.04459316238845512,0.00015271630954950385,-0.041691552507014555,0.025060000000000002,0.28574,-0.19516000000000003,22.5,1,521,384,732,2048,35.815546875,105009,20.926823203256294,1013.1442835574859,0,,,,N/A,False
2024-04-02T10:39:05,1.3363914221,-0.13758729949999998,9.841679353799998,0.037110063220529434,-0.006566801310628666,-0.038637226316024474,0.04018000000000001,0.30702,-0.20244000000000004,23.5,1,521,384,732,2048,35.815546875,105009,20.926823203256294,1013.1442835574859,0,,,,N/A,False
2024-04-02T10:39:05,1.38484607975,-0.1483550012,9.9242317335,0.04978551691313826,0.0009162978572970231,-0.039706240482871004,0.034300000000000004,0.29778000000000004,-0.20804000000000003,23.5,1,521,384,732,2048,35.815546875,105009,20.926823203256294,1013.1442835574859,0,,,,N/A,False
2024-04-02T10:39:05,1.3088739621999996,-0.09391828705,9.738787982,0.04245513405476207,-0.00473420559603462,-0.038789942625573975,0.03262,0.2905,-0.2079,23.5,1,521,384,732,2048,35.767890625,105799,20.89691929711845,1013.1264219037726,0,,,,N/A,False
2024-04-02T10:39:05,1.3004990831,-0.12981062605,9.8333044747,0.041844268816564056,-0.013897184169004852,-0.03787364476827696,0.03374,0.30058,-0.21658000000000002,23.5,1,521,384,732,2048,35.767890625,105799,20.89691929711845,1013.1264219037726,0,,,,N/A,False
2024-04-02T10:39:05,1.3310075712499998,-0.1878365741,10.040283629599998,0.04566217655530165,-0.005803219762881146,-0.039095375244672985,0.03962,0.30142,-0.20986000000000002,23.5,1,521,384,732,2045,35.6692578125,103655,20.82091732015215,1013.130504283417,0,,,,N/A,False
2024-04-02T10:39:05,1.2915259983499998,-0.12143574694999999,9.74177901025,0.04382958084070761,-0.006108652381980154,-0.04123340357836604,0.028980000000000002,0.29778000000000004,-0.19152000000000002,23.5,1,521,383,731,2045,35.6692578125,103655,20.82091732015215,1013.130504283417,0,,,,N/A,False
2024-04-02T10:39:05,1.3052847283,-0.14356935599999998,9.83390268035,0.04321871560250959,-0.0056505034533316425,-0.03756821214917795,0.03374,0.30086,-0.19936,23.5,1,521,383,731,2045,35.588984375,104814,20.799564232227596,1013.119208519464,0,,,,N/A,False
2024-04-02T10:39:05,1.3668999102499997,-0.14955141249999998,9.88774118885,0.04459316238845512,0.003970624048287101,-0.03497203488683638,0.038220000000000004,0.29022000000000003,-0.21280000000000002,22.5,1,521,383,731,2045,35.588984375,104814,20.799564232227596,1013.119208519464,0,,,,N/A,False
2024-04-02T10:39:05,1.3525429746499997,-0.1387837108,9.9517491934,0.04306599929296009,0.00045814892864851157,-0.039706240482871004,0.040740000000000005,0.29834000000000005,-0.20608,23.5,1,521,383,731,2045,35.5434765625,103148,20.7591961425842,1013.1301308838318,0,,,,N/A,False
2024-04-02T10:39:06,1.30349011135,-0.18245272324999998,9.781260583149999,0.04550946024575215,-0.008704829644321718,-0.03726277953007894,0.030380000000000004,0.30394000000000004,-0.20804000000000003,23.5,1,521,383,731,2045,35.5434765625,103148,20.7591961425842,1013.1301308838318,0,,,,N/A,False
2024-04-02T10:39:06,1.2861421475,-0.1471585899,9.83150985775,0.04306599929296009,-0.012980886311707827,-0.03726277953007894,0.03458000000000001,0.29526,-0.2009,23.5,1,521,383,731,2045,35.50421875,105733,20.729927431689195,1013.107806210377,0,,,,N/A,False
2024-04-02T10:39:06,1.2370892841999999,-0.1052841944,9.739386187649998,0.04230241774521256,-0.003970624048287101,-0.03741549583962844,0.03234,0.29694000000000004,-0.20384000000000002,23.5,1,519,382,730,2042,35.50421875,105733,20.729927431689195,1013.107806210377,0,,,,N/A,False
2024-04-02T10:39:06,1.2927224096499998,-0.15373885204999999,9.7651090306,0.041691552507014555,-0.007788531787024696,-0.03237585762449482,0.025900000000000003,0.2933,-0.19754000000000002,23.5,1,519,382,730,2042,35.50421875,105733,20.729927431689195,1013.107806210377,0,,,,N/A,False
2024-04-02T10:39:06,1.24008031245,-0.14356935599999998,9.7340023368,0.041844268816564056,-0.00916297857297023,-0.041080687268816536,0.030660000000000003,0.29638000000000003,-0.20510000000000003,23.5,1,519,382,730,2042,35.5253125,107075,20.715329051467606,1013.1077870479206,0,,,,N/A,False
2024-04-02T10:39:06,1.3573286198499999,-0.08673981925,9.905687358349997,0.04688390703169768,-0.005039638215133627,-0.040622538340168025,0.030940000000000002,0.29358000000000006,-0.19628000000000004,23.5,1,519,382,730,2042,35.57296875,107759,20.707821841097655,1013.1076022506294,0,,,,N/A,False
2024-04-02T10:39:06,1.2687941836499999,-0.0083748791,9.819545744749998,0.039553524173321496,-0.007177666548826681,-0.03604104905368291,0.034300000000000004,0.29442,-0.20958000000000002,23.5,1,519,382,730,2042,35.57296875,107759,20.707821841097655,1013.1076022506294,0,,,,N/A,False
2024-04-02T10:39:06,1.3196416639,-0.18364913454999998,9.9218389109,0.0435241482216086,-0.004123340357836604,-0.03604104905368291,0.03374,0.30254000000000003,-0.20328000000000002,23.5,1,519,382,730,2042,35.6284375,108451,20.684834903826857,1013.1128909007175,0,,,,N/A,False
2024-04-02T10:39:06,1.26400853845,-0.11365907349999999,9.77886776055,0.04321871560250959,-0.002901609881440573,-0.03787364476827696,0.027860000000000003,0.29246000000000005,-0.21798,23.5,1,519,382,730,2042,35.6284375,108451,20.684834903826857,1013.1128909007175,0,,,,N/A,False
2024-04-02T10:39:06,1.3052847283,-0.12502498085,9.7615197967,0.04230241774521256,-0.005039638215133627,-0.038484510006474966,0.032060000000000005,0.28938,-0.21280000000000002,23.5,1,519,382,730,2042,35.6723828125,109720,20.650422193983175,1013.1048324873238,0,,,,N/A,False
2024-04-02T10:39:06,1.3573286198499999,-0.14117653339999997,9.954142015999999,0.04230241774521256,-0.005039638215133627,-0.03436116964863837,0.02842,0.28770000000000007,-0.22932000000000002,23.5,1,520,383,730,2044,35.6723828125,109720,20.650422193983175,1013.1048324873238,0,,,,N/A,False
2024-04-02T10:39:07,1.34895374075,-0.12442677519999999,9.95115098775,0.04948008429403925,-0.0019853120241435504,-0.039095375244672985,0.030380000000000004,0.29022000000000003,-0.21406000000000003,23.5,1,520,383,730,2044,35.7190625,109720,20.642846126316062,1013.1084540836555,0,,,,N/A,False
2024-04-02T10:39:07,1.3411770672999999,-0.08195417405,9.86620578545,0.039858956792420505,0.0019853120241435504,-0.03787364476827696,0.039060000000000004,0.29890000000000005,-0.20944000000000002,23.5,1,520,383,730,2044,35.7190625,109720,20.642846126316062,1013.1084540836555,0,,,,N/A,False
2024-04-02T10:39:07,1.28793676445,-0.10229316614999999,9.7639126193,0.04474587869800463,-0.00473420559603462,-0.040622538340168025,0.03514,0.2947000000000001,-0.21532,23.5,1,520,383,730,2044,35.7190625,109720,20.642846126316062,1013.1084540836555,0,,,,N/A,False
2024-04-02T10:39:07,1.24725878025,-0.14177473905,9.80518880915,0.04153883619746505,-0.008552113334772215,-0.039706240482871004,0.03374,0.29946000000000006,-0.19390000000000002,23.5,1,520,383,730,2044,35.764765625,110511,20.6085500357432,1013.117715050269,0,,,,N/A,False
2024-04-02T10:39:07,1.32143628085,-0.17228322719999997,9.911669414849998,0.04306599929296009,-0.014202616788103858,-0.03787364476827696,0.037660000000000006,0.29946000000000006,-0.21434000000000003,23.5,1,520,383,730,2044,35.764765625,110511,20.6085500357432,1013.117715050269,0,,,,N/A,False
2024-04-02T10:39:07,1.3567304141999996,-0.20757736054999998,10.000203851049998,0.04520402762665314,-0.0044287729769356115,-0.039400807863771994,0.03682,0.28546000000000005,-0.21182,23.5,1,520,383,730,2044,35.8063671875,111460,20.60063597370963,1013.1202907382195,0,,,,N/A,False
2024-04-02T10:39:07,1.3088739621999996,-0.09870393224999999,9.8261260069,0.04535674393620265,-0.004886921905584123,-0.03756821214917795,0.01666,0.28798,-0.21098000000000003,23.5,1,520,383,730,2043,35.846796875,111020,20.571322554430893,1013.1227611067953,0,,,,N/A,False
2024-04-02T10:39:07,1.36091785375,-0.1447657673,10.04925671435,0.04505131131710364,-0.0024434609527920616,-0.03527746750593539,0.022820000000000003,0.29666000000000003,-0.21364000000000002,23.5,1,520,383,730,2043,35.846796875,111020,20.571322554430893,1013.1227611067953,0,,,,N/A,False
2024-04-02T10:39:07,1.3136596073999998,-0.13220344865,9.816554716499999,0.04260785036431157,-0.0015271630954950385,-0.04459316238845512,0.023100000000000002,0.29722000000000004,-0.20510000000000003,23.5,1,520,383,730,2043,35.846796875,111020,20.571322554430893,1013.1227611067953,0,,,,N/A,False
2024-04-02T10:39:07,1.3064811395999998,-0.025722842949999998,9.89013401145,0.04092797095926703,-0.0068722339297276735,-0.03420845333908886,0.03458000000000001,0.29554,-0.21028000000000002,23.5,1,520,383,730,2043,35.879609375,111020,20.54150871776466,1013.1327351737053,0,,,,N/A,False
2024-04-02T10:39:07,1.3639088819999998,-0.13459627124999998,9.92243711655,0.04092797095926703,-0.0019853120241435504,-0.038942658935123484,0.033460000000000004,0.30450000000000005,-0.19642,23.5,1,520,383,730,2043,35.879609375,111020,20.54150871776466,1013.1327351737053,0,,,,N/A,False
2024-04-02T10:39:08,1.3746765837,-0.13459627124999998,10.000203851049998,0.04886921905584123,-0.0038179077387375964,-0.04092797095926703,0.03458000000000001,0.29638000000000003,-0.21266000000000002,23.5,1,520,383,730,2043,35.8962109375,111386,20.515958682842918,1013.1289885262671,0,,,,N/A,False
2024-04-02T10:39:08,1.2963116435499997,-0.0897308475,9.90090171315,0.040622538340168025,-0.006108652381980154,-0.036804630601430424,0.03234,0.2905,-0.20244000000000004,23.5,1,520,383,730,2043,35.857734375,108521,20.470812147344333,1013.1459953555806,0,,,,N/A,False
2024-04-02T10:39:08,1.3830514628000001,-0.1339980656,9.980463064599999,0.051770828937281806,0.0022907446432425577,-0.04001167310197001,0.02758,0.29554,-0.19558,23.5,1,520,381,729,2040,35.857734375,108521,20.470812147344333,1013.1459953555806,0,,,,N/A,False
2024-04-02T10:39:08,1.2915259983499998,-0.0634097989,9.7806623775,0.04214970143566306,-0.0015271630954950385,-0.03588833274413341,0.029820000000000003,0.29694000000000004,-0.20622000000000001,23.5,1,520,381,729,2040,35.857734375,108521,20.470812147344333,1013.1459953555806,0,,,,N/A,False
2024-04-02T10:39:08,1.36331067635,-0.11844471869999999,9.851250644199999,0.04535674393620265,-0.003970624048287101,-0.03665191429188092,0.018340000000000002,0.28826000000000007,-0.20202,23.5,1,520,381,729,2040,35.8020703125,109223,20.445858465827236,1013.1368227555681,0,,,,N/A,False
2024-04-02T10:39:08,1.2921242039999998,-0.15074782379999999,9.819545744749998,0.04444044607890562,-0.012522737383059314,-0.04016438941151951,0.027300000000000005,0.28938,-0.20692000000000002,23.5,1,520,381,729,2040,35.8020703125,109223,20.445858465827236,1013.1368227555681,0,,,,N/A,False
2024-04-02T10:39:08,1.32263269215,-0.19621145319999997,9.930213789999998,0.04657847441259867,-0.0068722339297276735,-0.036499197982331415,0.029540000000000004,0.30674,-0.20258,23.5,1,520,381,729,2040,35.7899609375,110801,20.402479061410435,1013.135206637892,0,,,,N/A,False
2024-04-02T10:39:08,1.3052847283,-0.11485548479999999,9.847661410299999,0.041386119887915546,-0.0025961772623415654,-0.038942658935123484,0.02562,0.29834000000000005,-0.21084000000000003,23.5,1,520,381,729,2040,35.7899609375,110801,20.402479061410435,1013.135206637892,0,,,,N/A,False
2024-04-02T10:39:08,1.3124631961,-0.1483550012,9.7782695549,0.04520402762665314,-0.009315694882519735,-0.039553524173321496,0.037380000000000004,0.29610000000000003,-0.21700000000000003,23.5,1,520,381,729,2040,35.7899609375,110801,20.402479061410435,1013.135206637892,0,,,,N/A,False
2024-04-02T10:39:08,1.2610175101999996,-0.16331014244999997,9.8608219346,0.04306599929296009,-0.0070249502392771765,-0.03756821214917795,0.030660000000000003,0.29302000000000006,-0.20734000000000002,23.5,1,520,381,729,2040,35.8067578125,111093,20.387612044093444,1013.1317853238538,0,,,,N/A,False
2024-04-02T10:39:08,1.3106685791500001,-0.11246266220000001,9.790233667899999,0.043982297150257116,-0.0027488935718910697,-0.039706240482871004,0.028980000000000002,0.29582,-0.21700000000000003,23.5,1,520,381,729,2040,35.8067578125,111093,20.387612044093444,1013.1317853238538,0,,,,N/A,False
2024-04-02T10:39:08,1.3076775508999998,-0.13100703735,9.81117086565,0.041844268816564056,-0.0024434609527920616,-0.039858956792420505,0.03794,0.2891,-0.21070000000000003,23.5,1,520,381,729,2040,35.838203125,111460,20.373703533116984,1013.1323001605583,0,,,,N/A,False
2024-04-02T10:39:09,1.3800604345499998,-0.1292124204,9.976873830699999,0.04276056667386108,-0.002138028333693054,-0.04291328298341058,0.03318,0.29358000000000006,-0.20146,23.5,0,521,382,728,2040,35.838203125,111460,20.373703533116984,1013.1323001605583,0,,,,N/A,False
2024-04-02T10:39:09,1.3064811395999998,-0.15613167464999997,9.7998049583,0.04505131131710364,-0.004123340357836604,-0.04016438941151951,0.032060000000000005,0.29890000000000005,-0.20538000000000003,23.5,0,521,382,728,2040,35.838203125,111460,20.373703533116984,1013.1323001605583,0,,,,N/A,False
2024-04-02T10:39:09,1.3208380751999997,-0.09032905315,9.76570723625,0.05009094953223726,-0.0006108652381980154,-0.04153883619746505,0.03234,0.2933,-0.20734000000000002,23.5,0,521,382,728,2040,35.874140625,112201,20.349445626762687,1013.1365029975443,0,,,,N/A,False
2024-04-02T10:39:09,1.30349011135,-0.08614161359999999,9.677771005699999,0.040622538340168025,-0.003970624048287101,-0.038637226316024474,0.025060000000000002,0.29862,-0.21084000000000003,23.5,0,521,382,728,2040,35.90890625,112575,20.341074712386952,1013.1387928877997,0,,,,N/A,False
2024-04-02T10:39:09,1.37527478935,-0.15553346899999998,9.9936235889,0.04596760917440065,-0.0033597588100890844,-0.038637226316024474,0.025060000000000002,0.29610000000000003,-0.21420000000000003,23.5,0,521,382,728,2040,35.90890625,112575,20.341074712386952,1013.1387928877997,0,,,,N/A,False
2024-04-02T10:39:09,1.3920245475499997,-0.11964112999999998,9.955338427300001,0.04153883619746505,-0.0013744467859455349,-0.03634648167278191,0.027860000000000003,0.29414000000000007,-0.19964,23.5,0,521,382,728,2040,35.9376171875,111977,20.326986645368386,1013.1457036362568,0,,,,N/A,False
2024-04-02T10:39:09,1.3812568458499999,-0.17228322719999997,9.942177903,0.040317105721069016,-0.008552113334772215,-0.03741549583962844,0.0315,0.29302000000000006,-0.20902,23.5,0,521,382,728,2040,35.9376171875,111977,20.326986645368386,1013.1457036362568,0,,,,N/A,False
2024-04-02T10:39:09,1.2969098491999997,-0.17647066675,9.9218389109,0.04596760917440065,-0.007788531787024696,-0.04306599929296009,0.037660000000000006,0.29442,-0.20594000000000004,23.5,0,521,382,728,2040,35.949140625,113103,20.285176649772062,1013.1463584231996,0,,,,N/A,False
2024-04-02T10:39:09,1.3345968051500001,-0.13100703735,9.861420140249999,0.04382958084070761,0.00015271630954950385,-0.041844268816564056,0.025340000000000005,0.29274,-0.20104000000000002,23.5,1,520,383,728,2040,35.949140625,113103,20.285176649772062,1013.1463584231996,0,,,,N/A,False
2024-04-02T10:39:09,1.3184452525999997,-0.11545369045,9.851848849849999,0.04474587869800463,-0.0036651914291880926,-0.041844268816564056,0.03514,0.3003,-0.20552,23.5,1,520,383,728,2040,35.9675,112952,20.281053949575348,1013.1436572651826,0,,,,N/A,False
2024-04-02T10:39:10,1.3740783780499999,-0.12861421474999998,9.99661461715,0.0433714319120591,-0.0035124751196385882,-0.0435241482216086,0.03262,0.29442,-0.20496,23.5,1,520,383,728,2040,35.9675,112952,20.281053949575348,1013.1436572651826,0,,,,N/A,False
2024-04-02T10:39:10,1.3908281362499997,-0.1004985492,9.985846915449999,0.04642575810304917,-0.002138028333693054,-0.041691552507014555,0.035980000000000005,0.29610000000000003,-0.21014000000000002,23.5,1,520,383,728,2040,35.9675,112952,20.281053949575348,1013.1436572651826,0,,,,N/A,False
2024-04-02T10:39:10,1.2346964615999998,-0.12023933564999999,9.66640509835,0.041080687268816536,-0.004123340357836604,-0.03436116964863837,0.044660000000000005,0.30086,-0.22218000000000004,23.5,1,520,383,728,2040,35.933125,110728,20.24690361148402,1013.1583031972391,0,,,,N/A,False
2024-04-02T10:39:10,1.3698909385,-0.19441683624999997,9.9026963301,0.04214970143566306,-0.007330382858376185,-0.0355829001250344,0.028700000000000003,0.29106,-0.21504,23.5,1,520,383,728,2040,35.933125,110728,20.24690361148402,1013.1583031972391,0,,,,N/A,False
2024-04-02T10:39:10,1.3788640232499998,-0.15553346899999998,9.9625168951,0.041691552507014555,-0.005803219762881146,-0.036193765363232405,0.02926,0.29106,-0.20804000000000003,23.5,1,520,383,728,2040,35.933125,110728,20.24690361148402,1013.1583031972391,0,,,,N/A,False
2024-04-02T10:39:10,1.40757789445,-0.17766707805,10.007382318849999,0.04688390703169768,-0.009926560120717751,-0.03787364476827696,0.03122,0.28686,-0.20846,23.5,1,520,383,728,2040,35.8786328125,111903,20.23272518178778,1013.1456253637906,0,,,,N/A,False
2024-04-02T10:39:10,1.3286147486499997,-0.1112662509,9.93559764085,0.047952921198544204,-0.0022907446432425577,-0.041386119887915546,0.030100000000000002,0.29918,-0.21840000000000004,23.5,1,520,383,728,2040,35.8786328125,111903,20.23272518178778,1013.1456253637906,0,,,,N/A,False
2024-04-02T10:39:10,1.3501501520499999,-0.10468598874999999,9.8141618939,0.04474587869800463,0.0033597588100890844,-0.00045814892864851157,0.028980000000000002,0.28854,-0.20244000000000004,23.5,1,519,383,728,2038,35.8716015625,112425,20.200374138494844,1013.139609745596,0,,,,N/A,False
2024-04-02T10:39:10,1.3387842447,-0.15672988029999999,9.93799046345,0.04382958084070761,-0.00595593607243065,-0.041080687268816536,0.0371,0.29526,-0.20832000000000003,23.5,1,519,383,728,2038,35.8462109375,110656,20.16152903041869,1013.1525754054475,0,,,,N/A,False
2024-04-02T10:39:10,1.3591232368,-0.15014961815,9.949954576449999,0.04428772976935611,-0.0007635815477475193,-0.038789942625573975,0.027860000000000003,0.29666000000000003,-0.20286,23.5,1,519,383,728,2038,35.8067578125,111386,20.158972991220423,1013.1426440076555,0,,,,N/A,False
2024-04-02T10:39:11,1.25443724805,-0.15912270289999997,9.7615197967,0.03665191429188092,-0.004581489286485115,-0.040317105721069016,0.03402,0.29834000000000005,-0.21476,23.5,1,520,382,728,2038,35.807734375,111313,20.137787952683855,1013.1369946706697,0,,,,N/A,False
2024-04-02T10:39:11,1.35373938595,-0.14536397295,9.9828558872,0.048258353817643214,0.0006108652381980154,-0.04016438941151951,0.030380000000000004,0.29918,-0.2177,23.5,1,520,382,728,2038,35.807734375,111313,20.137787952683855,1013.1369946706697,0,,,,N/A,False
2024-04-02T10:39:11,1.3208380751999997,-0.11246266220000001,9.8452685877,0.04520402762665314,0.001069014166846527,-0.041386119887915546,0.03402,0.29694000000000004,-0.21042000000000002,23.5,1,520,382,728,2038,35.8196484375,112575,20.127935822111418,1013.131052664322,0,,,,N/A,False
2024-04-02T10:39:11,1.3310075712499998,-0.17288143285000002,10.04925671435,0.043982297150257116,-0.0027488935718910697,-0.03802636107782646,0.03654,0.29582,-0.21350000000000002,23.5,1,520,382,728,2038,35.8196484375,112575,20.127935822111418,1013.131052664322,0,,,,N/A,False
2024-04-02T10:39:11,1.3938191645,-0.14895320685,9.97148997985,0.04153883619746505,-0.007330382858376185,-0.038331793696925465,0.03878,0.2905,-0.21798,23.5,1,520,382,728,2038,35.8423046875,112952,20.113467465413393,1013.1353572163675,0,,,,N/A,False
2024-04-02T10:39:11,1.31545422435,-0.11365907349999999,9.794421107449999,0.04444044607890562,-0.004581489286485115,-0.04046982203061852,0.03178,0.30450000000000005,-0.21238,23.5,1,520,382,728,2038,35.8423046875,112952,20.113467465413393,1013.1353572163675,0,,,,N/A,False
2024-04-02T10:39:11,1.3190434582499997,-0.15553346899999998,9.793224696149998,0.04535674393620265,-0.009926560120717751,-0.038789942625573975,0.032060000000000005,0.30142,-0.20258,23.5,1,520,382,728,2038,35.87765625,113713,20.08388795877932,1013.13679581017,0,,,,N/A,False
2024-04-02T10:39:11,1.2580264819499998,-0.14356935599999998,9.775278526649998,0.03924809155422249,-0.012370021073509813,-0.03772092845872745,0.02338,0.29666000000000003,-0.20762000000000003,23.5,1,520,382,728,2038,35.87765625,113713,20.08388795877932,1013.13679581017,0,,,,N/A,False
2024-04-02T10:39:11,1.2604193045499996,-0.11006983959999998,9.6957171752,0.04214970143566306,-0.007483099167925688,-0.038484510006474966,0.03178,0.3003,-0.19810000000000003,23.5,1,518,380,724,2029,35.91359375,114097,20.09683160384658,1013.1409926577444,0,,,,N/A,False
2024-04-02T10:39:11,1.4057832774999999,-0.18664016279999998,9.887142983199999,0.04214970143566306,0.00015271630954950385,-0.03588833274413341,0.03458000000000001,0.29666000000000003,-0.20524,23.5,1,518,380,724,2029,35.91359375,114097,20.09683160384658,1013.1409926577444,0,,,,N/A,False
2024-04-02T10:39:12,1.3519447689999997,-0.1280160091,9.997811028449998,0.041691552507014555,-0.006719517620178169,-0.038331793696925465,0.03962,0.29778000000000004,-0.20300000000000004,23.5,1,518,380,724,2029,35.9044140625,111829,20.037828988101353,1013.1513913554309,0,,,,N/A,False
2024-04-02T10:39:12,1.50568362105,-0.17587246110000002,9.92243711655,0.04550946024575215,-0.010537425358915765,-0.039706240482871004,0.034300000000000004,0.29610000000000003,-0.19250000000000003,23.5,1,518,380,724,2029,35.8708203125,113560,20.040971908827537,1013.1365280626025,0,,,,N/A,False
2024-04-02T10:39:12,1.3220344865,-0.1304088317,9.825527801249999,0.04673119072214818,-0.0044287729769356115,-0.0435241482216086,0.026180000000000002,0.28742,-0.19978000000000004,23.5,1,518,380,724,2029,35.8716015625,113636,20.014482719484093,1013.1341798705878,0,,,,N/A,False
2024-04-02T10:39:12,1.3525429746499997,-0.11724830739999999,9.820742156049999,0.04550946024575215,-0.00045814892864851157,-0.040622538340168025,0.038220000000000004,0.2933,-0.22106000000000003,23.5,1,518,380,724,2029,35.8716015625,113636,20.014482719484093,1013.1341798705878,0,,,,N/A,False
2024-04-02T10:39:12,1.4201402130999998,-0.19322042494999997,9.9577312499,0.040622538340168025,-0.0015271630954950385,-0.03924809155422249,0.03458000000000001,0.28994000000000003,-0.20356000000000002,23.5,0,517,381,726,2031,35.8817578125,114020,19.9939083754594,1013.1380423504952,0,,,,N/A,False
2024-04-02T10:39:12,1.2963116435499997,-0.10648060570000001,9.75135030065,0.04642575810304917,-0.003054326190990077,-0.039400807863771994,0.03374,0.29386,-0.2058,23.5,0,517,381,726,2031,35.8817578125,114020,19.9939083754594,1013.1380423504952,0,,,,N/A,False
2024-04-02T10:39:12,1.24008031245,-0.1339980656,9.710074110799999,0.04092797095926703,-0.0035124751196385882,-0.039706240482871004,0.03514,0.28994000000000003,-0.19614,23.5,0,517,381,726,2031,35.857734375,110294,19.960529227696426,1013.1441854348002,0,,,,N/A,False
2024-04-02T10:39:12,1.3806586402,-0.13998012209999997,9.9625168951,0.05009094953223726,-0.00015271630954950385,-0.04092797095926703,0.030660000000000003,0.28546000000000005,-0.21070000000000003,23.5,0,517,381,726,2031,35.857734375,110294,19.960529227696426,1013.1441854348002,0,,,,N/A,False
2024-04-02T10:39:12,1.3375878333999998,-0.11246266220000001,9.91525864875,0.041844268816564056,-0.0007635815477475193,-0.041996985126113565,0.03318,0.28994000000000003,-0.19096000000000002,23.5,0,517,381,726,2031,35.857734375,110294,19.960529227696426,1013.1441854348002,0,,,,N/A,False
2024-04-02T10:39:13,1.2825529135999998,-0.12083754129999999,9.7459664498,0.04306599929296009,-0.008704829644321718,-0.038331793696925465,0.024500000000000004,0.29302000000000006,-0.21532,23.5,0,517,381,726,2031,35.819453125,112425,19.95276652494671,1013.1361641594829,0,,,,N/A,False
2024-04-02T10:39:13,1.3830514628000001,-0.19022939669999997,9.96670433465,0.038179077387375956,-0.003970624048287101,-0.041080687268816536,0.028700000000000003,0.29106,-0.21042000000000002,23.5,0,517,381,726,2031,35.819453125,112425,19.95276652494671,1013.1361641594829,0,,,,N/A,False
2024-04-02T10:39:13,1.36809632155,-0.16510475939999997,9.93799046345,0.038179077387375956,-0.005039638215133627,-0.039858956792420505,0.03178,0.29414000000000007,-0.20370000000000002,23.5,0,517,381,726,2031,35.825703125,113484,19.942559641780395,1013.1300501433778,0,,,,N/A,False
2024-04-02T10:39:13,1.3076775508999998,-0.11844471869999999,9.812965482600001,0.04230241774521256,-0.014966198335851376,-0.038942658935123484,0.034300000000000004,0.2933,-0.20622000000000001,23.5,1,517,380,722,2025,35.825703125,113484,19.942559641780395,1013.1300501433778,0,,,,N/A,False
2024-04-02T10:39:13,1.34536450685,-0.1639083481,9.895517862299998,0.041386119887915546,-0.01114829059711378,-0.038789942625573975,0.03514,0.29190000000000005,-0.18886,23.5,1,517,380,722,2025,35.856953125,113790,19.939260946226653,1013.1338640882403,0,,,,N/A,False
2024-04-02T10:39:13,1.28554394185,-0.11186445655,9.732805925500001,0.04123340357836604,-0.007177666548826681,-0.036804630601430424,0.03374,0.29218,-0.20300000000000004,23.5,1,517,380,722,2025,35.856953125,113790,19.939260946226653,1013.1338640882403,0,,,,N/A,False
2024-04-02T10:39:13,1.2574282763,-0.11425727914999999,9.82792062385,0.04428772976935611,-0.010231992739816757,-0.036804630601430424,0.032060000000000005,0.2975,-0.21084000000000003,23.5,1,517,380,722,2025,35.8969921875,113560,19.95244051531396,1013.1393103388228,0,,,,N/A,False
2024-04-02T10:39:13,1.4249258582999997,-0.1746760498,9.997811028449998,0.04505131131710364,-0.00015271630954950385,-0.038484510006474966,0.0315,0.29778000000000004,-0.2079,23.5,1,517,380,722,2025,35.8969921875,113560,19.95244051531396,1013.1393103388228,0,,,,N/A,False
2024-04-02T10:39:13,1.3824532571500001,-0.0849452023,9.9086783866,0.04291328298341058,-0.0068722339297276735,-0.039706240482871004,0.027300000000000005,0.29358000000000006,-0.21126000000000003,23.5,1,517,380,722,2025,35.892109375,111607,19.936212748480663,1013.1548925081946,0,,,,N/A,False
2024-04-02T10:39:14,1.32023986955,-0.11545369045,9.80399239785,0.04596760917440065,0.0013744467859455349,-0.038942658935123484,0.024500000000000004,0.29918,-0.20832000000000003,23.5,1,515,378,721,2019,35.863203125,112650,19.939662017985672,1013.1458479846787,0,,,,N/A,False
2024-04-02T10:39:14,1.3280165429999997,-0.1339980656,9.953543810349998,0.04688390703169768,0.003054326190990077,-0.039553524173321496,0.024500000000000004,0.29722000000000004,-0.2023,23.5,1,515,378,721,2019,35.863203125,112650,19.939662017985672,1013.1458479846787,0,,,,N/A,False
2024-04-02T10:39:14,1.31186499045,-0.07118647234999999,9.80518880915,0.04245513405476207,-0.0018325957145940463,-0.038179077387375956,0.039060000000000004,0.29218,-0.20972000000000002,23.5,1,515,378,721,2019,35.863203125,112650,19.939662017985672,1013.1458479846787,0,,,,N/A,False
2024-04-02T10:39:14,1.3328021881999996,-0.11186445655,9.821938567349997,0.04657847441259867,-0.0019853120241435504,-0.039706240482871004,0.030380000000000004,0.29078000000000004,-0.21014000000000002,23.5,1,515,378,721,2019,35.8708203125,112725,19.929542693233053,1013.1383380188269,0,,,,N/A,False
2024-04-02T10:39:14,1.2717852119,-0.12622139215,9.790233667899999,0.039706240482871004,-0.010079276430267254,-0.03466660226773738,0.025340000000000005,0.30282000000000003,-0.20328000000000002,23.5,1,515,378,721,2019,35.8708203125,112725,19.929542693233053,1013.1383380188269,0,,,,N/A,False
2024-04-02T10:39:14,1.2681959779999998,-0.12382856954999999,9.798608546999999,0.04291328298341058,-0.006414085001079162,-0.041080687268816536,0.021700000000000004,0.29778000000000004,-0.19754000000000002,23.5,1,515,378,721,2019,35.8821484375,113943,19.946182479171878,1013.1296282691958,0,,,,N/A,False
2024-04-02T10:39:14,1.3310075712499998,-0.1268195978,9.76451082495,0.04474587869800463,-0.008246680715673207,-0.03787364476827696,0.028980000000000002,0.30590000000000006,-0.22204000000000002,23.5,1,515,378,721,2019,35.8821484375,113943,19.946182479171878,1013.1296282691958,0,,,,N/A,False
2024-04-02T10:39:14,1.3920245475499997,-0.19262221929999998,10.043274657849999,0.04627304179349966,-0.006108652381980154,-0.03787364476827696,0.028980000000000002,0.29582,-0.21644000000000002,23.5,1,515,378,721,2019,35.8821484375,113943,19.946182479171878,1013.1296282691958,0,,,,N/A,False
2024-04-02T10:39:14,1.3208380751999997,-0.18005990065000002,9.954740221649999,0.04382958084070761,-0.002901609881440573,-0.038484510006474966,0.023100000000000002,0.30058,-0.19936,23.5,1,515,378,721,2019,35.912421875,114020,19.942821222748655,1013.1336549583997,0,,,,N/A,False
2024-04-02T10:39:14,1.3100703735,-0.09810572659999998,9.812367276949999,0.04673119072214818,-0.001069014166846527,-0.03924809155422249,0.033460000000000004,0.29358000000000006,-0.20916,23.5,1,516,379,721,2021,35.912421875,114020,19.942821222748655,1013.1336549583997,0,,,,N/A,False
2024-04-02T10:39:14,1.5128620888500002,-0.13698909385,9.95115098775,0.04688390703169768,-0.0006108652381980154,-0.038942658935123484,0.030380000000000004,0.29190000000000005,-0.21056000000000002,23.5,1,516,379,721,2021,35.9466015625,114329,19.955627236984352,1013.1349850447583,0,,,,N/A,15
2024-04-02T10:39:14,1.3082757565499998,-0.12741780345,9.774680320999998,0.043676864531158106,-0.007177666548826681,-0.03726277953007894,0.032900000000000006,0.29302000000000006,-0.21224,23.5,1,516,379,721,2021,35.9466015625,114329,19.955627236984352,1013.1349850447583,0,,,,N/A,15
2024-04-02T10:39:14,1.34895374075,-0.12083754129999999,9.879366309749999,0.04214970143566306,-0.010537425358915765,-0.038637226316024474,0.032060000000000005,0.29610000000000003,-0.21168,23.5,1,516,379,721,2021,35.9321484375,112126,19.944087792837607,1013.1549035116957,0,,,,N/A,15
2024-04-02T10:39:15,1.3280165429999997,-0.13758729949999998,9.8273224182,0.048258353817643214,-0.003207042500539581,-0.041844268816564056,0.03122,0.29022000000000003,-0.21084000000000003,23.5,1,516,379,721,2021,35.9321484375,112126,19.944087792837607,1013.1549035116957,0,,,,N/A,15
2024-04-02T10:39:15,1.3477573294499998,-0.14416756165,9.87577707585,0.04444044607890562,0.0027488935718910697,-0.038942658935123484,0.030940000000000002,0.29666000000000003,-0.20720000000000002,23.5,1,516,379,721,2021,35.896015625,112801,19.94176800372691,1013.1558209910905,0,,,,N/A,15
2024-04-02T10:39:15,1.387837108,-0.17407784415000002,9.945767136899999,0.04306599929296009,0.0019853120241435504,-0.04001167310197001,0.03542,0.28434000000000004,-0.21630000000000002,23.5,1,515,378,720,2017,35.901875,113407,19.952754107839258,1013.156308584004,0,,,,N/A,15
2024-04-02T10:39:15,1.32741833735,-0.13579268255,9.85304526115,0.04428772976935611,-0.007635815477475193,-0.036193765363232405,0.03626000000000001,0.27734000000000003,-0.2009,23.5,1,515,378,720,2017,35.901875,113407,19.952754107839258,1013.156308584004,0,,,,N/A,15
2024-04-02T10:39:15,1.3411770672999999,-0.18125631194999997,9.939186874749998,0.04566217655530165,-0.002138028333693054,-0.03527746750593539,0.04018000000000001,0.29442,-0.21252000000000001,23.5,1,515,378,720,2017,35.901875,113407,19.952754107839258,1013.156308584004,0,,,,N/A,15
2024-04-02T10:39:15,1.2993026717999998,-0.14117653339999997,9.76331441365,0.04657847441259867,-0.007177666548826681,-0.039095375244672985,0.0371,0.29554,-0.20538000000000003,22.5,1,515,378,720,2017,35.9278515625,113943,19.965034274313698,1013.1551499170617,0,,,,N/A,15
2024-04-02T10:39:15,1.38364966845,-0.18364913454999998,9.9876415324,0.04657847441259867,-0.00946841119206924,-0.03695734691097993,0.044660000000000005,0.29890000000000005,-0.20454000000000003,23.5,1,515,378,720,2017,35.9278515625,113943,19.965034274313698,1013.1551499170617,0,,,,N/A,15
2024-04-02T10:39:15,1.2370892841999999,-0.13339985995,9.67597638875,0.04214970143566306,-0.005803219762881146,-0.03695734691097993,0.03458000000000001,0.28798,-0.20622000000000001,23.5,1,515,378,720,2017,35.950703125,114484,19.982423205329468,1013.1489016384282,0,,,,N/A,15
2024-04-02T10:39:15,1.3292129543,-0.14177473905,9.90329453575,0.04260785036431157,0.0007635815477475193,-0.039400807863771994,0.03402,0.30058,-0.20034000000000002,23.5,1,515,378,720,2017,35.950703125,114484,19.982423205329468,1013.1489016384282,0,,,,N/A,15
2024-04-02T10:39:15,1.4165509792000002,-0.1328016543,9.986445121099997,0.04657847441259867,0.002901609881440573,-0.04153883619746505,0.02842,0.30058,-0.20678000000000002,23.5,1,515,378,720,2017,35.9844921875,115741,19.97398245898062,1013.1495908290943,0,,,,N/A,15
2024-04-02T10:39:15,1.30349011135,-0.14356935599999998,9.7304131029,0.04444044607890562,-0.005803219762881146,-0.038789942625573975,0.03458000000000001,0.28686,-0.20664000000000002,23.5,1,515,378,720,2017,35.9844921875,115741,19.97398245898062,1013.1495908290943,0,,,,N/A,15
2024-04-02T10:39:16,1.3232308977999998,-0.19740786449999997,9.886544777549998,0.038942658935123484,-0.00916297857297023,-0.038789942625573975,0.028980000000000002,0.29498,-0.2079,23.5,1,515,378,720,2017,36.019453125,115741,19.981539121031656,1013.1503717499687,0,,,,N/A,-1
2024-04-02T10:39:16,1.3770694062999997,-0.17108681589999997,10.039685423949999,0.04535674393620265,-0.0012217304763960308,-0.036804630601430424,0.03878,0.3003,-0.20510000000000003,23.5,1,516,379,721,2020,36.019453125,115741,19.981539121031656,1013.1503717499687,0,,,,N/A,-1
2024-04-02T10:39:16,1.35373938595,-0.11665010174999998,9.855438083749998,0.04505131131710364,0.00473420559603462,-0.03634648167278191,0.0357,0.28742,-0.21798,23.5,1,516,379,721,2020,36.0544140625,115900,19.973172921635136,1013.1547680817328,0,,,,N/A,-1
2024-04-02T10:39:16,1.3950155758,-0.11306086784999998,9.9218389109,0.0435241482216086,-0.0022907446432425577,-0.03741549583962844,0.03178,0.29414000000000007,-0.20566000000000004,23.5,1,516,379,721,2020,36.0544140625,115900,19.973172921635136,1013.1547680817328,0,,,,N/A,-1
2024-04-02T10:39:16,1.32741833735,-0.10947163395000001,10.0031948793,0.043676864531158106,-0.00473420559603462,-0.04153883619746505,0.02926,0.29638000000000003,-0.20272000000000004,23.5,1,516,379,721,2020,36.0856640625,116863,19.97518384557499,1013.142256905376,0,,,,N/A,-1
2024-04-02T10:39:16,1.3543375915999998,-0.14237294469999998,9.97627562505,0.04489859500755413,0.0012217304763960308,-0.039858956792420505,0.039900000000000005,0.29526,-0.19992000000000001,23.5,1,516,379,721,2020,36.0856640625,116863,19.97518384557499,1013.142256905376,0,,,,N/A,-1
2024-04-02T10:39:16,1.399801221,-0.11246266220000001,9.8608219346,0.04276056667386108,0.005345070834232635,-0.04016438941151951,0.03458000000000001,0.30086,-0.20370000000000002,23.5,1,516,379,721,2020,36.113984375,116299,19.961081154416185,1013.1430788947031,0,,,,N/A,-1
2024-04-02T10:39:16,1.3686945271999997,-0.17228322719999997,9.977472036350001,0.04321871560250959,-0.004581489286485115,-0.038484510006474966,0.030660000000000003,0.30870000000000003,-0.20902,23.5,1,516,379,721,2019,36.113984375,116299,19.961081154416185,1013.1430788947031,0,,,,N/A,-1
2024-04-02T10:39:16,1.34895374075,-0.17766707805,9.936195846499999,0.0433714319120591,-0.006719517620178169,-0.038331793696925465,0.029540000000000004,0.29974,-0.20384000000000002,23.5,1,516,379,721,2019,36.0844921875,114640,19.932648190850845,1013.1602658082354,0,,,,N/A,-1
2024-04-02T10:39:16,1.3052847283,-0.12622139215,9.7950193131,0.041996985126113565,-0.0025961772623415654,-0.038484510006474966,0.029820000000000003,0.30198,-0.19978000000000004,23.5,1,516,379,721,2019,36.0844921875,114640,19.932648190850845,1013.1602658082354,0,,,,N/A,-1
2024-04-02T10:39:17,1.3178470469499999,-0.12263215824999998,9.769894675799998,0.04413501345980661,-0.0006108652381980154,-0.041996985126113565,0.032900000000000006,0.30114,-0.2079,23.5,1,516,379,721,2019,36.0315625,114952,19.92394320467845,1013.1519759936563,0,,,,N/A,-1
2024-04-02T10:39:17,1.4159527735499997,-0.14775679555,9.96909715725,0.043982297150257116,-0.0033597588100890844,-0.040622538340168025,0.027860000000000003,0.3073,-0.21602000000000002,23.5,1,516,379,721,2019,36.0315625,114952,19.92394320467845,1013.1519759936563,0,,,,N/A,-1
2024-04-02T10:39:17,1.3316057768999998,-0.13998012209999997,9.8680004024,0.04413501345980661,-0.003207042500539581,-0.041691552507014555,0.030100000000000002,0.29890000000000005,-0.20650000000000002,23.5,1,516,379,721,2019,36.0315625,114952,19.92394320467845,1013.1519759936563,0,,,,N/A,-1
2024-04-02T10:39:17,1.3405788616499998,-0.11665010174999998,9.879366309749999,0.04214970143566306,0.0022907446432425577,-0.03634648167278191,0.0357,0.29778000000000004,-0.20860000000000004,23.5,1,516,379,721,2019,35.878046875,110078,19.876977469220083,1013.164581318611,0,,,,N/A,-1
2024-04-02T10:39:17,1.2592228932499998,-0.16450655374999998,9.745368244149999,0.04612032548395016,-0.0056505034533316425,-0.038179077387375956,0.027860000000000003,0.29946000000000006,-0.21028000000000002,23.5,1,516,379,721,2019,35.878046875,110078,19.876977469220083,1013.164581318611,0,,,,N/A,-1
2024-04-02T10:39:18,1.36331067635,-0.15373885204999999,9.954142015999999,0.04627304179349966,-0.00595593607243065,-0.03787364476827696,0.038220000000000004,0.28490000000000004,-0.20356000000000002,23.5,1,514,378,721,2016,35.7692578125,112201,19.85941839586935,1013.1413154411666,0,,,,N/A,-1
2024-04-02T10:39:18,1.2658031554,-0.13998012209999997,9.752546711949998,0.04153883619746505,-0.00946841119206924,-0.038942658935123484,0.03178,0.29078000000000004,-0.20762000000000003,23.5,1,514,378,721,2016,35.7692578125,112201,19.85941839586935,1013.1413154411666,0,,,,N/A,-1
2024-04-02T10:39:18,1.3639088819999998,-0.17168502154999998,9.8991070962,0.04153883619746505,-0.00916297857297023,-0.038637226316024474,0.033460000000000004,0.29246000000000005,-0.21000000000000002,23.5,1,514,378,721,2016,35.7692578125,112201,19.85941839586935,1013.1413154411666,0,,,,N/A,-1
2024-04-02T10:39:18,1.2610175101999996,-0.1339980656,9.8548398781,0.0435241482216086,-0.006261368691529657,-0.039095375244672985,0.03626000000000001,0.2975,-0.21000000000000002,23.5,1,514,378,721,2016,35.1925,98800,19.732735467538703,1013.1498402563449,0,,,,N/A,-1
2024-04-02T10:39:18,1.3208380751999997,-0.12263215824999998,9.906285564,0.04535674393620265,-0.00015271630954950385,-0.03787364476827696,0.035980000000000005,0.29610000000000003,-0.20146,23.5,1,514,378,721,2016,35.1925,98800,19.732735467538703,1013.1498402563449,0,,,,N/A,-1
2024-04-02T10:39:19,1.2885349701,-0.11784651304999999,9.80399239785,0.04688390703169768,-0.002901609881440573,-0.0357356164345839,0.03178,0.29890000000000005,-0.20412000000000002,23.5,0,513,377,720,2012,34.927265625,102025,19.763516365474988,1013.1207624543263,0,,,,N/A,-1
2024-04-02T10:39:19,1.4051850718499999,-0.15493526335,9.995418205850001,0.04612032548395016,-0.00473420559603462,-0.041996985126113565,0.029540000000000004,0.30338000000000004,-0.19544000000000003,23.5,0,513,377,720,2012,34.927265625,102025,19.763516365474988,1013.1207624543263,0,,,,N/A,-1
2024-04-02T10:39:19,1.3262219260499999,-0.107677017,9.814760099549998,0.04001167310197001,-0.004123340357836604,-0.04123340357836604,0.02926,0.29554,-0.2177,23.5,0,513,377,720,2012,34.927265625,102025,19.763516365474988,1013.1207624543263,0,,,,N/A,-1
2024-04-02T10:39:19,1.4207384187499998,-0.12562318649999998,9.9577312499,0.04550946024575215,-0.007177666548826681,-0.038942658935123484,0.03682,0.29162,-0.20734000000000002,23.5,0,513,377,720,2012,34.4669140625,92904,19.79778394839092,1013.1218777550463,0,,,,N/A,-1
2024-04-02T10:39:19,1.2963116435499997,-0.10588240005,9.952347399049998,0.038331793696925465,-0.004886921905584123,-0.040317105721069016,0.037380000000000004,0.29358000000000006,-0.1918,23.5,0,513,377,720,2012,34.4669140625,92904,19.79778394839092,1013.1218777550463,0,,,,N/A,-1
2024-04-02T10:39:19,1.36331067635,-0.10707881135,9.954740221649999,0.04260785036431157,0.0038179077387375964,-0.039553524173321496,0.030940000000000002,0.29554,-0.20748000000000003,23.5,0,513,377,720,2012,34.303046875,97206,19.834944831875216,1013.0912007833577,0,,,,N/A,-1
2024-04-02T10:39:19,1.29990087745,-0.16749758199999998,9.832706269049998,0.04260785036431157,-0.007483099167925688,-0.038484510006474966,0.03626000000000001,0.30422000000000005,-0.21028000000000002,23.5,2,513,378,720,2013,34.303046875,97206,19.834944831875216,1013.0912007833577,0,,,,N/A,-1
2024-04-02T10:39:19,1.30349011135,-0.1304088317,9.72981489725,0.040317105721069016,-0.00916297857297023,-0.03588833274413341,0.038500000000000006,0.29722000000000004,-0.20482000000000003,23.5,2,513,378,720,2013,34.3596875,100446,19.901922423053996,1013.0806524404711,0,,,,N/A,-1
2024-04-02T10:39:19,1.3603196481,-0.12861421474999998,9.923035322199999,0.047952921198544204,-0.0009162978572970231,-0.04276056667386108,0.026740000000000003,0.29722000000000004,-0.20916,23.5,2,513,378,720,2013,34.3596875,100446,19.901922423053996,1013.0806524404711,0,,,,N/A,-1
2024-04-02T10:39:20,1.3112667848,-0.15433705769999997,9.846464998999998,0.0433714319120591,-0.011759155835311796,-0.03787364476827696,0.041580000000000006,0.29246000000000005,-0.21868,23.5,2,513,378,720,2013,34.514765625,103655,19.954073012945724,1013.0788932696648,0,,,,N/A,-1
2024-04-02T10:39:20,1.2921242039999998,-0.13160524299999998,9.76451082495,0.04260785036431157,-0.007788531787024696,-0.040622538340168025,0.03486000000000001,0.29218,-0.2079,23.5,2,513,378,720,2013,34.514765625,103655,19.954073012945724,1013.0788932696648,0,,,,N/A,-1
2024-04-02T10:39:20,1.3447663011999997,-0.2943171798,9.86740219675,0.04596760917440065,-0.006261368691529657,-0.03481931857728687,0.03262,0.2905,-0.20622000000000001,23.5,1,513,377,719,2009,34.514765625,103655,19.954073012945724,1013.0788932696648,0,,,,N/A,-1
2024-04-02T10:39:20,1.2526426310999998,-0.1280160091,9.820742156049999,0.04260785036431157,-0.0036651914291880926,-0.040317105721069016,0.03234,0.28770000000000007,-0.21448000000000003,23.5,1,513,377,719,2009,34.4003125,95555,19.957359367891584,1013.0999537318521,0,,,,N/A,-1
2024-04-02T10:39:20,1.3507483577,-0.1112662509,9.98704332675,0.041996985126113565,-0.002138028333693054,-0.03604104905368291,0.028700000000000003,0.29022000000000003,-0.19810000000000003,23.5,1,513,377,719,2009,34.4003125,95555,19.957359367891584,1013.0999537318521,0,,,,N/A,-1
2024-04-02T10:39:21,1.2598210988999998,-0.11545369045,9.762118002349998,0.04123340357836604,-0.0012217304763960308,-0.03695734691097993,0.03458000000000001,0.29246000000000005,-0.19642,23.5,1,512,377,718,2006,34.4048046875,100927,19.984082460312525,1013.0819966493431,0,,,,N/A,-1
2024-04-02T10:39:21,1.3310075712499998,-0.09930213789999999,9.94277610865,0.04444044607890562,0.0035124751196385882,-0.0003054326190990077,0.037660000000000006,0.2975,-0.19754000000000002,23.5,1,512,377,718,2006,34.4048046875,100927,19.984082460312525,1013.0819966493431,0,,,,N/A,-1
2024-04-02T10:39:21,1.29990087745,-0.09690931529999999,9.705886671250001,0.038179077387375956,-0.0012217304763960308,-0.039858956792420505,0.03262,0.28714000000000006,-0.20174,23.5,1,512,377,718,2006,34.4048046875,100927,19.984082460312525,1013.0819966493431,0,,,,N/A,-1
2024-04-02T10:39:21,1.2993026717999998,-0.11066804524999999,9.77408211535,0.04520402762665314,0.0022907446432425577,-0.04291328298341058,0.025340000000000005,0.29638000000000003,-0.21196,23.5,1,512,377,718,2006,34.070625,92193,19.962813256917258,1013.0929844035201,0,,,,N/A,-1
2024-04-02T10:39:21,1.30229370005,-0.14177473905,9.71665437295,0.041691552507014555,-0.008704829644321718,-0.039858956792420505,0.029540000000000004,0.29918,-0.2079,23.5,1,512,377,718,2006,34.070625,92193,19.962813256917258,1013.0929844035201,0,,,,N/A,-1
2024-04-02T10:39:22,1.3286147486499997,-0.18364913454999998,10.02532848835,0.04489859500755413,-0.006719517620178169,-0.039553524173321496,0.04746000000000001,0.29610000000000003,-0.20622000000000001,23.5,1,512,377,718,2005,34.00109375,93854,20.01122631348525,1013.071590473469,0,,,,N/A,-1
2024-04-02T10:39:22,1.37048914415,-0.09930213789999999,9.88893760015,0.04581489286485116,-0.003207042500539581,-0.040622538340168025,0.03234,0.29134000000000004,-0.20958000000000002,23.5,1,510,376,717,2001,33.71671875,88704,20.061803447461884,1013.089294251901,0,,,,N/A,-1
2024-04-02T10:40:26,1.3136596073999998,-0.16450655374999998,9.762716207999999,0.04413501345980661,-0.006414085001079162,-0.041996985126113565,0.03486000000000001,0.28770000000000007,-0.20314000000000002,23.5,1,510,376,717,2001,33.71671875,88704,20.061803447461884,1013.089294251901,0,,,,N/A,-1
2024-04-02T10:40:26,1.2508480141499998,-0.10588240005,9.72861848595,0.043676864531158106,-0.007941248096574201,-0.04001167310197001,0.03318,0.29022000000000003,-0.21350000000000002,23.5,1,510,376,717,2001,33.699921875,92801,20.118854584593837,1013.0763097229058,0,,,,N/A,-1
2024-04-02T10:40:26,1.3758729949999997,-0.10947163395000001,9.868598608049998,0.04474587869800463,-0.0007635815477475193,-0.041691552507014555,0.030380000000000004,0.29358000000000006,-0.19992000000000001,23.5,1,510,376,717,2001,33.856953125,96539,20.187060110561138,1013.0691830356515,0,,,,N/A,-1
2024-04-02T10:40:27,1.2669995667,-0.07956135144999998,9.708877699499999,0.04780020488899471,-0.006261368691529657,-0.03772092845872745,0.02926,0.29162,-0.20622000000000001,23.5,1,512,377,717,2003,34.093671875,97656,20.23930681437947,1013.0764332953605,0,,,,N/A,-1
2024-04-02T10:40:27,1.4039886605499998,-0.13160524299999998,9.963115100749999,0.04230241774521256,0.0027488935718910697,-0.038179077387375956,0.03654,0.29666000000000003,-0.21518,23.5,1,512,377,717,2003,34.093671875,97656,20.23930681437947,1013.0764332953605,0,,,,N/A,-1
2024-04-02T10:40:27,1.3387842447,-0.11006983959999998,9.8261260069,0.04214970143566306,0.0006108652381980154,-0.07819075048934597,0.026740000000000003,0.2975,-0.20888,23.5,1,512,377,717,2003,34.093671875,97656,20.23930681437947,1013.0764332953605,0,,,,N/A,-1
2024-04-02T10:40:27,1.32143628085,-0.11066804524999999,9.90329453575,0.04444044607890562,-0.0025961772623415654,-0.041996985126113565,0.022820000000000003,0.28462,-0.21728000000000003,23.5,1,512,377,717,2003,34.063984375,94274,20.269166528524096,1013.0929801534586,0,,,,N/A,-1
2024-04-02T10:40:27,1.2987044661499998,-0.13758729949999998,9.815956510849999,0.04321871560250959,-0.007330382858376185,-0.036499197982331415,0.03458000000000001,0.2933,-0.20636000000000002,23.5,1,512,377,717,2003,34.063984375,94274,20.269166528524096,1013.0929801534586,0,,,,N/A,-1
2024-04-02T10:40:28,1.3603196481,-0.17048861024999998,9.99661461715,0.04214970143566306,-0.008399397025222712,-0.03756821214917795,0.030100000000000002,0.2863,-0.20146,23.5,1,512,377,717,2002,34.13078125,98397,20.299955724102148,1013.0846249385792,0,,,,N/A,-1
2024-04-02T10:40:28,1.2669995667,-0.1268195978,9.7363951594,0.03802636107782646,-0.01069014166846527,-0.03741549583962844,0.032060000000000005,0.29694000000000004,-0.2023,23.5,1,512,377,717,2002,34.13078125,98397,20.299955724102148,1013.0846249385792,0,,,,N/A,-1
2024-04-02T10:40:28,1.28674035315,-0.15254244074999998,9.890732217099998,0.041844268816564056,-0.012217304763960308,-0.039706240482871004,0.024500000000000004,0.30058,-0.20202,23.5,1,512,377,717,2002,34.13078125,98397,20.299955724102148,1013.0846249385792,0,,,,N/A,-1
2024-04-02T10:40:28,1.37048914415,-0.12622139215,9.8979106849,0.04566217655530165,0.002901609881440573,-0.038484510006474966,0.046900000000000004,0.29834000000000005,-0.20636000000000002,23.5,0,512,377,716,2000,33.8321484375,89933,20.296593563177904,1013.0918566668821,0,,,,N/A,-1
2024-04-02T10:40:28,1.2849457361999996,-0.12143574694999999,9.8153583052,0.04276056667386108,0.0012217304763960308,-0.041691552507014555,0.022820000000000003,0.29498,-0.19292,23.5,0,512,377,716,2000,33.8321484375,89933,20.296593563177904,1013.0918566668821,0,,,,N/A,-1
2024-04-02T10:40:28,1.3435698898999997,-0.12083754129999999,9.984052298499998,0.04505131131710364,-0.003970624048287101,-0.039706240482871004,0.030380000000000004,0.29554,-0.19936,23.5,0,512,377,716,2000,33.7809765625,90706,20.33565106890445,1013.1057724834377,0,,,,N/A,-1
2024-04-02T10:40:28,1.32143628085,-0.16211373114999997,9.896116067949999,0.04520402762665314,-0.004123340357836604,-0.038942658935123484,0.028140000000000005,0.29554,-0.20174,23.5,0,512,377,716,2000,33.7809765625,90706,20.33565106890445,1013.1057724834377,0,,,,N/A,-1
2024-04-02T10:40:28,1.30588293395,-0.1519442351,9.84227755945,0.041080687268816536,-0.0070249502392771765,-0.03497203488683638,0.03122,0.29302000000000006,-0.20664000000000002,23.5,0,512,377,716,2000,33.7809765625,90706,20.33565106890445,1013.1057724834377,0,,,,N/A,-1
2024-04-02T10:40:28,1.3806586402,-0.18364913454999998,9.865607579799999,0.039553524173321496,-0.0119118721448613,-0.038179077387375956,0.029540000000000004,0.29554,-0.20986000000000002,23.5,0,512,377,716,2000,33.861640625,95070,20.393826040646548,1013.0930727118031,0,,,,N/A,-1
2024-04-02T10:40:29,1.31425781305,-0.1459621786,9.8859465719,0.0474947722698957,0.0006108652381980154,-0.040317105721069016,0.027300000000000005,0.30590000000000006,-0.20538000000000003,23.5,0,511,376,712,1996,34.0598828125,98684,20.44907602403418,1013.0844833504607,0,,,,N/A,-1
2024-04-02T10:40:29,1.39441737015,-0.13818550515,10.04207824655,0.043982297150257116,-0.03756821214917795,-0.03726277953007894,0.028140000000000005,0.30282000000000003,-0.20944000000000002,23.5,0,511,376,712,1996,34.0598828125,98684,20.44907602403418,1013.0844833504607,0,,,,N/A,-1
2024-04-02T10:40:29,1.3794622288999998,-0.10827522265,9.853643466800001,0.04703662334124718,-0.004123340357836604,-0.036804630601430424,0.02254,0.29722000000000004,-0.20020000000000002,23.5,0,511,376,712,1996,34.0598828125,98684,20.44907602403418,1013.0844833504607,0,,,,N/A,-1
2024-04-02T10:40:29,1.3591232368,-0.14536397295,9.9170532657,0.043676864531158106,0.0036651914291880926,-0.041386119887915546,0.02758,0.2975,-0.2093,23.5,0,511,376,712,1996,34.1383984375,95772,20.470087767384296,1013.1114931082083,0,,,,N/A,-1
2024-04-02T10:40:29,1.27118700625,-0.14177473905,9.776474937949999,0.04566217655530165,-0.005803219762881146,-0.041996985126113565,0.0357,0.29078000000000004,-0.20076000000000002,23.5,0,511,376,712,1996,34.1383984375,95772,20.470087767384296,1013.1114931082083,0,,,,N/A,-1
2024-04-02T10:40:30,1.3651052932999999,-0.13698909385,10.071390323399998,0.0476474885794452,-0.004276056667386108,-0.04413501345980661,0.030660000000000003,0.29610000000000003,-0.20636000000000002,23.5,1,511,376,711,1993,34.2430859375,98339,20.498122946363342,1013.094511222209,0,,,,N/A,-1
2024-04-02T10:40:30,1.3591232368,-0.008973084749999999,9.896714273599999,0.0433714319120591,-0.004276056667386108,-0.037110063220529434,0.02758,0.30506,-0.2058,23.5,1,511,376,711,1993,34.2430859375,98339,20.498122946363342,1013.094511222209,0,,,,N/A,-1
2024-04-02T10:40:30,1.4147563622499997,-0.13758729949999998,10.019944637499998,0.04596760917440065,0.0009162978572970231,-0.03741549583962844,0.03402,0.30534000000000006,-0.21518,23.5,1,511,376,711,1993,34.2430859375,98339,20.498122946363342,1013.094511222209,0,,,,N/A,-1
2024-04-02T10:40:30,1.23409825595,-0.16151552549999998,9.9625168951,0.04520402762665314,-0.005039638215133627,-0.03924809155422249,0.030660000000000003,0.30338000000000004,-0.22484000000000004,23.5,1,511,376,711,1993,33.921015625,89456,20.48248145754526,1013.1033491095436,0,,,,N/A,-1
2024-04-02T10:40:30,1.2675977723499998,-0.10109675484999998,9.794421107449999,0.0433714319120591,0.0006108652381980154,-0.041080687268816536,0.020860000000000004,0.29442,-0.21434000000000003,23.5,1,511,376,711,1993,33.921015625,89456,20.48248145754526,1013.1033491095436,0,,,,N/A,-1
2024-04-02T10:40:31,1.34416809555,-0.1459621786,9.9565348386,0.04948008429403925,-0.009773843811168246,-0.03756821214917795,0.02758,0.29974,-0.20958000000000002,23.5,1,510,375,710,1990,33.8583203125,93938,20.526134672732947,1013.0876541297163,0,,,,N/A,-1
2024-04-02T10:40:31,1.2843475305499996,-0.12023933564999999,9.843473970749999,0.04306599929296009,-0.008399397025222712,-0.041691552507014555,0.03458000000000001,0.29442,-0.21126000000000003,23.5,1,510,375,710,1990,33.8583203125,93938,20.526134672732947,1013.0876541297163,0,,,,N/A,-1
2024-04-02T10:40:31,1.32023986955,-0.14955141249999998,9.923035322199999,0.041844268816564056,-0.00946841119206924,-0.03466660226773738,0.02926,0.29862,-0.21070000000000003,23.5,1,510,375,710,1989,33.8583203125,93938,20.526134672732947,1013.0876541297163,0,,,,N/A,-1
2024-04-02T10:40:31,1.29032958705,-0.15553346899999998,9.898508890549998,0.04718933965079669,-0.010231992739816757,-0.03787364476827696,0.03318,0.29610000000000003,-0.21000000000000002,23.5,1,510,375,710,1989,33.5887890625,86788,20.614660860398292,1013.095125225554,0,,,,N/A,-1
2024-04-02T10:40:31,1.3579268255,-0.13160524299999998,9.92482993915,0.04474587869800463,-0.00045814892864851157,-0.041691552507014555,0.023100000000000002,0.29442,-0.18998,23.5,1,510,375,710,1989,33.5887890625,86788,20.614660860398292,1013.095125225554,0,,,,N/A,-1
2024-04-02T10:40:32,1.2891331757499997,-0.07776673449999999,9.771091087099999,0.04413501345980661,-0.0056505034533316425,-0.041691552507014555,0.03654,0.29610000000000003,-0.21322000000000002,23.5,0,509,374,709,1985,33.57609375,92904,20.677495487963643,1013.0780072287156,0,,,,N/A,-1
2024-04-02T10:40:32,1.3824532571500001,-0.10827522265,9.923035322199999,0.03787364476827696,0.004581489286485115,-0.07819075048934597,0.03654,0.30366000000000004,-0.19964,23.5,0,509,374,709,1985,33.57609375,92904,20.677495487963643,1013.0780072287156,0,,,,N/A,-1
2024-04-02T10:40:32,1.3734801723999999,-0.12861421474999998,9.83150985775,0.047952921198544204,0.002901609881440573,-0.03772092845872745,0.0371,0.29834000000000005,-0.20860000000000004,23.5,0,509,374,709,1985,33.57609375,92904,20.677495487963643,1013.0780072287156,0,,,,N/A,-1
2024-04-02T10:40:32,1.3028919057,-0.107677017,10.01934643185,0.04214970143566306,0.0015271630954950385,-0.041080687268816536,0.024220000000000002,0.30114,-0.21140000000000003,23.5,0,509,374,709,1985,33.3551953125,85210,20.73733948676815,1013.0960384963295,0,,,,N/A,-1
2024-04-02T10:40:32,1.2658031554,-0.1519442351,9.792626490499998,0.039858956792420505,-0.013133602621257331,-0.03405573702953936,0.03514,0.29358000000000006,-0.20384000000000002,23.5,0,509,374,709,1985,33.3551953125,85210,20.73733948676815,1013.0960384963295,0,,,,N/A,-1
2024-04-02T10:40:33,1.3788640232499998,-0.2967100024,9.93799046345,0.04520402762665314,-0.010079276430267254,-0.039858956792420505,0.028700000000000003,0.29386,-0.20636000000000002,23.5,1,509,374,708,1984,33.3784375,89742,20.786629011205477,1013.0762932767612,0,,,,N/A,-1
2024-04-02T10:40:33,1.3381860390499998,-0.14356935599999998,9.73818977635,0.038789942625573975,-0.007330382858376185,-0.03787364476827696,0.02842,0.2975,-0.20692000000000002,23.5,1,509,374,708,1984,33.3784375,89742,20.786629011205477,1013.0762932767612,0,,,,N/A,-1
2024-04-02T10:40:33,1.3782658175999998,-0.18723836844999997,9.953543810349998,0.04535674393620265,-0.005039638215133627,-0.03726277953007894,0.028700000000000003,0.29554,-0.20650000000000002,23.5,1,509,374,708,1984,33.3784375,89742,20.786629011205477,1013.0762932767612,0,,,,N/A,-1
2024-04-02T10:40:33,1.3040883169999997,-0.107677017,9.7064848769,0.04001167310197001,-0.010384709049366262,-0.04230241774521256,0.027020000000000002,0.30198,-0.1988,23.5,1,509,374,708,1984,33.1846875,83689,20.84292744419649,1013.080782613807,0,,,,N/A,-1
2024-04-02T10:40:33,1.3435698898999997,-0.19920248144999997,9.8680004024,0.04688390703169768,-0.009010262263420728,-0.040622538340168025,0.028700000000000003,0.30114,-0.20972000000000002,23.5,1,508,373,707,1981,33.1846875,83689,20.84292744419649,1013.080782613807,0,,,,N/A,-1
2024-04-02T10:40:33,1.2502498084999998,-0.1387837108,9.7172525786,0.039706240482871004,-0.006719517620178169,-0.04016438941151951,0.03514,0.29358000000000006,-0.21042000000000002,23.5,1,508,373,707,1981,33.23078125,88332,20.904369621076558,1013.0695391460497,0,,,,N/A,-1
2024-04-02T10:40:33,1.3262219260499999,-0.12502498085,9.8333044747,0.04444044607890562,-0.00015271630954950385,-0.03802636107782646,0.037660000000000006,0.2975,-0.20398000000000002,23.5,1,508,373,707,1981,33.23078125,88332,20.904369621076558,1013.0695391460497,0,,,,N/A,-1
2024-04-02T10:40:33,1.36929273285,-0.09032905315,9.9206424996,0.041844268816564056,0.0022907446432425577,-0.038637226316024474,0.03402,0.29414000000000007,-0.20972000000000002,23.5,1,508,373,707,1981,33.23078125,88332,20.904369621076558,1013.0695391460497,0,,,,N/A,-1
2024-04-02T10:40:33,1.3052847283,-0.11246266220000001,9.7818587888,0.043982297150257116,-0.005345070834232635,-0.038637226316024474,0.03178,0.29302000000000006,-0.21252000000000001,23.5,1,508,373,707,1981,33.455390625,93418,20.967017794575593,1013.0685066472809,0,,,,N/A,-1
2024-04-02T10:40:34,1.3220344865,-0.1363908882,9.742975421549998,0.04291328298341058,0.0035124751196385882,-0.03695734691097993,0.027860000000000003,0.29134000000000004,-0.20650000000000002,23.5,1,506,371,704,1973,33.7407421875,95447,21.017837985740453,1013.0581459653756,0,,,,N/A,-1
2024-04-02T10:40:34,1.3788640232499998,-0.1734796385,9.963713306399999,0.0433714319120591,-0.005192354524683131,-0.03298672286269283,0.025900000000000003,0.2947000000000001,-0.20356000000000002,23.5,1,506,371,704,1973,33.734296875,91394,21.01208794141127,1013.0927287420953,0,,,,N/A,-1
2024-04-02T10:40:34,1.29990087745,-0.13998012209999997,9.73101130855,0.040622538340168025,-0.004886921905584123,-0.036499197982331415,0.030100000000000002,0.30422000000000005,-0.2233,23.5,1,506,371,704,1973,33.734296875,91394,21.01208794141127,1013.0927287420953,0,,,,N/A,-1
2024-04-02T10:40:34,1.2675977723499998,-0.1339980656,9.708877699499999,0.04474587869800463,-0.010384709049366262,-0.040317105721069016,0.03514,0.30002000000000006,-0.21280000000000002,23.5,1,506,371,704,1973,33.829609375,94253,21.066335850025144,1013.0768867316459,0,,,,N/A,15
2024-04-02T10:40:34,1.3417752729499999,-0.15912270289999997,9.808179837399999,0.0433714319120591,-0.007635815477475193,-0.036804630601430424,0.028980000000000002,0.29190000000000005,-0.21196,23.5,1,506,371,704,1973,33.829609375,94253,21.066335850025144,1013.0768867316459,0,,,,N/A,-1
2024-04-02T10:40:35,1.3184452525999997,-0.15433705769999997,9.978070242,0.04642575810304917,-0.0024434609527920616,-0.038331793696925465,0.029540000000000004,0.30142,-0.20692000000000002,23.5,1,506,372,705,1974,34.0262890625,97206,21.09542104389722,1013.0621627676219,0,,,,N/A,-1
2024-04-02T10:40:35,1.3190434582499997,-0.14297115034999996,9.789635462249999,0.041080687268816536,-0.009621127501618741,-0.03756821214917795,0.040740000000000005,0.29134000000000004,-0.20146,23.5,1,506,372,705,1974,34.0262890625,97206,21.09542104389722,1013.0621627676219,0,,,,N/A,-1
2024-04-02T10:40:35,1.3842478741,-0.18185451760000002,10.02772131095,0.04566217655530165,-0.010537425358915765,-0.03665191429188092,0.032060000000000005,0.28938,-0.1953,23.5,1,506,372,705,1974,34.0262890625,97206,21.09542104389722,1013.0621627676219,0,,,,N/A,-1
2024-04-02T10:40:35,1.35373938595,-0.18484554585,9.990632560649999,0.04444044607890562,0.0003054326190990077,-0.036804630601430424,0.038500000000000006,0.2891,-0.20104000000000002,23.5,1,506,372,705,1974,33.819453125,90221,21.049684854362447,1013.0837681575821,0,,,,N/A,-1
2024-04-02T10:40:35,1.4931213023999999,-0.12741780345,9.90209812445,0.048716502746291725,0.0044287729769356115,-0.03604104905368291,0.0315,0.29722000000000004,-0.21112000000000003,23.5,1,506,372,705,1974,33.819453125,90221,21.049684854362447,1013.0837681575821,0,,,,N/A,-1
2024-04-02T10:40:36,1.3710873497999998,-0.07537391189999999,9.838688325549999,0.04550946024575215,0.0003054326190990077,-0.0355829001250344,0.028980000000000002,0.29582,-0.19502,23.5,0,504,370,702,1968,33.8141796875,95210,21.081286163775196,1013.0787704259554,0,,,,N/A,-1
2024-04-02T10:40:36,1.38364966845,-0.18364913454999998,9.999605645399999,0.043982297150257116,-0.003207042500539581,-0.04291328298341058,0.028700000000000003,0.28518,-0.21000000000000002,23.5,0,504,370,702,1968,33.8141796875,95210,21.081286163775196,1013.0787704259554,0,,,,N/A,-1
2024-04-02T10:40:36,1.3082757565499998,-0.09750752095,9.8261260069,0.04581489286485116,0.0016798794050445422,-0.038484510006474966,0.02646,0.29862,-0.20272000000000004,23.5,0,504,370,702,1968,33.8141796875,95210,21.081286163775196,1013.0787704259554,0,,,,N/A,-1
2024-04-02T10:40:36,1.3794622288999998,-0.16510475939999997,9.954142015999999,0.04642575810304917,-0.0036651914291880926,-0.040317105721069016,0.032060000000000005,0.2933,-0.20776000000000003,23.5,0,504,370,702,1968,33.5458203125,86699,21.106024376861654,1013.0989251331544,0,,,,N/A,5
2024-04-02T10:40:36,1.3794622288999998,-0.13220344865,9.8991070962,0.04444044607890562,0.002901609881440573,-0.04123340357836604,0.03122,0.30814,-0.21364000000000002,23.5,0,504,370,702,1968,33.521015625,88240,21.15229363793533,1013.1161412316434,0,,,,N/A,-1
2024-04-02T10:40:37,1.3100703735,-0.15433705769999997,9.87697348715,0.0476474885794452,-0.010384709049366262,-0.04306599929296009,0.03374,0.30338000000000004,-0.21098000000000003,23.5,0,503,369,701,1964,33.630390625,92294,21.20753898779819,1013.1089265459274,0,,,,N/A,-1
2024-04-02T10:40:37,1.3064811395999998,-0.07118647234999999,9.821340361699999,0.04505131131710364,0.0003054326190990077,-0.038637226316024474,0.025900000000000003,0.30786,-0.2009,23.5,0,503,369,701,1964,33.630390625,92294,21.20753898779819,1013.1089265459274,0,,,,N/A,-1
2024-04-02T10:40:37,1.2514462198,-0.12741780345,9.775278526649998,0.040317105721069016,-0.010842857978014774,-0.03756821214917795,0.027020000000000002,0.30786,-0.20300000000000004,23.5,0,503,369,701,1964,33.630390625,92294,21.20753898779819,1013.1089265459274,0,,,,N/A,-1
2024-04-02T10:40:37,1.2622139215000001,-0.12263215824999998,9.7340023368,0.0435241482216086,-0.009315694882519735,-0.041386119887915546,0.02926,0.30814,-0.21238,23.5,0,503,369,701,1964,33.532734375,87872,21.227653748522943,1013.120846012091,0,,,,N/A,-1
2024-04-02T10:40:37,1.30229370005,-0.19142580799999998,9.958927661199999,0.04321871560250959,-0.00473420559603462,-0.04077525464971753,0.027300000000000005,0.30562,-0.20762000000000003,23.5,0,503,369,701,1964,33.532734375,87872,21.227653748522943,1013.120846012091,0,,,,N/A,6
2024-04-02T10:40:38,1.3184452525999997,-0.12622139215,9.728020280299999,0.038484510006474966,-0.009773843811168246,-0.038331793696925465,0.027300000000000005,0.2947000000000001,-0.19866000000000003,23.5,0,502,367,699,1958,33.5954296875,92699,21.2798217005169,1013.1023587570475,0,,,,N/A,6
2024-04-02T10:40:38,1.3579268255,-0.13100703735,9.858429112,0.04428772976935611,0.0012217304763960308,-0.04382958084070761,0.025060000000000002,0.29302000000000006,-0.21028000000000002,23.5,0,502,367,699,1958,33.5954296875,92699,21.2798217005169,1013.1023587570475,0,,,,N/A,6
2024-04-02T10:40:38,1.3178470469499999,-0.0849452023,9.84706320465,0.04382958084070761,-0.0038179077387375964,-0.04123340357836604,0.025900000000000003,0.30506,-0.19390000000000002,23.5,0,502,367,699,1958,33.3567578125,85296,21.30114040647318,1013.1130146039557,0,,,,N/A,6
2024-04-02T10:40:38,1.29511523225,-0.11665010174999998,9.799206752649999,0.041386119887915546,-0.0027488935718910697,-0.04276056667386108,0.030660000000000003,0.30338000000000004,-0.20916,23.5,0,502,367,699,1958,33.3567578125,85296,21.30114040647318,1013.1130146039557,0,,,,N/A,6
2024-04-02T10:40:38,1.3854442854,-0.12861421474999998,9.993025383249998,0.04260785036431157,-0.0016798794050445422,-0.04382958084070761,0.03374,0.30226000000000003,-0.21126000000000003,23.5,0,502,367,699,1958,33.3860546875,88148,21.351081751326305,1013.1085662249884,0,,,,N/A,-1
2024-04-02T10:40:38,1.3794622288999998,-0.12083754129999999,9.89372324535,0.04703662334124718,0.0003054326190990077,-0.038942658935123484,0.028140000000000005,0.30534000000000006,-0.19628000000000004,23.5,0,502,367,699,1958,33.3860546875,88148,21.351081751326305,1013.1085662249884,0,,,,N/A,-1
2024-04-02T10:40:38,1.3016954943999999,-0.11904292434999998,9.762716207999999,0.03207042500539581,-0.008704829644321718,-0.038637226316024474,0.027020000000000002,0.3017,-0.2058,23.5,0,502,367,699,1958,33.537421875,92699,21.40393246022189,1013.0996422073565,0,,,,N/A,-1
2024-04-02T10:40:38,1.3764712006499997,-0.13339985995,9.848857821599998,0.04306599929296009,0.0012217304763960308,-0.039858956792420505,0.03262,0.30198,-0.19572000000000003,23.5,0,502,367,699,1958,33.537421875,92699,21.40393246022189,1013.0996422073565,0,,,,N/A,-1
2024-04-02T10:40:38,1.3447663011999997,-0.10348957745,9.78724263965,0.04703662334124718,0.0016798794050445422,-0.036499197982331415,0.037660000000000006,0.30870000000000003,-0.20888,23.5,0,502,367,699,1958,33.7782421875,95210,21.452211112805248,1013.1013096076564,0,,,,N/A,-1
2024-04-02T10:40:39,1.3088739621999996,-0.11904292434999998,9.91286582615,0.04214970143566306,-0.007788531787024696,-0.038179077387375956,0.02478,0.30702,-0.21784000000000003,23.5,1,501,367,699,1956,34.0419140625,96429,21.496779621438368,1013.0894608720508,0,,,,N/A,-1
2024-04-02T10:40:39,1.2669995667,-0.11306086784999998,9.822536773,0.043982297150257116,0.0003054326190990077,-0.03665191429188092,0.035980000000000005,0.30674,-0.20944000000000002,23.5,1,501,367,699,1956,34.0419140625,96429,21.496779621438368,1013.0894608720508,0,,,,N/A,-1
2024-04-02T10:40:39,1.33698962775,-0.16869399329999998,9.7651090306,0.04214970143566306,-0.0038179077387375964,-0.03527746750593539,0.03374,0.30198,-0.21042000000000002,23.5,1,501,367,699,1956,34.0419140625,96429,21.496779621438368,1013.0894608720508,0,,,,N/A,-1
2024-04-02T10:40:39,1.2622139215000001,-0.11066804524999999,9.772287498399999,0.04153883619746505,-0.006719517620178169,-0.03802636107782646,0.03626000000000001,0.29778000000000004,-0.20496,23.5,1,501,367,699,1956,34.292890625,98569,21.513820668223673,1013.0944976174657,0,,,,N/A,-1
2024-04-02T10:40:39,1.3974083984,-0.16929219894999997,10.016953609249999,0.04444044607890562,-0.0035124751196385882,-0.04245513405476207,0.03402,0.3003,-0.20412000000000002,23.5,1,501,367,699,1956,34.292890625,98569,21.513820668223673,1013.0944976174657,0,,,,N/A,-1
2024-04-02T10:40:40,1.3824532571500001,-0.13339985995,9.905089152699999,0.04596760917440065,0.001069014166846527,-0.04092797095926703,0.030660000000000003,0.30114,-0.20020000000000002,23.5,1,501,368,701,1958,34.502265625,101108,21.522713665424536,1013.0856042806405,0,,,,N/A,-1
2024-04-02T10:40:40,1.3405788616499998,-0.16091731985,9.823733184299998,0.04718933965079669,-0.004276056667386108,-0.038331793696925465,0.032900000000000006,0.29694000000000004,-0.19782000000000002,23.5,1,501,368,701,1958,34.502265625,101108,21.522713665424536,1013.0856042806405,0,,,,N/A,-1
2024-04-02T10:40:40,1.3423734785999997,-0.17766707805,10.057033387799999,0.04627304179349966,-0.008552113334772215,-0.038942658935123484,0.03178,0.29890000000000005,-0.21070000000000003,23.5,1,499,367,700,1954,34.1145703125,91493,21.341402604720013,1013.0960868198985,0,,,,N/A,-1
2024-04-02T10:40:40,1.3351950108,-0.1112662509,9.84945602725,0.04520402762665314,0.0,-0.03787364476827696,0.032060000000000005,0.2975,-0.19558,23.5,1,499,367,700,1954,34.1145703125,91493,21.341402604720013,1013.0960868198985,0,,,,N/A,-1
2024-04-02T10:40:40,1.34416809555,-0.11365907349999999,9.772287498399999,0.041844268816564056,-0.003054326190990077,-0.036193765363232405,0.03458000000000001,0.30310000000000004,-0.20748000000000003,23.5,1,499,367,700,1954,34.01515625,93521,21.356059753285912,1013.1035596082729,0,,,,N/A,-1
2024-04-02T10:40:41,1.36929273285,-0.14237294469999998,10.006185907549998,0.041996985126113565,-0.011606439525762293,-0.04046982203061852,0.02562,0.29358000000000006,-0.20202,23.5,1,501,368,702,1959,34.0628125,97374,21.369954701419477,1013.0874582073924,0,,,,N/A,-1
2024-04-02T10:40:41,1.2921242039999998,-0.1292124204,9.80518880915,0.04306599929296009,-0.0027488935718910697,-0.03787364476827696,0.028700000000000003,0.28714000000000006,-0.20706000000000002,23.5,1,501,368,702,1959,34.0628125,97374,21.369954701419477,1013.0874582073924,0,,,,N/A,-1
2024-04-02T10:40:41,1.27597265145,-0.1579262916,9.86620578545,0.04001167310197001,-0.00946841119206924,-0.03665191429188092,0.03486000000000001,0.29498,-0.21532,23.5,1,501,368,702,1959,34.0628125,97374,21.369954701419477,1013.0874582073924,0,,,,N/A,-1
2024-04-02T10:40:41,1.2448659576499999,-0.1459621786,9.74776106675,0.04413501345980661,-0.012217304763960308,-0.038484510006474966,0.03486000000000001,0.29834000000000005,-0.21098000000000003,23.5,1,501,368,702,1959,33.8516796875,90609,21.30769049623467,1013.103883299887,0,,,,N/A,-1
2024-04-02T10:40:41,1.3549357972499998,-0.14237294469999998,9.985248709799999,0.047952921198544204,-0.0015271630954950385,-0.0006108652381980154,0.03654,0.29890000000000005,-0.21098000000000003,23.5,1,501,368,702,1959,33.8516796875,90609,21.30769049623467,1013.103883299887,0,,,,N/A,-1
2024-04-02T10:40:42,1.3621142650499998,-0.07716852884999999,9.83390268035,0.04291328298341058,-0.0019853120241435504,-0.03497203488683638,0.026180000000000002,0.2975,-0.21420000000000003,23.5,1,501,368,701,1956,33.8378125,95070,21.322765926907408,1013.0794478805948,0,,,,N/A,-1
2024-04-02T10:40:42,1.3974083984,-0.16630117069999997,9.9517491934,0.04627304179349966,0.0013744467859455349,-0.03726277953007894,0.033460000000000004,0.29806,-0.21266000000000002,23.5,1,501,368,701,1956,33.8378125,95070,21.322765926907408,1013.0794478805948,0,,,,N/A,-1
2024-04-02T10:40:42,1.3842478741,-0.11784651304999999,9.90688376965,0.050396382151336266,-0.0015271630954950385,-0.04016438941151951,0.03262,0.29946000000000006,-0.19558,23.5,1,501,368,701,1956,33.8378125,95070,21.322765926907408,1013.0794478805948,0,,,,N/A,-1
2024-04-02T10:40:42,1.3447663011999997,-0.15134602945,9.913464031799998,0.04306599929296009,-0.0038179077387375964,-0.03924809155422249,0.03654,0.2975,-0.20552,23.5,1,501,368,701,1956,33.5534375,87056,21.277007234117374,1013.0843070217247,0,,,,N/A,-1
2024-04-02T10:40:42,1.2699905949499997,-0.1112662509,9.819545744749998,0.041996985126113565,-0.0015271630954950385,-0.041691552507014555,0.03262,0.29694000000000004,-0.20664000000000002,23.5,1,501,368,701,1956,33.5534375,87056,21.277007234117374,1013.0843070217247,0,,,,N/A,-1
2024-04-02T10:40:43,1.31306140175,-0.1483550012,9.959525866849997,0.04428772976935611,-0.008857545953871223,-0.03634648167278191,0.03122,0.30338000000000004,-0.22022000000000003,23.5,0,500,368,700,1953,33.5247265625,92092,21.307070191606183,1013.0680942851352,0,,,,N/A,-1
2024-04-02T10:40:43,1.2634103328,-0.1280160091,9.815956510849999,0.043982297150257116,-0.003054326190990077,-0.03756821214917795,0.03542,0.29554,-0.21168,23.5,0,500,368,700,1953,33.5247265625,92092,21.307070191606183,1013.0680942851352,0,,,,N/A,-1
2024-04-02T10:40:43,1.28793676445,-0.0765703232,9.7938229018,0.04428772976935611,-0.0035124751196385882,-0.03802636107782646,0.028700000000000003,0.30478000000000005,-0.21126000000000003,23.5,0,500,368,700,1953,33.2852734375,85469,21.307010173281032,1013.08642298229,0,,,,N/A,-1
2024-04-02T10:40:43,1.3040883169999997,-0.13100703735,9.705886671250001,0.04413501345980661,0.003054326190990077,-0.041844268816564056,0.028700000000000003,0.2975,-0.20622000000000001,23.5,0,500,368,700,1953,33.2852734375,85469,21.307010173281032,1013.08642298229,0,,,,N/A,-1
2024-04-02T10:40:43,1.4045868662,-0.10648060570000001,9.9756774194,0.04306599929296009,-0.0013744467859455349,-0.04306599929296009,0.0315,0.30366000000000004,-0.21476,23.5,0,500,368,700,1953,33.318671875,88425,21.33589726088772,1013.0922875149034,0,,,,N/A,-1
2024-04-02T10:40:43,1.3663017045999997,-0.12203395259999998,9.955338427300001,0.04505131131710364,-0.0025961772623415654,-0.039095375244672985,0.03542,0.29638000000000003,-0.20804000000000003,23.5,0,500,368,700,1953,33.318671875,88425,21.33589726088772,1013.0922875149034,0,,,,N/A,-1
2024-04-02T10:40:43,1.2981062605,-0.09810572659999998,9.7962157244,0.04230241774521256,-0.005039638215133627,-0.03802636107782646,0.034300000000000004,0.29526,-0.2009,23.5,0,500,368,700,1953,33.47375,92496,21.383641184467905,1013.0822526462144,0,,,,N/A,-1
2024-04-02T10:40:43,1.30349011135,-0.12382856954999999,9.877571692799998,0.04214970143566306,-0.0003054326190990077,-0.041080687268816536,0.02926,0.28574,-0.21140000000000003,23.5,0,500,368,700,1953,33.47375,92496,21.383641184467905,1013.0822526462144,0,,,,N/A,-1
2024-04-02T10:40:43,1.25443724805,-0.09870393224999999,9.7459664498,0.04444044607890562,-0.004581489286485115,-0.036804630601430424,0.026740000000000003,0.30254000000000003,-0.20706000000000002,23.5,0,500,367,699,1951,33.7223828125,94169,21.427078569300356,1013.0877149994034,0,,,,N/A,-1
2024-04-02T10:40:44,1.3178470469499999,-0.08434699664999999,9.856634495049999,0.043982297150257116,0.0009162978572970231,-0.038789942625573975,0.03458000000000001,0.2905,-0.20692000000000002,23.5,0,500,367,699,1951,33.9950390625,98053,21.456191046232412,1013.0833692521462,0,,,,N/A,-1
2024-04-02T10:40:44,1.3345968051500001,-0.18005990065000002,9.919446088299999,0.04245513405476207,-0.00916297857297023,-0.040317105721069016,0.03122,0.29386,-0.21924000000000002,23.5,0,500,367,699,1951,33.9950390625,98053,21.456191046232412,1013.0833692521462,0,,,,N/A,-1
2024-04-02T10:40:44,1.5278172300999997,-0.1363908882,9.93799046345,0.047952921198544204,0.0024434609527920616,-0.038942658935123484,0.028700000000000003,0.30478000000000005,-0.21070000000000003,23.5,0,500,367,699,1951,33.9950390625,98053,21.456191046232412,1013.0833692521462,0,,,,N/A,-1
2024-04-02T10:40:44,1.3280165429999997,-0.16331014244999997,9.943374314299998,0.04581489286485116,-0.008552113334772215,-0.03802636107782646,0.023660000000000004,0.28854,-0.20188000000000003,23.5,0,500,367,699,1951,34.2395703125,98511,21.472761697707433,1013.0978041082183,0,,,,N/A,-1
2024-04-02T10:40:44,1.2969098491999997,-0.11605189609999998,9.7304131029,0.0433714319120591,-0.0070249502392771765,-0.041080687268816536,0.030660000000000003,0.30674,-0.20720000000000002,23.5,0,500,367,699,1951,34.2395703125,98511,21.472761697707433,1013.0978041082183,0,,,,N/A,-1
2024-04-02T10:40:45,1.2753744458,-0.15912270289999997,9.780064171849999,0.04276056667386108,-0.010842857978014774,-0.038331793696925465,0.02926,0.29358000000000006,-0.21546,23.5,1,498,367,698,1947,34.429609375,100446,21.474965112746087,1013.088134169991,0,,,,N/A,-1
2024-04-02T10:40:45,1.3322039825499998,-0.08075776274999999,9.821340361699999,0.04306599929296009,-0.0025961772623415654,-0.038331793696925465,0.035980000000000005,0.29218,-0.20972000000000002,23.5,1,498,367,698,1947,34.429609375,100446,21.474965112746087,1013.088134169991,0,,,,N/A,-1
2024-04-02T10:40:45,1.2352946672499998,-0.014356935599999999,9.7962157244,0.04153883619746505,-0.0119118721448613,-0.041386119887915546,0.023660000000000004,0.29022000000000003,-0.20818,23.5,1,499,367,699,1950,34.429609375,100446,21.474965112746087,1013.088134169991,0,,,,N/A,-1
2024-04-02T10:40:45,1.30349011135,-0.09990034354999999,9.7878408453,0.04673119072214818,-0.006108652381980154,-0.04413501345980661,0.038220000000000004,0.29386,-0.20804000000000003,23.5,1,499,367,699,1950,34.0565625,90804,21.31079828010952,1013.1007259740502,0,,,,N/A,-1
2024-04-02T10:40:45,1.3268201317,-0.1878365741,9.9158568544,0.03604104905368291,-0.013286318930806834,-0.038484510006474966,0.030100000000000002,0.2975,-0.21532,23.5,1,499,367,699,1950,34.0565625,90804,21.31079828010952,1013.1007259740502,0,,,,N/A,-1
2024-04-02T10:40:46,1.3591232368,-0.1363908882,9.917651471349998,0.04657847441259867,0.0018325957145940463,-0.03741549583962844,0.02842,0.28574,-0.20804000000000003,23.5,1,499,367,698,1949,33.9493359375,94889,21.33560822292781,1013.082790057585,0,,,,N/A,-1
2024-04-02T10:40:46,1.3196416639,-0.1806581063,9.9242317335,0.04550946024575215,-0.008704829644321718,-0.038484510006474966,0.04046,0.30058,-0.21084000000000003,23.5,1,499,367,698,1949,33.9493359375,94889,21.33560822292781,1013.082790057585,0,,,,N/A,-1
2024-04-02T10:40:46,1.4021940436,-0.17587246110000002,10.04566748045,0.04276056667386108,-0.004581489286485115,-0.03802636107782646,0.02926,0.29946000000000006,-0.20020000000000002,23.5,1,499,367,698,1949,33.9493359375,94889,21.33560822292781,1013.082790057585,0,,,,N/A,-1
2024-04-02T10:40:46,1.3531411802999997,-0.13160524299999998,9.938588669099998,0.04230241774521256,-0.01114829059711378,-0.03787364476827696,0.024500000000000004,0.29890000000000005,-0.20398000000000002,23.5,1,499,367,698,1949,33.6313671875,87690,21.2822312035158,1013.0924825578034,0,,,,N/A,-1
2024-04-02T10:40:46,1.2873385588,-0.12562318649999998,9.860223728949999,0.040317105721069016,-0.0015271630954950385,-0.040622538340168025,0.029820000000000003,0.30422000000000005,-0.20174,23.5,1,499,367,698,1949,33.6313671875,87690,21.2822312035158,1013.0924825578034,0,,,,N/A,-1
2024-04-02T10:40:47,1.2705888005999997,-0.12861421474999998,9.739386187649998,0.04413501345980661,-0.007330382858376185,-0.040317105721069016,0.03626000000000001,0.30086,-0.20860000000000004,23.5,1,499,367,698,1948,33.57921875,92294,21.305394078067355,1013.0831088584195,0,,,,N/A,-1
2024-04-02T10:40:47,1.3423734785999997,-0.1483550012,9.9649097177,0.04948008429403925,0.005803219762881146,-0.04153883619746505,0.03262,0.29918,-0.1953,23.5,1,499,367,698,1948,33.57921875,92294,21.305394078067355,1013.0831088584195,0,,,,N/A,-1
2024-04-02T10:40:47,1.3417752729499999,-0.0873380249,9.767501853199999,0.043982297150257116,-0.0024434609527920616,-0.03772092845872745,0.03262,0.30338000000000004,-0.21700000000000003,23.5,1,499,367,698,1948,33.57921875,92294,21.305394078067355,1013.0831088584195,0,,,,N/A,-1
2024-04-02T10:40:47,1.3507483577,-0.13459627124999998,9.884750160599998,0.04566217655530165,0.0003054326190990077,-0.038942658935123484,0.021700000000000004,0.29610000000000003,-0.2023,23.5,0,499,367,698,1947,33.3346875,85469,21.273018756618686,1013.0877912393057,0,,,,N/A,-1
2024-04-02T10:40:47,1.3160524299999998,-0.18664016279999998,9.8680004024,0.04673119072214818,-0.008552113334772215,-0.03634648167278191,0.03514,0.29834000000000005,-0.19992000000000001,23.5,0,499,367,698,1947,33.3346875,85469,21.273018756618686,1013.0877912393057,0,,,,N/A,-1
2024-04-02T10:40:48,1.4249258582999997,-0.13579268255,9.9984092341,0.041844268816564056,-0.00015271630954950385,-0.039400807863771994,0.042980000000000004,0.30562,-0.21098000000000003,23.5,1,498,365,695,1942,33.3425,87236,21.326834491162327,1013.109564497316,0,,,,N/A,-1
2024-04-02T10:40:48,1.3423734785999997,-0.15912270289999997,9.870991430649998,0.04627304179349966,-0.0119118721448613,-0.036804630601430424,0.0357,0.30086,-0.20202,23.5,1,498,365,695,1942,33.3425,87236,21.326834491162327,1013.109564497316,0,,,,N/A,-1
2024-04-02T10:40:48,1.3621142650499998,-0.2009970984,9.921240705249998,0.04092797095926703,-0.006719517620178169,-0.03588833274413341,0.03794,0.29582,-0.20510000000000003,23.5,1,498,365,695,1942,33.1696484375,83276,21.352552338416388,1013.119308158283,0,,,,N/A,-1
2024-04-02T10:40:48,1.3758729949999997,-0.16869399329999998,9.9960164115,0.039706240482871004,-0.006719517620178169,-0.038789942625573975,0.03458000000000001,0.31318,-0.21084000000000003,23.5,1,498,365,695,1942,33.1696484375,83276,21.352552338416388,1013.119308158283,0,,,,N/A,-1
2024-04-02T10:40:48,1.2699905949499997,-0.14656038424999998,9.7686982645,0.04245513405476207,-0.007330382858376185,-0.038637226316024474,0.02842,0.29526,-0.21336000000000002,23.5,1,498,365,695,1942,33.2231640625,88332,21.40945453538461,1013.0985606620908,0,,,,N/A,-1
2024-04-02T10:40:48,1.28793676445,-0.07597211755,9.785448022699999,0.04535674393620265,-0.0068722339297276735,-0.04001167310197001,0.043820000000000005,0.30842,-0.19348,23.5,1,498,365,695,1942,33.2231640625,88332,21.40945453538461,1013.0985606620908,0,,,,N/A,-1
2024-04-02T10:40:48,1.3770694062999997,-0.19740786449999997,9.986445121099997,0.04444044607890562,-0.0036651914291880926,-0.036499197982331415,0.0371,0.29162,-0.21112000000000003,23.5,1,498,365,695,1942,33.44953125,92193,21.456708695630223,1013.0841861840531,0,,,,N/A,-1
2024-04-02T10:40:48,1.2352946672499998,-0.15014961815,9.869795019349999,0.03772092845872745,-0.009315694882519735,-0.040317105721069016,0.03514,0.3073,-0.21252000000000001,23.5,1,499,366,696,1944,33.44953125,92193,21.456708695630223,1013.0841861840531,0,,,,N/A,-1
2024-04-02T10:40:48,1.3435698898999997,-0.2009970984,9.930213789999998,0.04260785036431157,-0.009621127501618741,-0.04214970143566306,0.028700000000000003,0.30002000000000006,-0.20174,23.5,1,499,366,696,1944,33.733125,94591,21.50257412330482,1013.0745791259485,0,,,,N/A,-1
2024-04-02T10:40:49,1.3184452525999997,-0.11964112999999998,9.772287498399999,0.03802636107782646,-0.0119118721448613,-0.03924809155422249,0.04046,0.29582,-0.22050000000000003,23.5,1,499,366,696,1944,34.0221875,97150,21.543559797901445,1013.071714813159,0,,,,N/A,-1
2024-04-02T10:40:49,1.3351950108,-0.11485548479999999,9.8751788702,0.04444044607890562,0.005039638215133627,-0.03497203488683638,0.03178,0.29862,-0.22372000000000003,23.5,1,499,366,696,1944,34.0221875,97150,21.543559797901445,1013.071714813159,0,,,,N/A,-1
2024-04-02T10:40:49,1.2909277927,-0.11186445655,9.8189475391,0.04566217655530165,-0.006261368691529657,-0.038942658935123484,0.029540000000000004,0.30394000000000004,-0.21630000000000002,23.5,1,499,366,696,1944,34.0221875,97150,21.543559797901445,1013.071714813159,0,,,,N/A,-1
2024-04-02T10:40:49,1.32741833735,-0.08195417405,9.772287498399999,0.039858956792420505,-0.008399397025222712,-0.03787364476827696,0.032060000000000005,0.30086,-0.19866000000000003,23.5,1,499,366,696,1944,34.2034375,95990,21.539835315870363,1013.0984433282866,0,,,,N/A,-1
2024-04-02T10:40:49,1.3166506356499998,-0.1483550012,9.869795019349999,0.04001167310197001,-0.01145372321621279,-0.03497203488683638,0.03234,0.29498,-0.21798,23.5,1,499,366,696,1944,34.2034375,95990,21.539835315870363,1013.0984433282866,0,,,,N/A,-1
2024-04-02T10:40:50,1.34536450685,-0.1579262916,9.975079213749998,0.04153883619746505,-0.0009162978572970231,-0.03924809155422249,0.025900000000000003,0.29946000000000006,-0.20034000000000002,23.5,0,499,366,696,1945,34.34640625,98800,21.544213295275515,1013.0914961605206,0,,,,N/A,-1
2024-04-02T10:40:50,1.3232308977999998,-0.18723836844999997,9.9146604431,0.04153883619746505,-0.009010262263420728,-0.038179077387375956,0.04046,0.28602000000000005,-0.20958000000000002,23.5,1,499,366,696,1945,34.34640625,98800,21.544213295275515,1013.0914961605206,0,,,,N/A,-1
2024-04-02T10:40:50,1.3782658175999998,-0.13698909385,9.932606612599997,0.0433714319120591,-0.008399397025222712,-0.038179077387375956,0.0357,0.28602000000000005,-0.21406000000000003,23.5,1,499,366,696,1945,34.34640625,98800,21.544213295275515,1013.0914961605206,0,,,,N/A,-1
2024-04-02T10:40:50,1.32143628085,-0.30508488149999996,9.930213789999998,0.04321871560250959,-0.004581489286485115,-0.03772092845872745,0.03318,0.29190000000000005,-0.20048000000000002,23.5,1,499,366,696,1945,33.98390625,89646,21.40201481937885,1013.0976904423324,0,,,,N/A,-1
2024-04-02T10:40:50,1.3399806559999998,-0.13220344865,9.7818587888,0.04077525464971753,-0.0007635815477475193,-0.04214970143566306,0.037660000000000006,0.29554,-0.19866000000000003,23.5,1,499,366,696,1945,33.98390625,89646,21.40201481937885,1013.0976904423324,0,,,,N/A,-1
2024-04-02T10:40:51,1.35972144245,-0.11365907349999999,9.865607579799999,0.04276056667386108,-0.0006108652381980154,-0.039858956792420505,0.027860000000000003,0.30310000000000004,-0.20412000000000002,23.5,0,499,366,696,1945,33.8852734375,94043,21.432739811240967,1013.0793095094982,0,,,,N/A,-1
2024-04-02T10:40:51,1.3980066040499999,-0.16929219894999997,9.8380901199,0.041844268816564056,-0.011301006906663285,-0.03543018381548489,0.03122,0.29498,-0.20944000000000002,23.5,0,499,366,696,1945,33.8852734375,94043,21.432739811240967,1013.0793095094982,0,,,,N/A,-1
2024-04-02T10:40:51,1.4165509792000002,-0.14177473905,10.006784113199998,0.04535674393620265,-0.001069014166846527,-0.039858956792420505,0.032060000000000005,0.2933,-0.20202,23.5,0,499,366,696,1945,33.8852734375,94043,21.432739811240967,1013.0793095094982,0,,,,N/A,-1
2024-04-02T10:40:51,1.3926227532000002,-0.1734796385,9.944570725599998,0.040317105721069016,0.00045814892864851157,-0.039553524173321496,0.02758,0.29946000000000006,-0.20048000000000002,23.5,0,499,366,696,1945,33.5735546875,86432,21.401030273713577,1013.0900950888908,0,,,,N/A,-1
2024-04-02T10:40:51,1.2927224096499998,-0.0765703232,9.789037256599999,0.04077525464971753,-0.0022907446432425577,-0.03527746750593539,0.03486000000000001,0.29610000000000003,-0.20300000000000004,23.5,0,499,366,696,1945,33.5735546875,86432,21.401030273713577,1013.0900950888908,0,,,,N/A,-1
2024-04-02T10:40:52,1.3908281362499997,-0.1579262916,9.943374314299998,0.04642575810304917,-0.003970624048287101,-0.04260785036431157,0.03458000000000001,0.30310000000000004,-0.20748000000000003,23.5,1,499,366,696,1946,33.528828125,91000,21.44604676173591,1013.0729870132124,0,,,,N/A,-1
2024-04-02T10:40:52,1.32502551475,-0.09511469834999998,9.810572659999998,0.04657847441259867,-0.004276056667386108,-0.04046982203061852,0.034300000000000004,0.29358000000000006,-0.21350000000000002,23.5,1,499,366,697,1947,33.284296875,84527,21.45090429367455,1013.0812223875765,0,,,,N/A,-1
2024-04-02T10:40:52,1.37288196675,-0.13938191645,9.8548398781,0.04703662334124718,-0.0007635815477475193,-0.04444044607890562,0.026180000000000002,0.29582,-0.21098000000000003,23.5,1,499,366,697,1947,33.284296875,84527,21.45090429367455,1013.0812223875765,0,,,,N/A,-1
2024-04-02T10:40:52,1.3902299305999999,-0.13220344865,10.08634546465,0.04703662334124718,0.0012217304763960308,-0.04092797095926703,0.028140000000000005,0.2975,-0.20510000000000003,23.5,1,499,366,697,1947,33.295625,88984,21.4890176519558,1013.0654676820214,0,,,,N/A,-1
2024-04-02T10:40:52,1.2610175101999996,-0.13698909385,9.803394192199999,0.041080687268816536,-0.0070249502392771765,-0.038179077387375956,0.026740000000000003,0.28714000000000006,-0.21756000000000003,23.5,1,499,366,697,1947,33.295625,88984,21.4890176519558,1013.0654676820214,0,,,,N/A,-1
2024-04-02T10:40:53,1.3698909385,-0.11665010174999998,9.858429112,0.039706240482871004,-0.0015271630954950385,-0.038637226316024474,0.03458000000000001,0.29582,-0.20720000000000002,23.5,1,500,368,698,1950,33.4860546875,92699,21.533920120899772,1013.0608643954221,0,,,,N/A,-1
2024-04-02T10:40:53,1.3788640232499998,-0.1579262916,9.9684989516,0.043676864531158106,-0.007330382858376185,-0.03772092845872745,0.030940000000000002,0.29078000000000004,-0.21140000000000003,23.5,1,500,368,698,1950,33.4860546875,92699,21.533920120899772,1013.0608643954221,0,,,,N/A,-1
2024-04-02T10:40:53,1.4213366244,-0.12083754129999999,9.936195846499999,0.049021935365390734,0.00015271630954950385,-0.03665191429188092,0.03318,0.30282000000000003,-0.20202,23.5,1,500,368,698,1950,33.4860546875,92699,21.533920120899772,1013.0608643954221,0,,,,N/A,-1
2024-04-02T10:40:53,1.3082757565499998,-0.16630117069999997,9.80399239785,0.04520402762665314,-0.0070249502392771765,-0.03756821214917795,0.030380000000000004,0.30086,-0.19936,23.5,1,500,368,698,1950,33.29875,86255,21.48922855553376,1013.0777826943985,0,,,,N/A,-1
2024-04-02T10:40:53,1.3950155758,-0.1088734283,9.959525866849997,0.04657847441259867,-0.0003054326190990077,-0.039400807863771994,0.030100000000000002,0.29386,-0.21490000000000004,23.5,1,500,368,698,1950,33.29875,86255,21.48922855553376,1013.0777826943985,0,,,,N/A,-1
2024-04-02T10:40:53,1.24008031245,-0.18185451760000002,9.785448022699999,0.04520402762665314,-0.012064588454410803,-0.039095375244672985,0.03794,0.29442,-0.2023,23.5,1,500,368,698,1950,33.3360546875,90609,21.529111610783193,1013.0665848003107,0,,,,N/A,-1
2024-04-02T10:40:53,1.2837493248999998,-0.18843477974999998,9.871589636299998,0.04520402762665314,-0.006261368691529657,-0.04245513405476207,0.037380000000000004,0.30142,-0.21518,23.5,1,498,367,697,1948,33.3360546875,90609,21.529111610783193,1013.0665848003107,0,,,,N/A,-1
2024-04-02T10:40:53,1.2837493248999998,-0.14057832774999998,9.9146604431,0.041844268816564056,-0.008552113334772215,-0.039400807863771994,0.0371,0.2947000000000001,-0.21196,23.5,1,498,367,697,1948,33.3360546875,90609,21.529111610783193,1013.0665848003107,0,,,,N/A,-1
2024-04-02T10:40:53,1.3651052932999999,-0.15852449724999998,9.8979106849,0.04046982203061852,-0.010842857978014774,-0.038484510006474966,0.03178,0.30394000000000004,-0.20286,23.5,1,498,367,697,1948,33.5450390625,95210,21.553939376927637,1013.0633816164532,0,,,,N/A,-1
2024-04-02T10:40:54,1.3148560187,-0.17228322719999997,9.835697297299998,0.04276056667386108,-0.008093964406123704,-0.0355829001250344,0.03122,0.30198,-0.21140000000000003,23.5,1,498,367,697,1948,33.8137890625,96209,21.58821449509401,1013.0546768057796,0,,,,N/A,-1
2024-04-02T10:40:54,1.3112667848,-0.08673981925,9.825527801249999,0.0435241482216086,0.00045814892864851157,-0.03543018381548489,0.03234,0.30142,-0.20636000000000002,23.5,1,498,367,697,1948,33.93546875,94043,21.575098387388405,1013.0908413493818,0,,,,N/A,-1
2024-04-02T10:40:54,1.3788640232499998,-0.17527425545,10.091729315499999,0.047952921198544204,0.0022907446432425577,-0.03741549583962844,0.028700000000000003,0.29610000000000003,-0.20510000000000003,23.5,0,497,366,696,1945,33.93546875,94043,21.575098387388405,1013.0908413493818,0,,,,N/A,-1
2024-04-02T10:40:54,1.3854442854,-0.19980068709999999,9.96191868945,0.040622538340168025,-0.0038179077387375964,-0.040622538340168025,0.030380000000000004,0.29022000000000003,-0.19726000000000002,23.5,0,497,366,696,1945,34.0669140625,95017,21.57869178150025,1013.0851249476482,0,,,,N/A,-1
2024-04-02T10:40:54,1.3651052932999999,-0.0741775006,9.95115098775,0.0433714319120591,0.0019853120241435504,-0.0007635815477475193,0.029820000000000003,0.28714000000000006,-0.20944000000000002,23.5,0,497,366,696,1945,34.255,99265,21.596855985039305,1013.0832510122308,0,,,,N/A,-1
2024-04-02T10:40:55,1.26161571585,-0.08853443620000001,9.7567341515,0.04123340357836604,-0.0009162978572970231,-0.04321871560250959,0.03234,0.29274,-0.21518,23.5,0,500,369,699,1954,34.46046875,100148,21.610879521800676,1013.0969184671933,0,,,,N/A,-1
2024-04-02T10:40:55,1.39441737015,-0.14057832774999998,9.938588669099998,0.047952921198544204,-0.0027488935718910697,-0.03466660226773738,0.03514,0.28854,-0.20244000000000004,23.5,0,500,369,699,1954,34.46046875,100148,21.610879521800676,1013.0969184671933,0,,,,N/A,-1
