Timestamp,Accel_X,Accel_Y,Accel_Z,Gyro_X,Gyro_Y,Gyro_Z,Mag_X,Mag_Y,Mag_Z,LSM9DS1_Temp,Proximity,Color_R,Color_G,Color_B,Color_C,BME680_Temp,Gas,Humidity,Pressure,Switch_Pressed
2024-03-17T10:07:13,-0.3002992363,0.01256231865,9.880562721050001,0.01863138976503947,0.02260201381332657,0.08582656596682116,0.030940000000000002,0.47530000000000006,-0.4601800000000001,19.5,0,0,0,0,0,33.574921875,126121,100,695.662002676745,0
2024-03-17T10:07:13,-0.29312076849999996,0.014356935599999999,9.8668039911,0.016035212502697904,0.021227567027381034,0.08735372906231621,0.03122,0.47558000000000006,-0.44702000000000003,19.5,0,0,0,0,0,33.574921875,126121,100,695.662002676745,0
2024-03-17T10:07:13,-0.2715853651,0.007178467799999999,9.8991070962,0.022143864884678056,0.017409659288643436,0.08689558013366769,0.03178,0.4772600000000001,-0.44198000000000004,20.5,0,0,0,0,0,33.574921875,126121,100,695.662002676745,0
2024-03-17T10:07:13,-0.32662028489999995,0.029910282499999996,9.9206424996,0.021991148575128558,0.022449297503777065,0.08536841703817265,0.03178,0.4772600000000001,-0.44198000000000004,20.5,0,0,0,0,0,33.574921875,126121,100,695.662002676745,0
2024-03-17T10:07:13,-0.29312076849999996,0.011964112999999998,9.9565348386,0.01710422666954443,0.02336559536107409,0.08643743120501918,0.03374,0.47082000000000007,-0.45528,20.5,0,0,0,0,0,33.574921875,126121,100,695.662002676745,0
2024-03-17T10:07:13,-0.28594230069999993,0.010767701699999998,9.856634495049999,0.019394971312786988,0.021838432265579053,0.08918632477691024,0.04018000000000001,0.48034000000000004,-0.4459,19.5,0,0,0,0,0,33.574921875,126121,100,695.662002676745,0
2024-03-17T10:07:13,-0.29910282499999996,0.011365907350000001,9.88534836625,0.019547687622336492,0.018784106074588976,0.08659014751456869,0.04018000000000001,0.48034000000000004,-0.4459,19.5,0,0,0,0,0,33.574921875,126121,100,695.662002676745,0
2024-03-17T10:07:13,-0.2739781877,0.0323031051,9.88175913235,0.015118914645400881,0.02336559536107409,0.09010262263420728,0.030660000000000003,0.47362000000000004,-0.44996,20.5,0,0,0,0,0,28.1727734375,43313,24.41878633664595,1000.8809856735596,0
2024-03-17T10:07:13,-0.29132615154999997,0.007178467799999999,9.860223728949999,0.019547687622336492,0.018478673455489966,0.08628471489546968,0.025060000000000002,0.47614000000000006,-0.46046000000000004,19.5,0,0,0,0,0,28.1727734375,43313,24.41878633664595,1000.8809856735596,0
2024-03-17T10:07:13,-0.31286155495,0.01615155255,9.91525864875,0.021227567027381034,0.025198191075668133,0.08414668656177661,0.028980000000000002,0.47642000000000007,-0.44254000000000004,19.5,0,0,0,0,0,28.1727734375,43313,24.41878633664595,1000.8809856735596,0
2024-03-17T10:07:13,-0.3176472001499999,0.008973084749999999,9.91286582615,0.022143864884678056,0.021227567027381034,0.08781187799096472,0.03178,0.47642000000000007,-0.45066,19.5,0,0,0,0,0,28.1727734375,43313,24.41878633664595,1000.8809856735596,0
2024-03-17T10:07:13,-0.2907279459,0.024526431649999996,9.9110712092,0.024434609527920616,0.016035212502697904,0.08567384965727166,0.03178,0.47642000000000007,-0.45066,19.5,0,0,0,0,0,28.1727734375,43313,24.41878633664595,1000.8809856735596,0
2024-03-17T10:07:13,-0.28295127244999996,0.0029910282499999996,9.9744810081,0.018478673455489966,0.02061670178918302,0.08460483549042512,0.03374,0.4781,-0.45654,20.5,0,0,0,0,0,28.1727734375,43313,24.41878633664595,1000.8809856735596,0
2024-03-17T10:07:13,-0.28713871199999996,0.011365907350000001,9.949954576449999,0.021532999646480044,0.019547687622336492,0.08857545953871222,0.032900000000000006,0.47950000000000004,-0.45220000000000005,20.5,0,0,0,0,0,28.1727734375,43313,24.41878633664595,1000.8809856735596,0
2024-03-17T10:07:14,-0.28414768374999994,0.0047856452,9.9373922578,0.021532999646480044,0.021532999646480044,0.08781187799096472,0.032900000000000006,0.47950000000000004,-0.45220000000000005,20.5,0,0,0,0,0,28.414765625,56887,24.517487582256955,1000.8823078736407,0
2024-03-17T10:07:14,-0.2967100024,0.014955141249999998,9.940981491699999,0.019547687622336492,0.02290744643242558,0.08689558013366769,0.03178,0.48426,-0.44898000000000005,20.5,0,0,0,0,0,28.414765625,56887,24.517487582256955,1000.8823078736407,0
2024-03-17T10:07:14,-0.2679961312,-0.007178467799999999,9.92961558435,0.020769418098732523,0.01893682238413848,0.08491026810952414,0.03178,0.48426,-0.44898000000000005,20.5,0,0,0,0,0,28.414765625,56887,24.517487582256955,1000.8823078736407,0
2024-03-17T10:07:14,-0.26979074815,0.0095712904,9.916455060049998,0.021227567027381034,0.021991148575128558,0.08949175739600926,0.028140000000000005,0.48538000000000003,-0.45640000000000003,19.5,0,0,0,0,0,28.414765625,56887,24.517487582256955,1000.8823078736407,0
2024-03-17T10:07:14,-0.30448667585,0.0011964113,9.914062237449999,0.019547687622336492,0.022754730122876075,0.08628471489546968,0.037660000000000006,0.48146000000000005,-0.44996,20.5,0,0,0,0,0,28.414765625,56887,24.517487582256955,1000.8823078736407,0
2024-03-17T10:07:14,-0.30568308715,0.010169496049999999,9.9206424996,0.025198191075668133,0.019242255003237483,0.08781187799096472,0.037660000000000006,0.48146000000000005,-0.44996,20.5,0,0,0,0,0,28.414765625,56887,24.517487582256955,1000.8823078736407,0
2024-03-17T10:07:14,-0.29252256285,0.00658026215,9.9338030239,0.02168571595602955,0.01863138976503947,0.08765916168141522,0.03402,0.4772600000000001,-0.44814000000000004,20.5,0,0,0,0,0,28.414765625,56887,24.517487582256955,1000.8823078736407,0
2024-03-17T10:07:14,-0.29012974025,0.013758729949999998,9.8991070962,0.019394971312786988,0.02260201381332657,0.09025533894375677,0.030380000000000004,0.48482000000000003,-0.46704,20.5,0,0,0,0,0,28.770625,67328,24.60312401307638,1000.8838648813712,0
2024-03-17T10:07:14,-0.30687949845,0.0251246373,9.96909715725,0.022754730122876075,0.020311269170084013,0.08552113334772216,0.030380000000000004,0.47670000000000007,-0.46088000000000007,20.5,0,0,0,0,0,28.770625,67328,24.60312401307638,1000.8838648813712,0
2024-03-17T10:07:14,-0.30209385325,0.014356935599999999,9.953543810349998,0.019853120241435502,0.022449297503777065,0.08689558013366769,0.03794,0.47922000000000003,-0.44954,20.5,0,61,29,27,107,28.770625,67328,24.60312401307638,1000.8838648813712,0
2024-03-17T10:07:14,-0.29252256285,0.022133609050000003,9.9505527821,0.023976460599272102,0.020922134408282028,0.08888089215781124,0.03794,0.47922000000000003,-0.44954,20.5,0,61,29,27,107,28.770625,67328,24.60312401307638,1000.8838648813712,0
2024-03-17T10:07:14,-0.28713871199999996,0.0017946169499999999,9.97986485895,0.023976460599272102,0.02229658119422756,0.08613199858592017,0.028140000000000005,0.47530000000000006,-0.45822,20.5,0,61,29,27,107,28.770625,67328,24.60312401307638,1000.8838648813712,0
2024-03-17T10:07:14,-0.30747770409999997,0.010767701699999998,9.967900745949999,0.02351831167062359,0.02290744643242558,0.08994990632465777,0.0315,0.46942000000000006,-0.43918000000000007,20.5,0,61,29,27,107,28.770625,67328,24.60312401307638,1000.8838648813712,0
2024-03-17T10:07:14,-0.28414768374999994,0.00658026215,10.094720343749998,0.02168571595602955,0.022143864884678056,0.08643743120501918,0.0315,0.46942000000000006,-0.43918000000000007,20.5,0,61,29,27,107,28.770625,67328,24.60312401307638,1000.8838648813712,0
2024-03-17T10:07:14,-0.28175486115,0.015553346899999999,9.95593663295,0.020769418098732523,0.02351831167062359,0.08933904108645975,0.02842,0.47614000000000006,-0.43820000000000003,20.5,0,61,29,27,107,29.149140625,75389,24.68524554873178,1000.8965426430609,0
2024-03-17T10:07:14,-0.31166514365,0.031106693799999998,10.00977514145,0.016798794050445424,0.02336559536107409,0.08842274322916273,0.020300000000000002,0.48006000000000004,-0.45038000000000006,20.5,0,61,29,27,107,29.149140625,75389,24.68524554873178,1000.8965426430609,0
2024-03-17T10:07:14,-0.28534409504999997,0.0263210486,9.936195846499999,0.020005836550985007,0.020922134408282028,0.08994990632465777,0.029820000000000003,0.47558000000000006,-0.45584,20.5,0,61,29,27,107,29.149140625,75389,24.68524554873178,1000.8965426430609,0
2024-03-17T10:07:14,-0.44267218099999994,-0.0029910282499999996,9.9349994352,0.02229658119422756,0.016951510359994926,0.08857545953871222,0.03486000000000001,0.48650000000000004,-0.45598,20.5,0,61,29,27,107,29.149140625,75389,24.68524554873178,1000.8965426430609,0
2024-03-17T10:07:14,-0.26380869165,-0.12861421474999998,9.871589636299998,0.020005836550985007,0.0238237442897226,0.08842274322916273,0.03486000000000001,0.48650000000000004,-0.45598,20.5,0,61,29,27,107,29.149140625,75389,24.68524554873178,1000.8965426430609,0
2024-03-17T10:07:14,-0.2907279459,0.0017946169499999999,9.977472036350001,0.023976460599272102,0.019242255003237483,0.08765916168141522,0.029820000000000003,0.47838,-0.45164000000000004,20.5,0,61,29,27,107,29.149140625,75389,24.68524554873178,1000.8965426430609,0
2024-03-17T10:07:14,-0.2835494781,0.0263210486,9.942177903,0.01863138976503947,0.019089538693687978,0.08842274322916273,0.027860000000000003,0.4772600000000001,-0.4529,20.5,0,61,29,27,107,29.149140625,75389,24.68524554873178,1000.8965426430609,0
2024-03-17T10:07:14,-0.28474588939999995,0.013758729949999998,9.9601240725,0.016951510359994926,0.027183503099811684,0.08735372906231621,0.027860000000000003,0.4772600000000001,-0.4529,20.5,0,61,29,27,107,29.5106640625,81664,24.74462659324017,1000.9025405302716,0
2024-03-17T10:07:14,-0.3212364340499999,0.005982056499999999,9.94157969735,0.020005836550985007,0.02061670178918302,0.0872010127527667,0.024500000000000004,0.47754,-0.4561200000000001,20.5,0,61,29,27,107,29.5106640625,81664,24.74462659324017,1000.9025405302716,0
2024-03-17T10:07:14,-0.2955135911,0.0095712904,9.949954576449999,0.019853120241435502,0.02458732583747012,0.09010262263420728,0.024500000000000004,0.47754,-0.4561200000000001,20.5,0,61,29,27,107,29.5106640625,81664,24.74462659324017,1000.9025405302716,0
2024-03-17T10:07:14,-0.27577280465,0.01974078645,10.006784113199998,0.019700403931885997,0.020922134408282028,0.08964447370555875,0.028700000000000003,0.47978000000000004,-0.44982000000000005,20.5,0,61,29,27,107,29.5106640625,81664,24.74462659324017,1000.9025405302716,0
2024-03-17T10:07:14,-0.28414768374999994,0.1483550012,10.0223374601,0.016798794050445424,0.015577063574049392,0.08857545953871222,0.028140000000000005,0.48146000000000005,-0.4438000000000001,20.5,0,61,29,27,107,29.5106640625,81664,24.74462659324017,1000.9025405302716,0
2024-03-17T10:07:14,-0.28594230069999993,0.013758729949999998,9.829715240799999,0.018173240836390957,0.02260201381332657,0.0870482964432172,0.028140000000000005,0.48146000000000005,-0.4438000000000001,20.5,0,61,29,27,107,29.5106640625,81664,24.74462659324017,1000.9025405302716,0
2024-03-17T10:07:14,-0.27098715944999996,0.010169496049999999,9.979266653299998,0.019242255003237483,0.020311269170084013,0.0870482964432172,0.030660000000000003,0.48062000000000005,-0.45276000000000005,20.5,0,61,29,27,107,29.5106640625,81664,24.74462659324017,1000.9025405302716,0
2024-03-17T10:07:14,-0.28594230069999993,0.020338992099999998,9.98943614935,0.01893682238413848,0.017409659288643436,0.08842274322916273,0.039900000000000005,0.48118000000000005,-0.46088000000000007,20.5,0,61,29,27,107,29.8383984375,86610,24.78534927004535,1000.9248997398245,0
2024-03-17T10:07:14,-0.2584248408,0.025722842949999998,9.979266653299998,0.021838432265579053,0.019853120241435502,0.08888089215781124,0.02646,0.48202000000000006,-0.45108000000000004,20.5,0,61,29,27,107,29.8383984375,86610,24.78534927004535,1000.9248997398245,0
2024-03-17T10:07:14,-0.2883351233,0.005982056499999999,10.077970585549998,0.02290744643242558,0.019547687622336492,0.08659014751456869,0.03402,0.4781,-0.4543000000000001,20.5,0,61,29,27,107,29.8383984375,86610,24.78534927004535,1000.9248997398245,0
2024-03-17T10:07:14,-0.28773691765000003,-0.1459621786,9.963115100749999,0.015118914645400881,0.01710422666954443,0.08536841703817265,0.03402,0.4781,-0.4543000000000001,20.5,0,61,29,27,107,29.8383984375,86610,24.78534927004535,1000.9248997398245,0
2024-03-17T10:07:14,-0.30508488149999996,0.0263210486,9.979266653299998,0.02138028333693054,0.022143864884678056,0.09208793465835081,0.03402,0.48510000000000003,-0.4496800000000001,20.5,0,61,29,27,107,29.8383984375,86610,24.78534927004535,1000.9248997398245,0
2024-03-17T10:07:14,-0.2955135911,0.0029910282499999996,9.99661461715,0.020005836550985007,0.020769418098732523,0.08903360846736075,0.027020000000000002,0.47922000000000003,-0.4529,20.5,0,61,29,27,107,29.8383984375,86610,24.78534927004535,1000.9248997398245,0
2024-03-17T10:07:14,-0.27696921594999996,0.0131605243,9.985846915449999,0.02107485071783153,0.020463985479633514,0.08613199858592017,0.027020000000000002,0.47922000000000003,-0.4529,20.5,0,61,29,27,107,29.8383984375,86610,24.78534927004535,1000.9248997398245,0
2024-03-17T10:07:14,-0.2895315346,0.0191425808,10.000203851049998,0.020311269170084013,0.02138028333693054,0.0867428638241182,0.025340000000000005,0.47642000000000007,-0.43918000000000007,20.5,0,61,29,27,107,30.1284375,91000,24.81248080216721,1000.9287629051902,0
2024-03-17T10:07:14,-0.28773691765000003,0.023330020349999998,9.994221794549999,0.01756237559819294,0.019547687622336492,0.08567384965727166,0.029820000000000003,0.48426,-0.46158000000000005,20.5,0,61,29,27,107,30.1284375,91000,24.81248080216721,1000.9287629051902,0
2024-03-17T10:07:15,-0.32841490184999994,0.005982056499999999,9.975079213749998,0.019394971312786988,0.022143864884678056,0.08903360846736075,0.029820000000000003,0.48426,-0.46158000000000005,20.5,0,61,29,27,107,30.1284375,91000,24.81248080216721,1000.9287629051902,0
2024-03-17T10:07:15,-0.2679961312,0.040677984199999996,9.9373922578,0.018173240836390957,0.018784106074588976,0.08765916168141522,0.028140000000000005,0.48062000000000005,-0.4466,20.5,0,61,29,27,107,30.1284375,91000,24.81248080216721,1000.9287629051902,0
2024-03-17T10:07:15,-0.2955135911,0.011365907350000001,10.006185907549998,0.020769418098732523,0.02306016274197508,0.08918632477691024,0.02758,0.48678000000000005,-0.44688000000000005,20.5,0,61,29,27,107,30.1284375,91000,24.81248080216721,1000.9287629051902,0
2024-03-17T10:07:15,-0.29491538544999996,0.01854437515,10.02054284315,0.018173240836390957,0.023976460599272102,0.08613199858592017,0.02758,0.48678000000000005,-0.44688000000000005,20.5,0,61,29,27,107,30.1284375,91000,24.81248080216721,1000.9287629051902,0
2024-03-17T10:07:15,-0.28414768374999994,0.011964112999999998,10.01456078665,0.020769418098732523,0.02306016274197508,0.08353582132357862,0.028980000000000002,0.48510000000000003,-0.45402000000000003,20.5,0,61,29,27,107,30.1284375,91000,24.81248080216721,1000.9287629051902,0
2024-03-17T10:07:15,-0.2979064137,0.014356935599999999,9.9888379437,0.01863138976503947,0.023671027980173096,0.0872010127527667,0.030940000000000002,0.48146000000000005,-0.46004,20.5,0,61,29,27,107,30.381171875,94782,24.809685026883255,1000.9364158101379,0
2024-03-17T10:07:15,-0.2787638329,-0.0029910282499999996,10.0354979844,0.02290744643242558,0.02336559536107409,0.0870482964432172,0.023100000000000002,0.48426,-0.45276000000000005,20.5,0,61,29,27,107,30.381171875,94782,24.809685026883255,1000.9364158101379,0
2024-03-17T10:07:15,-0.28713871199999996,-0.0023928226,10.012167964049999,0.02306016274197508,0.020158552860534508,0.08689558013366769,0.032060000000000005,0.48034000000000004,-0.43918000000000007,20.5,0,61,29,27,107,30.381171875,94782,24.809685026883255,1000.9364158101379,0
2024-03-17T10:07:15,-0.29252256285,0.023928225999999997,9.985248709799999,0.019242255003237483,0.021838432265579053,0.09178250203925183,0.032060000000000005,0.48034000000000004,-0.43918000000000007,20.5,0,61,29,27,107,30.381171875,94782,24.809685026883255,1000.9364158101379,0
2024-03-17T10:07:15,-0.2739781877,0.025722842949999998,9.985846915449999,0.02168571595602955,0.020311269170084013,0.08735372906231621,0.032060000000000005,0.47250000000000003,-0.46662000000000003,20.5,0,61,29,27,107,30.381171875,94782,24.809685026883255,1000.9364158101379,0
2024-03-17T10:07:15,-0.27577280465,0.01734796385,9.991230766299998,0.021227567027381034,0.02336559536107409,0.08903360846736075,0.028140000000000005,0.47978000000000004,-0.44758000000000003,20.5,0,61,29,27,107,30.381171875,94782,24.809685026883255,1000.9364158101379,0
2024-03-17T10:07:15,-0.2703889538,0.0011964113,10.04447106915,0.019700403931885997,0.019853120241435502,0.08689558013366769,0.028140000000000005,0.47978000000000004,-0.44758000000000003,20.5,0,61,29,27,107,30.381171875,94782,24.809685026883255,1000.9364158101379,0
2024-03-17T10:07:15,-0.29611179675,0.011964112999999998,9.9984092341,0.020311269170084013,0.02107485071783153,0.08765916168141522,0.038500000000000006,0.48118000000000005,-0.45878,20.5,0,61,29,27,107,30.5985546875,95935,24.81513297775326,1000.9457670566496,0
2024-03-17T10:07:15,-0.3098705267,-0.0077766734499999995,10.091729315499999,0.021838432265579053,0.023671027980173096,0.08872817584826173,0.030660000000000003,0.47922000000000003,-0.45626000000000005,20.5,0,61,29,27,107,30.5985546875,95935,24.81513297775326,1000.9457670566496,0
2024-03-17T10:07:15,-0.26979074815,0.005982056499999999,10.0223374601,0.02168571595602955,0.021227567027381034,0.0872010127527667,0.02338,0.47250000000000003,-0.4543000000000001,20.5,0,61,29,27,107,30.5985546875,95935,24.81513297775326,1000.9457670566496,0
2024-03-17T10:07:15,-0.30209385325,-0.00418743955,10.003793084949999,0.020005836550985007,0.019394971312786988,0.08659014751456869,0.0315,0.47894000000000003,-0.4571,20.5,0,61,29,27,107,30.5985546875,95935,24.81513297775326,1000.9457670566496,0
2024-03-17T10:07:15,-0.32901310749999996,0.0131605243,9.97986485895,0.021532999646480044,0.019853120241435502,0.08536841703817265,0.0315,0.47894000000000003,-0.4571,20.5,0,61,29,27,107,30.5985546875,95935,24.81513297775326,1000.9457670566496,0
2024-03-17T10:07:15,-0.28594230069999993,0.0083748791,10.000203851049998,0.0238237442897226,0.018784106074588976,0.08888089215781124,0.03318,0.48398,-0.45108000000000004,20.5,0,61,29,27,107,30.5985546875,95935,24.81513297775326,1000.9457670566496,0
2024-03-17T10:07:15,-0.2955135911,0.011964112999999998,10.048658508699999,0.017256942979093935,0.020005836550985007,0.08414668656177661,0.037380000000000004,0.47782,-0.44212000000000007,20.5,0,61,29,27,107,30.5985546875,95935,24.81513297775326,1000.9457670566496,0
2024-03-17T10:07:15,-0.28534409504999997,0.0095712904,10.024730282699998,0.019242255003237483,0.02138028333693054,0.08765916168141522,0.037380000000000004,0.47782,-0.44212000000000007,20.5,0,61,29,27,107,30.7852734375,97769,24.807409039999246,1000.9555334997339,0
2024-03-17T10:07:15,-0.29970103065,0.008973084749999999,10.037890806999998,0.018784106074588976,0.02107485071783153,0.08857545953871222,0.02842,0.48286000000000007,-0.44562000000000007,20.5,0,61,29,27,107,30.7852734375,97769,24.807409039999246,1000.9555334997339,0
2024-03-17T10:07:15,-0.28773691765000003,0.0167497582,10.033105161799998,0.02489275845656913,0.019547687622336492,0.08536841703817265,0.02842,0.48286000000000007,-0.44562000000000007,20.5,0,61,29,27,107,30.7852734375,97769,24.807409039999246,1000.9555334997339,0
2024-03-17T10:07:15,-0.30209385325,-0.00658026215,10.0103733471,0.020463985479633514,0.024434609527920616,0.08811731061006371,0.032060000000000005,0.48174000000000006,-0.4478600000000001,20.5,0,61,29,27,107,30.7852734375,97769,24.807409039999246,1000.9555334997339,0
2024-03-17T10:07:15,-0.2500499617,0.04127618984999999,10.01934643185,0.02336559536107409,0.020158552860534508,0.08765916168141522,0.027300000000000005,0.48090000000000005,-0.45192,20.5,0,61,29,27,107,30.7852734375,97769,24.807409039999246,1000.9555334997339,0
2024-03-17T10:07:15,-0.31106693799999996,0.011964112999999998,10.039685423949999,0.022143864884678056,0.017256942979093935,0.08888089215781124,0.027300000000000005,0.48090000000000005,-0.45192,20.5,0,61,29,27,107,30.7852734375,97769,24.807409039999246,1000.9555334997339,0
2024-03-17T10:07:15,-0.28594230069999993,0.017946169499999998,10.042676452199998,0.022143864884678056,0.025961772623415653,0.08811731061006371,0.03514,0.48622000000000004,-0.4491200000000001,20.5,0,61,29,27,107,30.7852734375,97769,24.807409039999246,1000.9555334997339,0
2024-03-17T10:07:15,-0.2907279459,0.0017946169499999999,10.024730282699998,0.021991148575128558,0.02260201381332657,0.08979719001510826,0.03122,0.48006000000000004,-0.44548000000000004,20.5,0,61,29,27,107,30.945625,99148,24.75960515843406,1000.9583809840573,0
2024-03-17T10:07:15,-0.2835494781,0.011964112999999998,9.9098747979,0.021227567027381034,0.020311269170084013,0.08582656596682116,0.03542,0.47838,-0.44156000000000006,20.5,0,61,29,27,107,30.945625,99148,24.75960515843406,1000.9583809840573,0
2024-03-17T10:07:15,-0.27337998204999997,0.0083748791,10.015757197949998,0.020158552860534508,0.023212879051524585,0.08827002691961322,0.03486000000000001,0.4837,-0.45626000000000005,20.5,0,61,29,27,107,30.945625,99148,24.75960515843406,1000.9583809840573,0
2024-03-17T10:07:15,-0.29730820804999997,0.00658026215,10.045069274799998,0.020158552860534508,0.019700403931885997,0.09178250203925183,0.03486000000000001,0.4837,-0.45626000000000005,20.5,0,61,29,27,107,30.945625,99148,24.75960515843406,1000.9583809840573,0
2024-03-17T10:07:15,-0.28594230069999993,0.029910282499999996,10.052845948249999,0.023671027980173096,0.023976460599272102,0.08872817584826173,0.02842,0.47754,-0.45444000000000007,20.5,0,61,29,27,107,30.945625,99148,24.75960515843406,1000.9583809840573,0
2024-03-17T10:07:15,-0.2907279459,0.037686955949999996,10.02054284315,0.018020524526841455,0.020463985479633514,0.08933904108645975,0.02562,0.48426,-0.4660600000000001,20.5,0,61,29,27,107,30.945625,99148,24.75960515843406,1000.9583809840573,0
2024-03-17T10:07:15,-0.30508488149999996,0.024526431649999996,10.06839929515,0.02260201381332657,0.019394971312786988,0.08842274322916273,0.02562,0.48426,-0.4660600000000001,20.5,0,61,29,27,107,30.945625,99148,24.75960515843406,1000.9583809840573,0
2024-03-17T10:07:15,-3.19621278795,1.0911271056,-0.20398812665,1.03419484826924,-5.004208031318142,-3.433826220220594,0.02198,0.48034000000000004,-0.4432400000000001,20.5,0,61,29,27,107,31.0833203125,101534,24.753634291389698,1000.9621637779964,0
2024-03-17T10:07:15,-0.27816562724999994,0.0251246373,10.018150020550001,0.05314527572322734,-0.06230825429619757,-0.05742133239061345,0.02478,0.48622000000000004,-0.45192,20.5,0,61,29,27,107,31.0833203125,101534,24.753634291389698,1000.9621637779964,0
2024-03-17T10:07:15,-0.2955135911,0.01854437515,10.051649536949999,0.050396382151336266,-0.04688390703169768,-0.05513058774737089,0.023100000000000002,0.47782,-0.44842000000000004,20.5,0,61,29,27,107,31.0833203125,101534,24.753634291389698,1000.9621637779964,0
2024-03-17T10:07:15,-0.30927232104999997,0.014356935599999999,10.043274657849999,0.0474947722698957,-0.02932153143350474,-0.05879577917655898,0.025060000000000002,0.4837,-0.4620000000000001,20.5,0,61,29,27,107,31.0833203125,101534,24.753634291389698,1000.9621637779964,0
2024-03-17T10:07:15,-0.2835494781,0.037686955949999996,10.045069274799998,0.0474947722698957,-0.020158552860534508,-0.06108652381980154,0.025060000000000002,0.4837,-0.4620000000000001,20.5,0,61,29,27,107,31.0833203125,101534,24.753634291389698,1000.9621637779964,0
2024-03-17T10:07:15,-0.30209385325,-0.005982056499999999,10.02772131095,0.03924809155422249,-0.013591751549905842,-0.05864306286700948,0.027020000000000002,0.48426,-0.45892,20.5,0,61,29,27,107,31.0833203125,101534,24.753634291389698,1000.9621637779964,0
2024-03-17T10:07:15,-0.2955135911,0.0047856452,10.0701939121,0.04001167310197001,-0.004886921905584123,-0.05375614096142535,0.028980000000000002,0.4772600000000001,-0.4649400000000001,20.5,0,61,29,27,107,31.0833203125,101534,24.753634291389698,1000.9621637779964,0
2024-03-17T10:07:15,-0.2703889538,0.010169496049999999,10.0534441539,0.038179077387375956,0.0016798794050445422,-0.05650503453331642,0.028980000000000002,0.4772600000000001,-0.4649400000000001,20.5,0,61,29,27,107,31.203046875,103022,24.724537220013303,1000.9691207621336,0
2024-03-17T10:07:16,-0.27936203854999997,-0.014955141249999998,10.03848901265,0.038331793696925465,0.011759155835311796,-0.052228977865930316,0.026180000000000002,0.48482000000000003,-0.4432400000000001,20.5,0,61,29,27,107,31.203046875,103022,24.724537220013303,1000.9691207621336,0
2024-03-17T10:07:16,-0.30568308715,0.014356935599999999,10.096514960699999,0.04276056667386108,0.008246680715673207,-0.0554360203664699,0.026180000000000002,0.48482000000000003,-0.4432400000000001,20.5,0,61,29,27,107,31.203046875,103022,24.724537220013303,1000.9691207621336,0
2024-03-17T10:07:16,-0.27577280465,0.015553346899999999,10.076774174250001,0.04245513405476207,0.010079276430267254,-0.05482515512827188,0.025060000000000002,0.48202000000000006,-0.45444000000000007,20.5,0,61,29,27,107,31.203046875,103022,24.724537220013303,1000.9691207621336,0
2024-03-17T10:07:16,-0.30089744194999996,-0.011365907350000001,10.077970585549998,0.041080687268816536,0.011759155835311796,-0.05299255941367784,0.020860000000000004,0.48706000000000005,-0.44926000000000005,20.5,0,61,29,27,107,31.203046875,103022,24.724537220013303,1000.9691207621336,0
2024-03-17T10:07:16,-0.2703889538,0.022133609050000003,10.083354436399997,0.04260785036431157,0.011759155835311796,-0.05238169417547982,0.020860000000000004,0.48706000000000005,-0.44926000000000005,20.5,0,61,29,27,107,31.203046875,103022,24.724537220013303,1000.9691207621336,0
2024-03-17T10:07:16,-0.29611179675,0.0323031051,10.08036340815,0.03695734691097993,0.009926560120717751,-0.050396382151336266,0.02478,0.48230000000000006,-0.46970000000000006,20.5,0,61,29,27,107,31.203046875,103022,24.724537220013303,1000.9691207621336,0
2024-03-17T10:07:16,-0.30209385325,0.0131605243,10.06720288385,0.040317105721069016,0.012370021073509813,-0.04688390703169768,0.028700000000000003,0.48006000000000004,-0.4631200000000001,20.5,0,61,29,27,107,31.306171875,104489,24.677858314734486,1000.9796976619502,0
2024-03-17T10:07:16,-0.2979064137,0.00418743955,10.11386292455,0.03787364476827696,0.012217304763960308,-0.04673119072214818,0.03402,0.48706000000000005,-0.4466,20.5,0,61,29,27,107,31.306171875,104489,24.677858314734486,1000.9796976619502,0
2024-03-17T10:07:16,-0.29252256285,0.0017946169499999999,10.08155981945,0.03634648167278191,0.012828170002158324,-0.052228977865930316,0.025340000000000005,0.48454,-0.4561200000000001,20.5,0,61,29,27,107,31.306171875,104489,24.677858314734486,1000.9796976619502,0
2024-03-17T10:07:16,-0.27577280465,0.011964112999999998,10.054042359550001,0.03924809155422249,0.007941248096574201,-0.049021935365390734,0.027020000000000002,0.48230000000000006,-0.46396000000000004,20.5,0,61,29,27,107,31.306171875,104489,24.677858314734486,1000.9796976619502,0
2024-03-17T10:07:16,-0.24167508259999998,0.0023928226,10.04447106915,0.04550946024575215,0.0068722339297276735,-0.049021935365390734,0.027020000000000002,0.48230000000000006,-0.46396000000000004,20.5,0,61,29,27,107,31.306171875,104489,24.677858314734486,1000.9796976619502,0
2024-03-17T10:07:16,-0.2979064137,0.01734796385,9.9505527821,0.039553524173321496,0.008399397025222712,-0.04718933965079669,0.032060000000000005,0.48398,-0.4529,20.5,0,61,29,27,107,31.306171875,104489,24.677858314734486,1000.9796976619502,0
2024-03-17T10:07:16,-0.29012974025,0.0011964113,10.0773723799,0.040622538340168025,0.006108652381980154,-0.04734205596034619,0.03458000000000001,0.47950000000000004,-0.4548600000000001,20.5,0,61,29,27,107,31.306171875,104489,24.677858314734486,1000.9796976619502,0
2024-03-17T10:07:16,-0.29132615154999997,0.010169496049999999,10.0558369765,0.04596760917440065,0.003970624048287101,-0.04535674393620265,0.03458000000000001,0.47950000000000004,-0.4548600000000001,20.5,0,61,29,27,107,31.396015625,105075,24.630181974028503,1000.9741322505448,0
2024-03-17T10:07:16,-0.30329026454999997,-0.01615155255,10.094720343749998,0.04489859500755413,0.003054326190990077,-0.04627304179349966,0.02926,0.48482000000000003,-0.4531800000000001,20.5,0,61,29,27,106,31.396015625,105075,24.630181974028503,1000.9741322505448,0
2024-03-17T10:07:16,-0.29730820804999997,0.031106693799999998,10.04088183525,0.041844268816564056,0.006566801310628666,-0.04428772976935611,0.027300000000000005,0.48482000000000003,-0.4531800000000001,20.5,0,61,29,27,106,31.396015625,105075,24.630181974028503,1000.9741322505448,0
2024-03-17T10:07:16,-0.2835494781,0.011964112999999998,10.057033387799999,0.04046982203061852,0.003207042500539581,-0.04489859500755413,0.020020000000000003,0.48258000000000006,-0.46522,20.5,0,61,29,27,106,31.396015625,105075,24.630181974028503,1000.9741322505448,0
2024-03-17T10:07:16,-0.28175486115,0.0029910282499999996,10.0582297991,0.04581489286485116,0.0,-0.04581489286485116,0.02842,0.48398,-0.44716,20.5,0,61,29,27,106,31.396015625,105075,24.630181974028503,1000.9741322505448,0
2024-03-17T10:07:16,-0.29012974025,0.014955141249999998,10.03250695615,0.04001167310197001,-0.0027488935718910697,-0.043982297150257116,0.02842,0.48398,-0.44716,20.5,0,61,29,27,106,31.396015625,105075,24.630181974028503,1000.9741322505448,0
2024-03-17T10:07:16,-0.29252256285,0.00418743955,10.060024416049998,0.039553524173321496,-0.0027488935718910697,-0.04566217655530165,0.03122,0.48258000000000006,-0.47376000000000007,20.5,0,61,29,27,106,31.396015625,105075,24.630181974028503,1000.9741322505448,0
2024-03-17T10:07:16,-0.31106693799999996,0.01734796385,10.051649536949999,0.04245513405476207,-0.0016798794050445422,-0.043676864531158106,0.032060000000000005,0.48062000000000005,-0.45836000000000005,20.5,0,61,29,27,106,31.4735546875,106132,24.587025736793642,1000.9612032326102,0
2024-03-17T10:07:16,-0.28773691765000003,0.020338992099999998,10.073783145999998,0.04123340357836604,-0.0044287729769356115,-0.04092797095926703,0.023100000000000002,0.47838,-0.4641,20.5,0,61,29,27,106,31.4735546875,106132,24.587025736793642,1000.9612032326102,0
2024-03-17T10:07:16,-0.2679961312,0.014955141249999998,10.042676452199998,0.041386119887915546,-0.0033597588100890844,-0.041996985126113565,0.02254,0.48062000000000005,-0.45864000000000005,20.5,0,61,29,27,106,31.4735546875,106132,24.587025736793642,1000.9612032326102,0
2024-03-17T10:07:16,-0.29132615154999997,0.017946169499999998,10.122836009299998,0.038637226316024474,0.0,-0.043676864531158106,0.02254,0.48062000000000005,-0.45864000000000005,20.5,0,61,29,27,106,31.4735546875,106132,24.587025736793642,1000.9612032326102,0
2024-03-17T10:07:16,-0.2967100024,-0.017946169499999998,10.05882800475,0.0433714319120591,-0.0013744467859455349,-0.04291328298341058,0.0315,0.49014,-0.4513600000000001,20.5,0,61,29,27,106,31.4735546875,106132,24.587025736793642,1000.9612032326102,0
2024-03-17T10:07:16,-0.2883351233,0.0167497582,10.045069274799998,0.04612032548395016,-0.0035124751196385882,-0.04474587869800463,0.030380000000000004,0.48286000000000007,-0.46452000000000004,20.5,0,61,29,27,106,31.4735546875,106132,24.587025736793642,1000.9612032326102,0
2024-03-17T10:07:16,-0.28055844984999995,0.0035892338999999997,10.077970585549998,0.0433714319120591,0.0012217304763960308,-0.04948008429403925,0.030380000000000004,0.48286000000000007,-0.46452000000000004,20.5,0,61,29,27,106,31.4735546875,106132,24.587025736793642,1000.9612032326102,0
2024-03-17T10:07:16,-0.29012974025,0.015553346899999999,10.1168539528,0.04230241774521256,-0.0022907446432425577,-0.04566217655530165,0.03122,0.48426,-0.46074000000000004,20.5,0,61,29,27,106,31.5423046875,107484,24.543212867360538,1000.9645830874418,0
2024-03-17T10:07:16,-0.2787638329,0.0095712904,10.067801089499998,0.041080687268816536,-0.003054326190990077,-0.04612032548395016,0.02058,0.49238000000000004,-0.4529,20.5,0,61,29,27,106,31.5423046875,107484,24.543212867360538,1000.9645830874418,0
2024-03-17T10:07:16,-0.2835494781,0.0,10.0462656861,0.04321871560250959,-0.0033597588100890844,-0.04321871560250959,0.026180000000000002,0.47922000000000003,-0.4491200000000001,20.5,0,61,29,27,106,31.5423046875,107484,24.543212867360538,1000.9645830874418,0
2024-03-17T10:07:16,-0.24945175605,0.022133609050000003,10.114461130199999,0.03695734691097993,-0.0022907446432425577,-0.04260785036431157,0.021700000000000004,0.48594000000000004,-0.4561200000000001,20.5,0,61,29,27,106,31.5423046875,107484,24.543212867360538,1000.9645830874418,0
2024-03-17T10:07:16,-0.42532421714999996,0.041874395499999995,10.000203851049998,0.04780020488899471,0.038484510006474966,-0.04596760917440065,0.021700000000000004,0.48594000000000004,-0.4561200000000001,20.5,0,61,29,27,106,31.5423046875,107484,24.543212867360538,1000.9645830874418,0
2024-03-17T10:07:16,-0.28893332894999996,0.0167497582,10.0366943957,0.04444044607890562,-0.0018325957145940463,-0.04276056667386108,0.023660000000000004,0.48146000000000005,-0.46802000000000005,20.5,0,61,29,27,106,31.5423046875,107484,24.543212867360538,1000.9645830874418,0
2024-03-17T10:07:16,-0.28893332894999996,0.014955141249999998,10.071390323399998,0.043982297150257116,0.0018325957145940463,-0.04963280060358875,0.032900000000000006,0.48398,-0.45794000000000007,20.5,0,61,29,27,106,31.5423046875,107484,24.543212867360538,1000.9645830874418,0
2024-03-17T10:07:16,-0.29491538544999996,0.010169496049999999,10.082756230749998,0.04321871560250959,-0.0013744467859455349,-0.04505131131710364,0.032900000000000006,0.48398,-0.45794000000000007,20.5,0,61,29,27,106,31.6034375,108521,24.482516738026256,1000.9628116510015,0
2024-03-17T10:07:16,-0.29730820804999997,0.0023928226,10.082756230749998,0.04703662334124718,-0.0035124751196385882,-0.04673119072214818,0.033460000000000004,0.48790000000000006,-0.45346000000000003,20.5,0,61,29,27,106,31.6034375,108521,24.482516738026256,1000.9628116510015,0
2024-03-17T10:07:16,-0.2943171798,0.015553346899999999,10.10309522285,0.04581489286485116,-0.004886921905584123,-0.04612032548395016,0.027300000000000005,0.48566000000000004,-0.45346000000000003,20.5,0,61,29,27,106,31.6034375,108521,24.482516738026256,1000.9628116510015,0
2024-03-17T10:07:17,-0.28594230069999993,0.024526431649999996,10.055238770849998,0.039858956792420505,-0.003054326190990077,-0.04016438941151951,0.03654,0.4907,-0.4625600000000001,20.5,0,61,29,27,106,31.6034375,108521,24.482516738026256,1000.9628116510015,0
2024-03-17T10:07:17,-0.28654050634999995,-0.010767701699999998,10.046863891749998,0.04245513405476207,-0.0033597588100890844,-0.0474947722698957,0.03402,0.48706000000000005,-0.4676,20.5,0,61,29,27,106,31.6034375,108521,24.482516738026256,1000.9628116510015,0
2024-03-17T10:07:17,-0.29611179675,0.030508488149999995,10.0666046782,0.04489859500755413,0.0,-0.04718933965079669,0.03402,0.48706000000000005,-0.4676,20.5,0,61,29,27,106,31.6034375,108521,24.482516738026256,1000.9628116510015,0
2024-03-17T10:07:17,-0.45523449964999996,0.017946169499999998,10.061819032999999,0.04535674393620265,-0.00045814892864851157,-0.04550946024575215,0.0315,0.48230000000000006,-0.46382000000000007,20.5,0,61,29,27,106,31.6034375,108521,24.482516738026256,1000.9628116510015,0
2024-03-17T10:07:17,-0.26739792554999997,0.013758729949999998,10.06720288385,0.04046982203061852,0.0012217304763960308,-0.04230241774521256,0.025900000000000003,0.47670000000000007,-0.4655000000000001,20.5,0,61,29,27,106,31.6563671875,109082,24.42665796351438,1000.965732624324,0
2024-03-17T10:07:17,-0.28115665549999996,0.0131605243,10.0582297991,0.04306599929296009,0.001069014166846527,-0.04505131131710364,0.02338,0.48258000000000006,-0.4555600000000001,20.5,0,61,29,27,106,31.6563671875,109082,24.42665796351438,1000.965732624324,0
2024-03-17T10:07:17,-0.2835494781,0.0095712904,10.060622621699999,0.04856378643674222,-0.0016798794050445422,-0.048411070127192715,0.030660000000000003,0.47894000000000003,-0.45542,20.5,0,61,29,27,106,31.6563671875,109082,24.42665796351438,1000.965732624324,0
2024-03-17T10:07:17,-0.30149564759999997,0.020937197749999997,10.05643518215,0.04214970143566306,0.00015271630954950385,-0.0476474885794452,0.030660000000000003,0.47894000000000003,-0.45542,20.5,0,61,29,27,106,31.6563671875,109082,24.42665796351438,1000.965732624324,0
2024-03-17T10:07:17,-0.2895315346,0.0095712904,10.110273690649999,0.04306599929296009,-0.0027488935718910697,-0.04444044607890562,0.032060000000000005,0.48034000000000004,-0.44814000000000004,20.5,0,61,29,27,106,31.6563671875,109082,24.42665796351438,1000.965732624324,0
2024-03-17T10:07:17,-0.2835494781,0.0131605243,10.0008020567,0.04428772976935611,-0.00045814892864851157,-0.04657847441259867,0.030380000000000004,0.48006000000000004,-0.4660600000000001,20.5,0,61,29,27,106,31.6563671875,109082,24.42665796351438,1000.965732624324,0
2024-03-17T10:07:17,-0.2967100024,0.15014961815,10.054042359550001,0.04046982203061852,0.00015271630954950385,-0.04612032548395016,0.030380000000000004,0.48006000000000004,-0.4660600000000001,20.5,0,61,29,27,106,31.6563671875,109082,24.42665796351438,1000.965732624324,0
2024-03-17T10:07:17,-0.28893332894999996,0.0017946169499999999,10.060622621699999,0.04444044607890562,0.0018325957145940463,-0.04612032548395016,0.024500000000000004,0.48258000000000006,-0.45402000000000003,20.5,0,61,29,27,106,31.7032421875,109082,24.37579475305418,1000.9714340795082,0
2024-03-17T10:07:17,-0.26261228035,0.01974078645,10.046863891749998,0.04428772976935611,-0.0027488935718910697,-0.0474947722698957,0.018060000000000003,0.48258000000000006,-0.45472,20.5,0,61,29,27,106,31.7032421875,109082,24.37579475305418,1000.9714340795082,0
2024-03-17T10:07:17,-0.30149564759999997,0.00658026215,10.040283629599998,0.04657847441259867,-0.0009162978572970231,-0.04810563750809371,0.023100000000000002,0.48034000000000004,-0.4631200000000001,20.5,0,61,29,27,106,31.7032421875,109082,24.37579475305418,1000.9714340795082,0
2024-03-17T10:07:17,-0.27457639335,0.020937197749999997,10.04566748045,0.04321871560250959,-0.00473420559603462,-0.04428772976935611,0.03262,0.47614000000000006,-0.4531800000000001,20.5,0,61,29,27,106,31.7032421875,109082,24.37579475305418,1000.9714340795082,0
2024-03-17T10:07:17,-0.3026920589,0.01615155255,10.06481006125,0.04276056667386108,-0.0009162978572970231,-0.04734205596034619,0.03262,0.47614000000000006,-0.4531800000000001,20.5,0,61,29,27,106,31.7032421875,109082,24.37579475305418,1000.9714340795082,0
2024-03-17T10:07:17,-0.2919243572,0.0017946169499999999,10.063015444300001,0.039858956792420505,-0.0027488935718910697,-0.04535674393620265,0.01974,0.48846000000000006,-0.46690000000000004,20.5,0,61,29,27,106,31.7032421875,109082,24.37579475305418,1000.9714340795082,0
2024-03-17T10:07:17,-0.2883351233,0.007178467799999999,10.146166029649997,0.0433714319120591,-0.003207042500539581,-0.04489859500755413,0.028700000000000003,0.48314000000000007,-0.46270000000000006,20.5,0,61,29,27,106,31.7032421875,109082,24.37579475305418,1000.9714340795082,0
2024-03-17T10:07:17,-0.27936203854999997,0.01734796385,10.08036340815,0.0433714319120591,-0.004581489286485115,-0.04474587869800463,0.028700000000000003,0.48314000000000007,-0.46270000000000006,20.5,0,61,29,27,106,31.746796875,110078,24.324694300668888,1000.9699585818039,0
2024-03-17T10:07:17,-0.30448667585,0.0095712904,10.057033387799999,0.039858956792420505,-0.0024434609527920616,-0.04474587869800463,0.02646,0.47698,-0.45598,20.5,0,61,29,27,106,31.746796875,110078,24.324694300668888,1000.9699585818039,0
2024-03-17T10:07:17,-0.27996024419999993,0.005982056499999999,10.085747258999998,0.04444044607890562,-0.0056505034533316425,-0.04596760917440065,0.02646,0.47698,-0.45598,20.5,0,61,29,27,106,31.746796875,110078,24.324694300668888,1000.9699585818039,0
2024-03-17T10:07:17,-0.2608176634,0.017946169499999998,10.04566748045,0.04291328298341058,0.0024434609527920616,-0.04810563750809371,0.027300000000000005,0.47922000000000003,-0.45346000000000003,20.5,0,61,29,27,106,31.746796875,110078,24.324694300668888,1000.9699585818039,0
2024-03-17T10:07:17,-0.29371897415,0.027517459899999996,10.037890806999998,0.04321871560250959,-0.0016798794050445422,-0.041691552507014555,0.027020000000000002,0.48174000000000006,-0.45822,20.5,0,61,29,27,106,31.746796875,110078,24.324694300668888,1000.9699585818039,0
2024-03-17T10:07:17,-0.2919243572,0.0191425808,10.109675485,0.04489859500755413,-0.003207042500539581,-0.04688390703169768,0.03318,0.47866000000000003,-0.44828,20.5,0,61,29,27,106,31.746796875,110078,24.324694300668888,1000.9699585818039,0
2024-03-17T10:07:17,-0.29252256285,0.027517459899999996,10.12223780365,0.038637226316024474,-0.003207042500539581,-0.048258353817643214,0.03318,0.47866000000000003,-0.44828,20.5,0,61,29,27,106,31.746796875,110078,24.324694300668888,1000.9699585818039,0
2024-03-17T10:07:17,-0.3002992363,0.0077766734499999995,10.052845948249999,0.04581489286485116,-0.0016798794050445422,-0.04581489286485116,0.0357,0.47922000000000003,-0.44702000000000003,20.5,0,61,29,27,106,31.7856640625,111093,24.267824097475355,1000.971682432556,0
2024-03-17T10:07:17,-0.2955135911,0.0167497582,10.054042359550001,0.048716502746291725,-0.001069014166846527,-0.04474587869800463,0.029820000000000003,0.47894000000000003,-0.45836000000000005,20.5,0,61,29,27,106,31.7856640625,111093,24.267824097475355,1000.971682432556,0
2024-03-17T10:07:17,-0.29910282499999996,0.03409772205,10.028319516599998,0.0433714319120591,-0.0027488935718910697,-0.041996985126113565,0.028980000000000002,0.48090000000000005,-0.45248,20.5,0,61,29,27,106,31.7856640625,111093,24.267824097475355,1000.971682432556,0
2024-03-17T10:07:17,-0.29012974025,-0.00658026215,10.064211855599998,0.04291328298341058,-0.0015271630954950385,-0.04780020488899471,0.028700000000000003,0.48538000000000003,-0.46858000000000005,20.5,0,61,29,27,106,31.7856640625,111093,24.267824097475355,1000.971682432556,0
2024-03-17T10:07:17,-0.29491538544999996,-0.0047856452,10.07916699685,0.041996985126113565,0.0,-0.0474947722698957,0.028700000000000003,0.48538000000000003,-0.46858000000000005,20.5,0,61,29,27,106,31.7856640625,111093,24.267824097475355,1000.971682432556,0
2024-03-17T10:07:17,-0.33439695834999994,0.007178467799999999,10.076774174250001,0.04535674393620265,-0.001069014166846527,-0.04520402762665314,0.023660000000000004,0.48090000000000005,-0.45458000000000004,20.5,0,61,29,27,106,31.7856640625,111093,24.267824097475355,1000.971682432556,0
2024-03-17T10:07:17,-0.2979064137,0.0017946169499999999,10.030114133549999,0.041996985126113565,-0.00595593607243065,-0.04734205596034619,0.027020000000000002,0.48846000000000006,-0.45472,20.5,0,61,29,27,105,31.7856640625,111093,24.267824097475355,1000.971682432556,0
2024-03-17T10:07:17,-0.27816562724999994,0.14177473905,10.0929257268,0.043982297150257116,-0.008093964406123704,-0.050854531079984784,0.027020000000000002,0.48846000000000006,-0.45472,20.5,0,61,29,26,105,31.8208203125,111386,24.210693857851425,1000.9781878614251,0
2024-03-17T10:07:17,-0.29371897415,0.017946169499999998,10.067801089499998,0.04413501345980661,-0.0035124751196385882,-0.04642575810304917,0.030660000000000003,0.48566000000000004,-0.4529,20.5,0,61,29,26,105,31.8208203125,111386,24.210693857851425,1000.9781878614251,0
2024-03-17T10:07:17,-0.30089744194999996,0.015553346899999999,10.09950598895,0.04321871560250959,-0.0027488935718910697,-0.04245513405476207,0.02478,0.48594000000000004,-0.4566800000000001,20.5,0,61,29,26,105,31.8208203125,111386,24.210693857851425,1000.9781878614251,0
2024-03-17T10:07:17,-0.29132615154999997,-0.022731814700000002,10.097711372000001,0.047952921198544204,-0.0016798794050445422,-0.04596760917440065,0.025060000000000002,0.48174000000000006,-0.4566800000000001,20.5,0,61,29,26,105,31.8208203125,111386,24.210693857851425,1000.9781878614251,0
2024-03-17T10:07:17,-0.27577280465,0.0083748791,10.060622621699999,0.039095375244672985,-0.006566801310628666,-0.04550946024575215,0.01694,0.48566000000000004,-0.45276000000000005,20.5,0,61,29,26,105,31.8208203125,111386,24.210693857851425,1000.9781878614251,0
2024-03-17T10:07:17,-0.3002992363,0.021535403399999997,10.06481006125,0.041844268816564056,-0.003054326190990077,-0.04535674393620265,0.01694,0.48566000000000004,-0.45276000000000005,20.5,0,61,29,26,105,31.8208203125,111386,24.210693857851425,1000.9781878614251,0
2024-03-17T10:07:17,-0.32542387359999997,0.022731814700000002,10.046863891749998,0.038331793696925465,-0.003054326190990077,-0.0476474885794452,0.025900000000000003,0.48734000000000005,-0.44996,20.5,0,61,29,26,105,31.8208203125,111386,24.210693857851425,1000.9781878614251,0
2024-03-17T10:07:17,-0.30209385325,0.0191425808,10.097113166349997,0.04382958084070761,-0.0013744467859455349,-0.04474587869800463,0.02842,0.48426,-0.4461800000000001,20.5,0,61,29,26,105,31.85265625,111829,24.16961911940747,1000.9793192154415,0
2024-03-17T10:07:18,-0.2835494781,-0.013758729949999998,10.0175518149,0.04214970143566306,-0.004276056667386108,-0.048716502746291725,0.030380000000000004,0.48230000000000006,-0.46956000000000003,20.5,0,61,29,26,105,31.85265625,111829,24.16961911940747,1000.9793192154415,0
2024-03-17T10:07:18,-0.27098715944999996,0.028713871199999998,9.952347399049998,0.039553524173321496,-0.0018325957145940463,-0.0474947722698957,0.030100000000000002,0.48034000000000004,-0.4614400000000001,20.5,0,61,29,26,105,31.85265625,111829,24.16961911940747,1000.9793192154415,0
2024-03-17T10:07:18,-0.2763710103,0.007178467799999999,10.07318494035,0.043982297150257116,0.00015271630954950385,-0.04245513405476207,0.030100000000000002,0.48034000000000004,-0.4614400000000001,20.5,0,61,29,26,105,31.85265625,111829,24.16961911940747,1000.9793192154415,0
2024-03-17T10:07:18,-0.28773691765000003,0.017946169499999998,10.051649536949999,0.04520402762665314,-0.0038179077387375964,-0.04566217655530165,0.027860000000000003,0.48034000000000004,-0.4660600000000001,20.5,0,61,29,26,105,31.85265625,111829,24.16961911940747,1000.9793192154415,0
2024-03-17T10:07:18,-0.2596212521,-0.010767701699999998,10.0235338714,0.040622538340168025,-0.0003054326190990077,-0.04505131131710364,0.02478,0.48174000000000006,-0.45640000000000003,20.5,0,61,29,26,105,31.85265625,111829,24.16961911940747,1000.9793192154415,0
2024-03-17T10:07:18,-0.2584248408,0.041874395499999995,10.0654082669,0.04428772976935611,-0.0019853120241435504,-0.04657847441259867,0.02478,0.48174000000000006,-0.45640000000000003,20.5,0,61,29,26,105,31.85265625,111829,24.16961911940747,1000.9793192154415,0
2024-03-17T10:07:18,-0.2895315346,0.00658026215,10.073783145999998,0.04321871560250959,0.0009162978572970231,-0.04596760917440065,0.023100000000000002,0.48818000000000006,-0.46634000000000003,20.5,0,61,29,26,105,31.8817578125,112201,24.117495135990033,1000.9778229627459,0
2024-03-17T10:07:18,-0.30209385325,0.014955141249999998,10.089934698549998,0.04459316238845512,-0.0003054326190990077,-0.04474587869800463,0.03654,0.47782,-0.45542,20.5,0,61,29,26,105,31.8817578125,112201,24.117495135990033,1000.9778229627459,0
2024-03-17T10:07:18,-0.26380869165,0.13998012209999997,10.088140081599997,0.039553524173321496,-0.0036651914291880926,-0.0435241482216086,0.029540000000000004,0.47922000000000003,-0.46718000000000004,20.5,0,61,29,26,105,31.8817578125,112201,24.117495135990033,1000.9778229627459,0
2024-03-17T10:07:18,-0.29312076849999996,0.0131605243,10.0474620974,0.04581489286485116,-0.002901609881440573,-0.04444044607890562,0.02142,0.48734000000000005,-0.44254000000000004,20.5,0,61,29,26,105,31.8817578125,112201,24.117495135990033,1000.9778229627459,0
2024-03-17T10:07:18,-0.2895315346,0.021535403399999997,10.068997500799998,0.04581489286485116,-0.0024434609527920616,-0.04718933965079669,0.02142,0.48734000000000005,-0.44254000000000004,20.5,0,61,29,26,105,31.8817578125,112201,24.117495135990033,1000.9778229627459,0
2024-03-17T10:07:18,-0.28055844984999995,-0.010169496049999999,10.0319087505,0.04413501345980661,-0.0035124751196385882,-0.04612032548395016,0.026740000000000003,0.48034000000000004,-0.4572400000000001,20.5,0,61,29,26,105,31.8817578125,112201,24.117495135990033,1000.9778229627459,0
2024-03-17T10:07:18,-0.3026920589,0.021535403399999997,10.064211855599998,0.039706240482871004,-0.003054326190990077,-0.04291328298341058,0.029540000000000004,0.48006000000000004,-0.45892,20.5,0,61,29,26,105,31.8817578125,112201,24.117495135990033,1000.9778229627459,0
2024-03-17T10:07:18,-0.28713871199999996,0.0047856452,10.106086251099997,0.04566217655530165,-0.0022907446432425577,-0.04566217655530165,0.029540000000000004,0.48006000000000004,-0.45892,20.5,0,61,29,26,105,31.9075390625,112952,24.05429031069631,1000.9781477336285,0
2024-03-17T10:07:18,-0.27517459899999996,0.0251246373,10.068997500799998,0.048258353817643214,-0.002138028333693054,-0.04978551691313826,0.02338,0.48762000000000005,-0.46130000000000004,20.5,0,61,29,26,105,31.9075390625,112952,24.05429031069631,1000.9781477336285,0
2024-03-17T10:07:18,-0.45044885445,0.023928225999999997,10.101300605899999,0.03756821214917795,-0.0003054326190990077,-0.04917465167494024,0.02338,0.48762000000000005,-0.46130000000000004,20.5,0,61,29,26,105,31.9075390625,112952,24.05429031069631,1000.9781477336285,0
2024-03-17T10:07:18,-0.28414768374999994,0.017946169499999998,10.030712339199999,0.04505131131710364,-0.0006108652381980154,-0.04291328298341058,0.0315,0.47922000000000003,-0.47054,20.5,0,61,29,26,105,31.9075390625,112952,24.05429031069631,1000.9781477336285,0
2024-03-17T10:07:18,-0.2919243572,0.03170489945,10.06481006125,0.04596760917440065,-0.003207042500539581,-0.04444044607890562,0.030100000000000002,0.48090000000000005,-0.46046000000000004,20.5,0,61,29,26,105,31.9075390625,112952,24.05429031069631,1000.9781477336285,0
2024-03-17T10:07:18,-0.2895315346,0.01974078645,10.077970585549998,0.04520402762665314,0.00045814892864851157,-0.04489859500755413,0.030100000000000002,0.48090000000000005,-0.46046000000000004,20.5,0,60,29,26,105,31.9075390625,112952,24.05429031069631,1000.9781477336285,0
2024-03-17T10:07:18,-0.2895315346,0.023330020349999998,10.07557776295,0.04306599929296009,-0.0027488935718910697,-0.04489859500755413,0.023940000000000003,0.48762000000000005,-0.46242,20.5,0,60,29,26,105,31.9075390625,112952,24.05429031069631,1000.9781477336285,0
2024-03-17T10:07:18,-0.24646072779999997,0.0011964113,10.02413207705,0.04123340357836604,-0.0036651914291880926,-0.04612032548395016,0.02926,0.48146000000000005,-0.45276000000000005,20.5,0,60,29,26,105,31.9315625,113636,24.001824328384668,1000.9774258158287,0
2024-03-17T10:07:18,-0.2667997199,0.014356935599999999,10.076175968599998,0.04123340357836604,-0.0025961772623415654,-0.0476474885794452,0.02254,0.48062000000000005,-0.46578,20.5,0,60,29,26,105,31.9315625,113636,24.001824328384668,1000.9774258158287,0
2024-03-17T10:07:18,-0.31286155495,-0.0095712904,10.05882800475,0.04214970143566306,-0.0009162978572970231,-0.04444044607890562,0.025060000000000002,0.48706000000000005,-0.45808000000000004,20.5,0,60,29,26,105,31.9315625,113636,24.001824328384668,1000.9774258158287,0
2024-03-17T10:07:18,-0.2560320182,0.014356935599999999,10.02413207705,0.04291328298341058,-0.00045814892864851157,-0.04520402762665314,0.025060000000000002,0.48706000000000005,-0.45808000000000004,20.5,0,60,29,26,105,31.9315625,113636,24.001824328384668,1000.9774258158287,0
2024-03-17T10:07:18,-0.31166514365,0.01256231865,10.092327521149999,0.04016438941151951,-0.002138028333693054,-0.04520402762665314,0.022820000000000003,0.48398,-0.4590600000000001,20.5,0,60,29,26,105,31.9315625,113636,24.001824328384668,1000.9774258158287,0
2024-03-17T10:07:18,-0.28055844984999995,0.022731814700000002,10.0749795573,0.041386119887915546,0.0024434609527920616,-0.04276056667386108,0.028140000000000005,0.48594000000000004,-0.4620000000000001,20.5,0,60,29,26,105,31.9315625,113636,24.001824328384668,1000.9774258158287,0
2024-03-17T10:07:18,-0.29491538544999996,0.0047856452,10.069595706449999,0.04474587869800463,-0.0027488935718910697,-0.04382958084070761,0.028140000000000005,0.48594000000000004,-0.4620000000000001,20.5,0,60,29,26,105,31.9315625,113636,24.001824328384668,1000.9774258158287,0
2024-03-17T10:07:18,-0.29850461935,-0.0131605243,10.109077279349998,0.07651087108430142,-0.0003054326190990077,-0.048258353817643214,0.024500000000000004,0.48202000000000006,-0.4467400000000001,20.5,0,60,29,26,105,31.953828125,113713,23.932982545772134,1000.9774562380978,0
2024-03-17T10:07:18,-0.2703889538,0.015553346899999999,10.077970585549998,0.04718933965079669,-0.0027488935718910697,-0.043982297150257116,0.02478,0.48314000000000007,-0.45542,20.5,0,60,29,26,105,31.953828125,113713,23.932982545772134,1000.9774562380978,0
2024-03-17T10:07:18,-0.2667997199,0.0011964113,10.0438728635,0.041844268816564056,0.0015271630954950385,-0.0474947722698957,0.026740000000000003,0.48482000000000003,-0.46032000000000006,20.5,0,60,29,26,105,31.953828125,113713,23.932982545772134,1000.9774562380978,0
2024-03-17T10:07:18,-0.30867411539999995,0.00418743955,10.086943670299998,0.04321871560250959,-0.0013744467859455349,-0.050701814770435276,0.02114,0.48734000000000005,-0.4578000000000001,20.5,0,60,29,26,105,31.953828125,113713,23.932982545772134,1000.9774562380978,0
2024-03-17T10:07:18,-0.2967100024,0.01256231865,10.060024416049998,0.0433714319120591,0.038942658935123484,-0.04291328298341058,0.02114,0.48734000000000005,-0.4578000000000001,20.5,0,60,29,26,105,31.953828125,113713,23.932982545772134,1000.9774562380978,0
2024-03-17T10:07:18,-0.28055844984999995,0.017946169499999998,10.21196865115,0.04230241774521256,0.0013744467859455349,-0.04505131131710364,0.028980000000000002,0.47838,-0.45248,20.5,0,60,29,26,105,31.953828125,113713,23.932982545772134,1000.9774562380978,0
2024-03-17T10:07:18,-0.29252256285,0.0011964113,10.0749795573,0.04214970143566306,0.0006108652381980154,-0.04489859500755413,0.029540000000000004,0.48174000000000006,-0.46298,20.5,0,60,29,26,105,31.953828125,113713,23.932982545772134,1000.9774562380978,0
2024-03-17T10:07:18,-0.27816562724999994,0.0131605243,10.06481006125,0.04001167310197001,-0.0056505034533316425,-0.04428772976935611,0.024220000000000002,0.4837,-0.4590600000000001,20.5,0,60,29,26,105,31.974921875,114097,23.869501708656443,1000.979186966984,0
2024-03-17T10:07:18,-0.28414768374999994,-0.011964112999999998,10.091729315499999,0.039706240482871004,-0.0016798794050445422,-0.04260785036431157,0.020300000000000002,0.48650000000000004,-0.44282000000000005,20.5,0,60,29,26,105,31.974921875,114097,23.869501708656443,1000.979186966984,0
2024-03-17T10:07:18,-0.33020951879999993,0.013758729949999998,10.0929257268,0.04046982203061852,-0.0003054326190990077,-0.04230241774521256,0.020300000000000002,0.48650000000000004,-0.44282000000000005,20.5,0,60,29,26,105,31.974921875,114097,23.869501708656443,1000.979186966984,0
2024-03-17T10:07:18,-0.31884361145,0.01734796385,9.9493563708,0.04520402762665314,-0.0033597588100890844,-0.04612032548395016,0.024220000000000002,0.48426,-0.44898000000000005,20.5,0,60,29,26,105,31.974921875,114097,23.869501708656443,1000.979186966984,0
2024-03-17T10:07:18,-0.28654050634999995,0.020937197749999997,10.0725867347,0.04230241774521256,-0.0035124751196385882,-0.04718933965079669,0.02254,0.49294000000000004,-0.4561200000000001,20.5,0,60,29,26,105,31.974921875,114097,23.869501708656443,1000.979186966984,0
2024-03-17T10:07:19,-0.28474588939999995,0.011365907350000001,10.05763159345,0.04092797095926703,-0.0024434609527920616,-0.0433714319120591,0.02254,0.49294000000000004,-0.4561200000000001,20.5,0,60,29,26,105,31.974921875,114097,23.869501708656443,1000.979186966984,0
2024-03-17T10:07:19,-0.32004002274999993,0.0023928226,10.0893364929,0.04321871560250959,-0.0012217304763960308,-0.0474947722698957,0.027860000000000003,0.48230000000000006,-0.44926000000000005,20.5,0,60,29,26,105,31.974921875,114097,23.869501708656443,1000.979186966984,0
2024-03-17T10:07:19,-0.27337998204999997,0.014955141249999998,10.09591675505,0.0022907446432425577,-0.0016798794050445422,-0.041996985126113565,0.023940000000000003,0.48398,-0.45836000000000005,20.5,0,60,29,26,105,31.9946484375,114175,23.833026251860392,1000.9733093098935,0
2024-03-17T10:07:19,-0.2955135911,0.00059820565,10.10668445675,0.04520402762665314,-0.0027488935718910697,-0.047952921198544204,0.026180000000000002,0.48118000000000005,-0.4590600000000001,20.5,0,60,29,26,105,31.9946484375,114175,23.833026251860392,1000.9733093098935,0
2024-03-17T10:07:19,-0.30448667585,0.0131605243,10.068997500799998,0.04306599929296009,-0.0015271630954950385,-0.04550946024575215,0.02842,0.48034000000000004,-0.44842000000000004,20.5,0,60,29,26,105,31.9946484375,114175,23.833026251860392,1000.9733093098935,0
2024-03-17T10:07:19,-0.2979064137,0.021535403399999997,10.083354436399997,0.041080687268816536,-0.0056505034533316425,-0.04780020488899471,0.02842,0.48034000000000004,-0.44842000000000004,20.5,0,60,29,26,105,31.9946484375,114175,23.833026251860392,1000.9733093098935,0
2024-03-17T10:07:19,-0.30149564759999997,0.017946169499999998,10.071390323399998,0.04245513405476207,-0.0018325957145940463,-0.04474587869800463,0.030660000000000003,0.48398,-0.4660600000000001,20.5,0,60,29,26,105,31.9946484375,114175,23.833026251860392,1000.9733093098935,0
2024-03-17T10:07:19,-0.2620140747,0.010169496049999999,10.062417238649997,0.04505131131710364,-0.0006108652381980154,-0.04856378643674222,0.02926,0.48034000000000004,-0.46172,20.5,0,60,29,26,105,31.9946484375,114175,23.833026251860392,1000.9733093098935,0
2024-03-17T10:07:19,-0.27696921594999996,0.01256231865,10.05763159345,0.04214970143566306,-0.0016798794050445422,-0.04581489286485116,0.02926,0.48034000000000004,-0.46172,20.5,0,60,29,26,105,31.9946484375,114175,23.833026251860392,1000.9733093098935,0
2024-03-17T10:07:19,-0.2943171798,0.0083748791,10.077970585549998,0.03924809155422249,-0.0035124751196385882,-0.0433714319120591,0.026740000000000003,0.47950000000000004,-0.46662000000000003,20.5,0,60,29,26,105,32.014375,115109,23.780312359605073,1000.9692282851848,0
2024-03-17T10:07:19,-0.28773691765000003,0.023330020349999998,10.06720288385,0.04276056667386108,-0.004886921905584123,-0.0476474885794452,0.022820000000000003,0.48790000000000006,-0.45808000000000004,20.5,0,60,29,26,105,32.014375,115109,23.780312359605073,1000.9692282851848,0
2024-03-17T10:07:19,-0.27996024419999993,0.015553346899999999,10.05882800475,0.041386119887915546,-0.0033597588100890844,-0.04413501345980661,0.022820000000000003,0.48790000000000006,-0.45808000000000004,20.5,0,60,29,26,105,32.014375,115109,23.780312359605073,1000.9692282851848,0
2024-03-17T10:07:19,-0.28055844984999995,-0.0029910282499999996,10.054042359550001,0.04153883619746505,-0.0025961772623415654,-0.04581489286485116,0.02758,0.48398,-0.4660600000000001,20.5,0,60,29,26,105,32.014375,115109,23.780312359605073,1000.9692282851848,0
2024-03-17T10:07:19,-0.28654050634999995,-0.1483550012,10.11745215845,0.04077525464971753,-0.0015271630954950385,-0.04520402762665314,0.026180000000000002,0.48902000000000007,-0.45248,20.5,0,60,29,26,105,32.014375,115109,23.780312359605073,1000.9692282851848,0
2024-03-17T10:07:19,-0.30747770409999997,0.01256231865,10.060622621699999,0.04306599929296009,-0.0022907446432425577,-0.051770828937281806,0.026180000000000002,0.48902000000000007,-0.45248,20.5,0,60,29,26,105,32.014375,115109,23.780312359605073,1000.9692282851848,0
2024-03-17T10:07:19,-0.28773691765000003,0.007178467799999999,10.085747258999998,0.041996985126113565,-0.001069014166846527,-0.0433714319120591,0.028140000000000005,0.4781,-0.46298,20.5,0,60,29,26,105,32.014375,115109,23.780312359605073,1000.9692282851848,0
2024-03-17T10:07:19,-0.29012974025,0.014955141249999998,10.091729315499999,0.041386119887915546,0.0006108652381980154,-0.04016438941151951,0.02562,0.48538000000000003,-0.4655000000000001,20.5,0,60,29,26,105,32.0329296875,115582,23.722116613346728,1000.9758421989916,0
2024-03-17T10:07:19,-0.2907279459,0.020937197749999997,10.042676452199998,0.04413501345980661,0.0015271630954950385,-0.04413501345980661,0.021700000000000004,0.48286000000000007,-0.46830000000000005,20.5,0,60,29,26,105,32.0329296875,115582,23.722116613346728,1000.9758421989916,0
2024-03-17T10:07:19,-0.30329026454999997,0.023330020349999998,10.0187482262,0.04321871560250959,0.003207042500539581,-0.04459316238845512,0.021700000000000004,0.48286000000000007,-0.46830000000000005,20.5,0,60,29,26,105,32.0329296875,115582,23.722116613346728,1000.9758421989916,0
2024-03-17T10:07:19,-0.29252256285,0.021535403399999997,10.048658508699999,0.04260785036431157,-0.0015271630954950385,-0.04230241774521256,0.024220000000000002,0.48734000000000005,-0.46662000000000003,20.5,0,60,29,26,105,32.0329296875,115582,23.722116613346728,1000.9758421989916,0
2024-03-17T10:07:19,-0.28534409504999997,0.0,10.085747258999998,0.0435241482216086,-0.002138028333693054,-0.04550946024575215,0.030380000000000004,0.48314000000000007,-0.45598,20.5,0,60,29,26,105,32.0329296875,115582,23.722116613346728,1000.9758421989916,0
2024-03-17T10:07:19,-0.2715853651,0.0035892338999999997,10.078568791199999,0.039706240482871004,-0.00045814892864851157,-0.04673119072214818,0.030380000000000004,0.48314000000000007,-0.45598,20.5,0,60,29,26,105,32.0329296875,115582,23.722116613346728,1000.9758421989916,0
2024-03-17T10:07:19,-0.29730820804999997,0.0191425808,10.10309522285,0.04291328298341058,-0.001069014166846527,-0.04612032548395016,0.02562,0.48090000000000005,-0.45458000000000004,20.5,0,60,29,26,105,32.0329296875,115582,23.722116613346728,1000.9758421989916,0
2024-03-17T10:07:19,-0.28713871199999996,-0.014356935599999999,10.09950598895,0.04673119072214818,-0.0015271630954950385,-0.04245513405476207,0.033460000000000004,0.48902000000000007,-0.46354,20.5,0,60,29,26,105,32.0503125,115582,23.66926698924891,1000.9769627267665,0
2024-03-17T10:07:19,-0.28115665549999996,0.007178467799999999,10.09950598895,0.04581489286485116,-0.0024434609527920616,-0.0476474885794452,0.027020000000000002,0.48566000000000004,-0.46186000000000005,20.5,0,60,29,26,105,32.0503125,115582,23.66926698924891,1000.9769627267665,0
2024-03-17T10:07:19,-0.31944181709999997,0.023330020349999998,9.98704332675,0.04382958084070761,-0.0019853120241435504,-0.04291328298341058,0.025900000000000003,0.48482000000000003,-0.45878,20.5,0,60,29,26,105,32.0503125,115582,23.66926698924891,1000.9769627267665,0
2024-03-17T10:07:19,-0.3026920589,0.0023928226,10.06481006125,0.038637226316024474,-0.0012217304763960308,-0.04474587869800463,0.025900000000000003,0.48482000000000003,-0.45878,20.5,0,60,29,26,105,32.0503125,115582,23.66926698924891,1000.9769627267665,0
2024-03-17T10:07:19,-0.30149564759999997,-0.011964112999999998,10.0654082669,0.041996985126113565,-0.0035124751196385882,-0.04520402762665314,0.027020000000000002,0.48510000000000003,-0.46592000000000006,20.5,0,60,29,26,105,32.0503125,115582,23.66926698924891,1000.9769627267665,0
2024-03-17T10:07:19,-0.3158525832,0.0047856452,10.1084790737,0.03924809155422249,-0.003054326190990077,-0.04612032548395016,0.027300000000000005,0.4898600000000001,-0.46088000000000007,20.5,0,60,29,26,105,32.0503125,115582,23.66926698924891,1000.9769627267665,0
2024-03-17T10:07:19,-0.3002992363,-0.0035892338999999997,10.13420191665,0.04535674393620265,0.001069014166846527,-0.041996985126113565,0.027300000000000005,0.4898600000000001,-0.46396000000000004,20.5,0,60,29,26,105,32.0503125,115582,23.66926698924891,1000.9769627267665,0
2024-03-17T10:07:19,-0.2703889538,0.04127618984999999,10.0546405652,0.038942658935123484,-0.0015271630954950385,-0.04276056667386108,0.029540000000000004,0.48790000000000006,-0.46396000000000004,20.5,0,60,29,26,105,32.06671875,115266,23.627181449112182,1000.9783020812949,0
2024-03-17T10:07:19,-0.29132615154999997,0.015553346899999999,10.060622621699999,0.041386119887915546,-0.0019853120241435504,-0.04459316238845512,0.030380000000000004,0.48846000000000006,-0.46732000000000007,20.5,0,60,29,26,105,32.06671875,115266,23.627181449112182,1000.9783020812949,0
2024-03-17T10:07:19,-0.23569302609999998,0.021535403399999997,10.0953185494,0.04306599929296009,-0.004276056667386108,-0.041386119887915546,0.027860000000000003,0.48706000000000005,-0.44856000000000007,20.5,0,60,29,26,105,32.06671875,115266,23.627181449112182,1000.9783020812949,0
2024-03-17T10:07:19,-0.29910282499999996,-0.12981062605,10.11745215845,0.04230241774521256,-0.0019853120241435504,-0.04535674393620265,0.024220000000000002,0.49126000000000003,-0.4676,20.5,0,60,29,26,105,32.06671875,115266,23.627181449112182,1000.9783020812949,0
2024-03-17T10:07:19,-0.30149564759999997,0.0131605243,10.062417238649997,0.0433714319120591,0.0,-0.04474587869800463,0.02338,0.48454,-0.45416,20.5,0,60,29,26,105,32.06671875,115266,23.627181449112182,1000.9783020812949,0
2024-03-17T10:07:19,-0.29371897415,0.017946169499999998,10.105488045449999,0.04505131131710364,-0.0022907446432425577,-0.04214970143566306,0.02338,0.48454,-0.45416,20.5,0,60,29,26,105,32.06671875,115266,23.627181449112182,1000.9783020812949,0
2024-03-17T10:07:19,-0.28414768374999994,0.008973084749999999,10.080961613799998,0.04413501345980661,-0.0007635815477475193,-0.04321871560250959,0.03122,0.48650000000000004,-0.46942000000000006,20.5,0,60,29,26,105,32.06671875,115266,23.627181449112182,1000.9783020812949,0
2024-03-17T10:07:19,-0.3176472001499999,0.031106693799999998,10.1431750014,0.039706240482871004,-0.002138028333693054,-0.04596760917440065,0.025340000000000005,0.49266000000000004,-0.45766,20.5,0,60,29,26,105,32.0825390625,116059,23.574248798192183,1000.9714973772283,0
2024-03-17T10:07:20,-0.2895315346,0.014955141249999998,10.0845508477,0.039553524173321496,-0.00595593607243065,-0.04581489286485116,0.03178,0.48594000000000004,-0.46032000000000006,20.5,0,60,29,26,105,32.0825390625,116059,23.574248798192183,1000.9714973772283,0
2024-03-17T10:07:20,-0.28115665549999996,-0.0095712904,10.0773723799,0.04474587869800463,-0.0009162978572970231,-0.04566217655530165,0.02114,0.4898600000000001,-0.45304,20.5,0,60,29,26,105,32.0825390625,116059,23.574248798192183,1000.9714973772283,0
2024-03-17T10:07:20,-0.27517459899999996,0.0263210486,10.088140081599997,0.038331793696925465,0.0007635815477475193,-0.04306599929296009,0.02114,0.4898600000000001,-0.45304,20.5,0,60,29,26,105,32.0825390625,116059,23.574248798192183,1000.9714973772283,0
2024-03-17T10:07:20,-0.32901310749999996,0.0263210486,10.048060303049999,0.039858956792420505,0.00045814892864851157,-0.043982297150257116,0.02758,0.48734000000000005,-0.4531800000000001,20.5,0,60,29,26,105,32.0825390625,116059,23.574248798192183,1000.9714973772283,0
2024-03-17T10:07:20,-0.2835494781,0.005982056499999999,10.088738287249999,0.0433714319120591,-0.001069014166846527,-0.04810563750809371,0.029820000000000003,0.48258000000000006,-0.45038000000000006,20.5,0,60,29,26,105,32.0825390625,116059,23.574248798192183,1000.9714973772283,0
2024-03-17T10:07:20,-0.27337998204999997,-0.0047856452,10.0725867347,0.04077525464971753,0.0,-0.041691552507014555,0.029820000000000003,0.48258000000000006,-0.45038000000000006,20.5,0,60,29,26,105,32.0825390625,116059,23.574248798192183,1000.9714973772283,0
2024-03-17T10:07:20,-0.2715853651,0.010767701699999998,10.082756230749998,0.04550946024575215,0.00015271630954950385,-0.04657847441259867,0.03234,0.48594000000000004,-0.45416,20.5,0,60,29,26,105,32.097578125,116299,23.50506215713857,1000.9724230916154,0
2024-03-17T10:07:20,-0.2679961312,0.0,10.123434214949999,0.04306599929296009,-0.0013744467859455349,-0.041080687268816536,0.02478,0.4837,-0.46466,20.5,0,60,29,26,105,32.097578125,116299,23.50506215713857,1000.9724230916154,0
2024-03-17T10:07:20,-0.29910282499999996,0.0131605243,10.103693428499998,0.04596760917440065,-0.0038179077387375964,-0.04718933965079669,0.026180000000000002,0.4837,-0.45542,20.5,0,60,29,26,105,32.097578125,116299,23.50506215713857,1000.9724230916154,0
2024-03-17T10:07:20,-0.28235306679999994,0.022731814700000002,10.076774174250001,0.039095375244672985,0.0006108652381980154,-0.04688390703169768,0.030940000000000002,0.48230000000000006,-0.46270000000000006,20.5,0,60,29,26,105,32.097578125,116299,23.50506215713857,1000.9724230916154,0
2024-03-17T10:07:20,-0.30149564759999997,-0.007178467799999999,10.0773723799,0.04596760917440065,-0.002901609881440573,-0.04077525464971753,0.030940000000000002,0.48230000000000006,-0.46270000000000006,20.5,0,60,29,26,105,32.097578125,116299,23.50506215713857,1000.9724230916154,0
2024-03-17T10:07:20,-0.29252256285,0.027517459899999996,10.105488045449999,0.041996985126113565,-0.0009162978572970231,-0.04550946024575215,0.026740000000000003,0.47894000000000003,-0.45934,20.5,0,60,29,26,105,32.097578125,116299,23.50506215713857,1000.9724230916154,0
2024-03-17T10:07:20,-0.3026920589,0.0191425808,10.034301573099999,0.043982297150257116,-0.0024434609527920616,-0.04581489286485116,0.027300000000000005,0.48426,-0.45542,20.5,0,60,29,26,105,32.097578125,116299,23.50506215713857,1000.9724230916154,0
2024-03-17T10:07:20,-0.29312076849999996,-0.0011964113,10.1024970172,0.04260785036431157,-0.003207042500539581,-0.04642575810304917,0.027300000000000005,0.48426,-0.45542,20.5,0,60,29,26,105,32.1118359375,116059,23.462863262266275,1000.9756829086724,0
2024-03-17T10:07:20,-0.2943171798,0.029910282499999996,10.052247742599999,0.0433714319120591,-0.0006108652381980154,-0.043982297150257116,0.03514,0.48566000000000004,-0.45304,20.5,0,60,29,26,105,32.1118359375,116059,23.462863262266275,1000.9756829086724,0
2024-03-17T10:07:20,-0.26739792554999997,0.0095712904,10.082756230749998,0.039706240482871004,-0.00015271630954950385,-0.04917465167494024,0.03514,0.48566000000000004,-0.45304,20.5,0,60,29,26,105,32.1118359375,116059,23.462863262266275,1000.9756829086724,0
2024-03-17T10:07:20,-0.25543381255,0.007178467799999999,10.0474620974,0.04505131131710364,-0.0018325957145940463,-0.04306599929296009,0.03234,0.48090000000000005,-0.45892,20.5,0,60,29,26,105,32.1118359375,116059,23.462863262266275,1000.9756829086724,0
2024-03-17T10:07:20,-0.26979074815,-0.0029910282499999996,10.08634546465,0.04489859500755413,-0.0038179077387375964,-0.048411070127192715,0.020860000000000004,0.48482000000000003,-0.45304,20.5,0,60,29,26,105,32.1118359375,116059,23.462863262266275,1000.9756829086724,0
2024-03-17T10:07:20,-0.32542387359999997,0.0334995164,10.088140081599997,0.039706240482871004,-0.0019853120241435504,-0.04489859500755413,0.020860000000000004,0.48482000000000003,-0.45304,20.5,0,60,29,26,105,32.1118359375,116059,23.462863262266275,1000.9756829086724,0
2024-03-17T10:07:20,-0.30149564759999997,0.017946169499999998,10.0534441539,0.04459316238845512,-0.0025961772623415654,-0.04535674393620265,0.025900000000000003,0.48482000000000003,-0.45808000000000004,20.5,0,60,29,26,105,32.1118359375,116059,23.462863262266275,1000.9756829086724,0
2024-03-17T10:07:20,-0.30149564759999997,0.011365907350000001,10.091729315499999,0.04657847441259867,-0.0013744467859455349,-0.04566217655530165,0.028700000000000003,0.49154000000000003,-0.4678800000000001,20.5,0,60,29,26,105,32.1258984375,116621,23.420661118572802,1000.9660329538872,0
2024-03-17T10:07:20,-0.26859433685,0.013758729949999998,10.04207824655,0.043676864531158106,0.0,-0.04581489286485116,0.02646,0.48342000000000007,-0.4631200000000001,20.5,0,60,29,26,105,32.1258984375,116621,23.420661118572802,1000.9660329538872,0
2024-03-17T10:07:20,-0.29910282499999996,0.020937197749999997,10.091729315499999,0.041996985126113565,-0.0016798794050445422,-0.04886921905584123,0.026740000000000003,0.49014,-0.44548000000000004,20.5,0,60,29,26,105,32.1258984375,116621,23.420661118572802,1000.9660329538872,0
2024-03-17T10:07:20,-0.2775674216,0.011964112999999998,10.068997500799998,0.04092797095926703,-0.001069014166846527,-0.048411070127192715,0.026740000000000003,0.49014,-0.44548000000000004,20.5,0,60,29,26,105,32.1258984375,116621,23.420661118572802,1000.9660329538872,0
2024-03-17T10:07:20,-0.2787638329,0.00658026215,10.070792117749999,0.041386119887915546,-0.0019853120241435504,-0.04382958084070761,0.030100000000000002,0.48314000000000007,-0.4620000000000001,20.5,0,60,29,26,105,32.1258984375,116621,23.420661118572802,1000.9660329538872,0
2024-03-17T10:07:20,-0.29491538544999996,0.030508488149999995,10.088140081599997,0.04505131131710364,-0.003207042500539581,-0.04566217655530165,0.025900000000000003,0.48202000000000006,-0.45598,20.5,0,60,29,26,105,32.1258984375,116621,23.420661118572802,1000.9660329538872,0
2024-03-17T10:07:20,-0.29012974025,0.014356935599999999,10.069595706449999,0.04230241774521256,0.00015271630954950385,-0.04948008429403925,0.03318,0.48118000000000005,-0.47026000000000007,20.5,0,60,29,26,105,32.1258984375,116621,23.420661118572802,1000.9660329538872,0
2024-03-17T10:07:20,-0.27577280465,-0.00418743955,10.0654082669,0.038331793696925465,-0.0054977871437821395,-0.05009094953223726,0.03318,0.48118000000000005,-0.47026000000000007,20.5,0,60,29,26,105,32.1391796875,117350,23.36221460476511,1000.9605160637541,0
2024-03-17T10:07:20,-0.28295127244999996,0.023330020349999998,10.088140081599997,0.03741549583962844,0.0007635815477475193,-0.0474947722698957,0.027020000000000002,0.48454,-0.45836000000000005,20.5,0,60,29,26,105,32.1391796875,117350,23.36221460476511,1000.9605160637541,0
2024-03-17T10:07:20,-0.2739781877,0.010169496049999999,10.1240324206,0.038942658935123484,0.00015271630954950385,-0.04077525464971753,0.029540000000000004,0.48090000000000005,-0.4572400000000001,20.5,0,60,29,26,105,32.1391796875,117350,23.36221460476511,1000.9605160637541,0
2024-03-17T10:07:20,-0.31046873235,-0.0167497582,10.0701939121,0.04092797095926703,-0.002901609881440573,-0.04566217655530165,0.025900000000000003,0.48566000000000004,-0.45570000000000005,20.5,0,60,29,26,105,32.1391796875,117350,23.36221460476511,1000.9605160637541,0
2024-03-17T10:07:20,-0.26979074815,-0.00658026215,10.062417238649997,0.047952921198544204,0.0012217304763960308,-0.04627304179349966,0.025900000000000003,0.48566000000000004,-0.45570000000000005,20.5,0,60,29,26,105,32.1391796875,117350,23.36221460476511,1000.9605160637541,0
2024-03-17T10:07:20,-0.3038884702,0.01256231865,10.079765202499999,0.0433714319120591,0.0006108652381980154,-0.04596760917440065,0.026180000000000002,0.48678000000000005,-0.46116,20.5,0,60,29,26,105,32.1391796875,117350,23.36221460476511,1000.9605160637541,0
2024-03-17T10:07:20,-0.2883351233,0.010169496049999999,10.07557776295,0.040317105721069016,-0.0009162978572970231,-0.04382958084070761,0.027020000000000002,0.48790000000000006,-0.4502400000000001,20.5,0,60,29,26,105,32.1391796875,117350,23.36221460476511,1000.9605160637541,0
2024-03-17T10:07:20,-0.28295127244999996,0.0346959277,10.110273690649999,0.039858956792420505,-0.003207042500539581,-0.0476474885794452,0.027020000000000002,0.48790000000000006,-0.4502400000000001,20.5,0,60,29,26,105,32.1524609375,116701,23.319982764595952,1000.9639937129961,0
2024-03-17T10:07:20,-0.28235306679999994,0.01615155255,10.09950598895,0.04153883619746505,-0.003054326190990077,-0.04520402762665314,0.024220000000000002,0.48762000000000005,-0.45584,20.5,0,60,29,26,105,32.1524609375,116701,23.319982764595952,1000.9639937129961,0
2024-03-17T10:07:20,-0.30807590975,0.01256231865,10.092327521149999,0.04612032548395016,-0.0036651914291880926,-0.04627304179349966,0.024220000000000002,0.48762000000000005,-0.45584,20.5,0,60,29,26,105,32.1524609375,116701,23.319982764595952,1000.9639937129961,0
2024-03-17T10:07:20,-0.30089744194999996,0.0370887503,10.064211855599998,0.04153883619746505,-0.0025961772623415654,-0.0433714319120591,0.02478,0.4837,-0.45402000000000003,20.5,0,60,29,26,105,32.1524609375,116701,23.319982764595952,1000.9639937129961,0
2024-03-17T10:07:20,-0.29371897415,-0.0011964113,10.088738287249999,0.04214970143566306,0.00015271630954950385,-0.04657847441259867,0.02114,0.48706000000000005,-0.4601800000000001,20.5,0,60,29,26,105,32.1524609375,116701,23.319982764595952,1000.9639937129961,0
2024-03-17T10:07:20,-0.2715853651,-0.0023928226,10.086943670299998,0.04321871560250959,-0.003207042500539581,-0.04734205596034619,0.02114,0.48706000000000005,-0.4601800000000001,20.5,0,60,29,26,105,32.1524609375,116701,23.319982764595952,1000.9639937129961,0
2024-03-17T10:07:21,-0.30149564759999997,0.0167497582,10.088738287249999,0.04092797095926703,-0.0068722339297276735,-0.04230241774521256,0.025060000000000002,0.48874000000000006,-0.46088000000000007,20.5,0,60,29,26,105,32.1524609375,116701,23.319982764595952,1000.9639937129961,0
2024-03-17T10:07:21,-0.26500510294999996,0.0191425808,10.12223780365,0.039095375244672985,-0.0009162978572970231,-0.04886921905584123,0.02142,0.48398,-0.46452000000000004,20.5,0,60,29,26,105,32.164765625,117678,23.2561088509829,1000.9730887504077,0
2024-03-17T10:07:21,-0.26500510294999996,0.020338992099999998,10.0558369765,0.040317105721069016,-0.0012217304763960308,-0.048258353817643214,0.02338,0.48202000000000006,-0.46452000000000004,20.5,0,60,29,26,105,32.164765625,117678,23.2561088509829,1000.9730887504077,0
2024-03-17T10:07:21,-0.28414768374999994,-0.0017946169499999999,10.097711372000001,0.04382958084070761,-0.0027488935718910697,-0.04550946024575215,0.026180000000000002,0.48510000000000003,-0.44996,20.5,0,60,29,26,105,32.164765625,117678,23.2561088509829,1000.9730887504077,0
2024-03-17T10:07:21,-0.3062812928,0.01734796385,10.080961613799998,0.04459316238845512,-0.0016798794050445422,-0.04734205596034619,0.01694,0.48930000000000007,-0.45458000000000004,20.5,0,60,29,26,105,32.164765625,117678,23.2561088509829,1000.9730887504077,0
2024-03-17T10:07:21,-0.28594230069999993,-0.005982056499999999,10.0941221381,0.04306599929296009,-0.0007635815477475193,-0.04321871560250959,0.01694,0.48930000000000007,-0.45458000000000004,20.5,0,60,29,26,105,32.164765625,117678,23.2561088509829,1000.9730887504077,0
2024-03-17T10:07:21,-0.42771703974999997,0.031106693799999998,10.107880868049998,0.041996985126113565,-0.0006108652381980154,-0.04673119072214818,0.02842,0.48062000000000005,-0.4561200000000001,20.5,0,60,29,26,105,32.164765625,117678,23.2561088509829,1000.9730887504077,0
2024-03-17T10:07:21,-0.3002992363,0.015553346899999999,10.07318494035,0.04306599929296009,0.00045814892864851157,-0.04535674393620265,0.027860000000000003,0.48818000000000006,-0.45696000000000003,20.5,0,60,29,26,105,32.164765625,117678,23.2561088509829,1000.9730887504077,0
2024-03-17T10:07:21,-0.27517459899999996,0.008973084749999999,10.07438135165,0.043676864531158106,-0.006261368691529657,-0.04886921905584123,0.027860000000000003,0.48818000000000006,-0.45696000000000003,20.5,0,60,29,26,105,32.1766796875,117514,23.229989623095854,1000.9689577877404,0
2024-03-17T10:07:21,-0.29312076849999996,0.0191425808,10.054042359550001,0.04153883619746505,-0.0013744467859455349,-0.04276056667386108,0.02142,0.48510000000000003,-0.4649400000000001,20.5,0,60,29,26,105,32.1766796875,117514,23.229989623095854,1000.9689577877404,0
2024-03-17T10:07:21,-0.27577280465,0.0083748791,10.086943670299998,0.04123340357836604,-0.003054326190990077,-0.04917465167494024,0.02142,0.48510000000000003,-0.4649400000000001,20.5,0,60,29,26,105,32.1766796875,117514,23.229989623095854,1000.9689577877404,0
2024-03-17T10:07:21,-0.28474588939999995,0.008973084749999999,10.111470101950001,0.038637226316024474,-0.0009162978572970231,-0.04810563750809371,0.027020000000000002,0.48342000000000007,-0.45640000000000003,20.5,0,60,29,26,105,32.1766796875,117514,23.229989623095854,1000.9689577877404,0
2024-03-17T10:07:21,-0.3098705267,0.025722842949999998,10.067801089499998,0.04245513405476207,-0.0027488935718910697,-0.0474947722698957,0.023100000000000002,0.47530000000000006,-0.46424000000000004,20.5,0,60,29,26,105,32.1766796875,117514,23.229989623095854,1000.9689577877404,0
2024-03-17T10:07:21,-0.3176472001499999,0.005982056499999999,10.062417238649997,0.04276056667386108,-0.0035124751196385882,-0.04550946024575215,0.023100000000000002,0.47530000000000006,-0.46424000000000004,20.5,0,60,29,26,105,32.1766796875,117514,23.229989623095854,1000.9689577877404,0
2024-03-17T10:07:21,-0.28773691765000003,0.04007977854999999,10.101300605899999,0.04505131131710364,-0.001069014166846527,-0.043982297150257116,0.027860000000000003,0.48482000000000003,-0.4478600000000001,20.5,0,60,29,26,105,32.1766796875,117514,23.229989623095854,1000.9689577877404,0
2024-03-17T10:07:21,-0.30747770409999997,0.014955141249999998,10.23709328845,0.04718933965079669,-0.0035124751196385882,-0.0474947722698957,0.02198,0.48314000000000007,-0.47068000000000004,20.5,0,60,29,26,105,32.1878125,117842,23.176853758749406,1000.9725592856803,0
2024-03-17T10:07:21,-0.29132615154999997,0.024526431649999996,10.062417238649997,0.04001167310197001,0.003207042500539581,-0.04978551691313826,0.021700000000000004,0.48846000000000006,-0.4537400000000001,20.5,0,60,29,26,105,32.1878125,117842,23.176853758749406,1000.9725592856803,0
2024-03-17T10:07:21,-0.2679961312,-0.14117653339999997,10.052247742599999,0.041080687268816536,-0.0068722339297276735,-0.049938233222687756,0.028980000000000002,0.48314000000000007,-0.46480000000000005,20.5,0,60,29,26,105,32.1878125,117842,23.176853758749406,1000.9725592856803,0
2024-03-17T10:07:21,-0.2967100024,0.013758729949999998,10.229914820649999,0.03665191429188092,-0.004123340357836604,-0.0435241482216086,0.028980000000000002,0.48314000000000007,-0.46480000000000005,20.5,0,60,29,26,105,32.1878125,117842,23.176853758749406,1000.9725592856803,0
2024-03-17T10:07:21,-0.29611179675,-0.0023928226,10.09830957765,0.04413501345980661,-0.005192354524683131,-0.04566217655530165,0.023660000000000004,0.48510000000000003,-0.46228,20.5,0,60,29,26,105,32.1878125,117842,23.176853758749406,1000.9725592856803,0
2024-03-17T10:07:21,-0.28055844984999995,0.0023928226,10.11505933585,0.04321871560250959,-0.0025961772623415654,-0.0474947722698957,0.029540000000000004,0.47838,-0.45304,20.5,0,60,29,26,105,32.1878125,117842,23.176853758749406,1000.9725592856803,0
2024-03-17T10:07:21,-0.27517459899999996,0.00658026215,10.04985492,0.038942658935123484,-0.0033597588100890844,-0.04520402762665314,0.029540000000000004,0.47838,-0.45304,20.5,0,60,29,26,105,32.1878125,117842,23.176853758749406,1000.9725592856803,0
2024-03-17T10:07:21,-0.2775674216,0.02691925425,10.039087218299999,0.04077525464971753,-0.0003054326190990077,-0.0474947722698957,0.018060000000000003,0.48314000000000007,-0.46172,20.5,0,60,29,26,105,32.19875,117514,23.139894642675973,1000.9812423669871,0
2024-03-17T10:07:21,-0.2895315346,0.028115665550000002,10.077970585549998,0.04260785036431157,-0.0003054326190990077,-0.04230241774521256,0.022260000000000002,0.48454,-0.4625600000000001,20.5,0,60,29,26,105,32.19875,117514,23.139894642675973,1000.9812423669871,0
2024-03-17T10:07:21,-0.30867411539999995,0.024526431649999996,10.164112199149999,0.04077525464971753,-0.0018325957145940463,-0.0435241482216086,0.02254,0.48678000000000005,-0.45514000000000004,20.5,0,60,29,26,105,32.19875,117514,23.139894642675973,1000.9812423669871,0
2024-03-17T10:07:21,-0.2727817764,0.021535403399999997,10.11505933585,0.043676864531158106,-0.0013744467859455349,-0.04550946024575215,0.02254,0.48678000000000005,-0.45514000000000004,20.5,0,60,29,26,105,32.19875,117514,23.139894642675973,1000.9812423669871,0
2024-03-17T10:07:21,-0.2907279459,0.038883367249999995,10.0319087505,0.04123340357836604,-0.002138028333693054,-0.04520402762665314,0.035980000000000005,0.48958,-0.4432400000000001,20.5,0,60,29,26,105,32.19875,117514,23.139894642675973,1000.9812423669871,0
2024-03-17T10:07:21,-0.29491538544999996,0.007178467799999999,10.0701939121,0.04535674393620265,-0.002901609881440573,-0.043676864531158106,0.024220000000000002,0.48566000000000004,-0.45584,20.5,0,60,29,26,105,32.19875,117514,23.139894642675973,1000.9812423669871,0
2024-03-17T10:07:21,-0.2895315346,0.0077766734499999995,10.11386292455,0.041844268816564056,-0.0006108652381980154,-0.04657847441259867,0.02842,0.47614000000000006,-0.45472,20.5,0,60,29,26,105,32.19875,117514,23.139894642675973,1000.9812423669871,0
2024-03-17T10:07:21,-0.27337998204999997,0.0035892338999999997,10.0462656861,0.04123340357836604,0.0013744467859455349,-0.04642575810304917,0.02842,0.47614000000000006,-0.45472,20.5,0,60,29,26,105,32.2098828125,118338,23.086790242158017,1000.9758467445032,0
2024-03-17T10:07:21,-0.27936203854999997,0.0011964113,10.08155981945,0.038484510006474966,-0.0018325957145940463,-0.04627304179349966,0.03234,0.49154000000000003,-0.4537400000000001,20.5,0,60,29,26,105,32.2098828125,118338,23.086790242158017,1000.9758467445032,0
2024-03-17T10:07:21,-0.27816562724999994,0.0263210486,10.097711372000001,0.041996985126113565,-0.003054326190990077,-0.0476474885794452,0.03234,0.49154000000000003,-0.4537400000000001,20.5,0,60,29,26,105,32.2098828125,118338,23.086790242158017,1000.9758467445032,0
2024-03-17T10:07:21,-0.3098705267,0.010767701699999998,10.0474620974,0.04046982203061852,-0.0003054326190990077,-0.04596760917440065,0.020300000000000002,0.48230000000000006,-0.44604000000000005,20.5,0,60,29,26,105,32.2098828125,118338,23.086790242158017,1000.9758467445032,0
2024-03-17T10:07:21,-0.30209385325,0.0334995164,10.1168539528,0.04001167310197001,-0.0015271630954950385,-0.04214970143566306,0.023100000000000002,0.48678000000000005,-0.44996,20.5,0,60,29,26,105,32.2098828125,118338,23.086790242158017,1000.9758467445032,0
2024-03-17T10:07:21,-0.3152543775499999,-0.005383850849999999,10.202397360749998,0.04245513405476207,-0.004886921905584123,-0.048258353817643214,0.023100000000000002,0.48678000000000005,-0.44996,20.5,0,60,29,26,105,32.2098828125,118338,23.086790242158017,1000.9758467445032,0
2024-03-17T10:07:21,-0.2907279459,0.01256231865,10.0929257268,0.043676864531158106,-0.003970624048287101,-0.04734205596034619,0.030660000000000003,0.48622000000000004,-0.45094000000000006,20.5,0,60,29,26,105,32.2098828125,118338,23.086790242158017,1000.9758467445032,0
2024-03-17T10:07:21,-0.29850461935,0.013758729949999998,10.08395264205,0.03756821214917795,-0.0025961772623415654,-0.04810563750809371,0.022260000000000002,0.48650000000000004,-0.45976000000000006,20.5,0,60,29,26,105,32.2208203125,118090,23.049852419595126,1000.9809304889086,0
2024-03-17T10:07:22,-0.28474588939999995,0.014356935599999999,10.1359965336,0.04123340357836604,-0.0054977871437821395,-0.04550946024575215,0.029540000000000004,0.48650000000000004,-0.4543000000000001,20.5,0,60,29,26,104,32.2208203125,118090,23.049852419595126,1000.9809304889086,0
2024-03-17T10:07:22,-0.29730820804999997,0.0251246373,10.100702400249999,0.041080687268816536,-0.004276056667386108,-0.04703662334124718,0.02478,0.48398,-0.4596200000000001,20.5,0,60,29,26,104,32.2208203125,118090,23.049852419595126,1000.9809304889086,0
2024-03-17T10:07:22,-0.29371897415,0.013758729949999998,10.085149053349998,0.03604104905368291,0.0,-0.04291328298341058,0.02478,0.48398,-0.4596200000000001,20.5,0,60,29,26,104,32.2208203125,118090,23.049852419595126,1000.9809304889086,0
2024-03-17T10:07:22,-0.4366901245,-0.013758729949999998,10.076774174250001,0.04535674393620265,-0.005039638215133627,-0.051007247389534285,0.020020000000000003,0.48538000000000003,-0.4561200000000001,20.5,0,60,29,26,104,32.2208203125,118090,23.049852419595126,1000.9809304889086,0
2024-03-17T10:07:22,-0.29252256285,0.00059820565,10.11864856975,0.04245513405476207,-0.003970624048287101,-0.04688390703169768,0.016380000000000002,0.48902000000000007,-0.4478600000000001,20.5,0,60,29,26,104,32.2208203125,118090,23.049852419595126,1000.9809304889086,0
2024-03-17T10:07:22,-0.29611179675,0.025722842949999998,10.109675485,0.039400807863771994,-0.001069014166846527,-0.0476474885794452,0.016380000000000002,0.48902000000000007,-0.4478600000000001,20.5,0,60,29,26,104,32.2208203125,118090,23.049852419595126,1000.9809304889086,0
2024-03-17T10:07:22,-0.27218357075,0.01256231865,10.085149053349998,0.04612032548395016,0.0003054326190990077,-0.04810563750809371,0.025900000000000003,0.48426,-0.45654,20.5,0,60,29,26,104,32.2294140625,117842,23.007370330023388,1000.9714296825684,0
2024-03-17T10:07:22,-0.21236300575,-0.040677984199999996,10.06361364995,0.050396382151336266,0.00916297857297023,-0.051159963699083794,0.025900000000000003,0.48454,-0.45542,20.5,0,60,29,26,104,32.2294140625,117842,23.007370330023388,1000.9714296825684,0
2024-03-17T10:07:22,-0.38943187814999997,0.11186445655,10.177272723449999,0.028405233576207715,-0.010842857978014774,-0.04489859500755413,0.024220000000000002,0.48902000000000007,-0.45976000000000006,20.5,0,60,29,26,104,32.2294140625,117842,23.007370330023388,1000.9714296825684,0
2024-03-17T10:07:22,-0.26500510294999996,0.023330020349999998,10.076175968599998,0.04612032548395016,-0.003054326190990077,-0.04535674393620265,0.023660000000000004,0.48538000000000003,-0.45276000000000005,20.5,0,60,29,26,104,32.2294140625,117842,23.007370330023388,1000.9714296825684,0
2024-03-17T10:07:22,-0.2763710103,0.06759723845,10.068997500799998,0.04642575810304917,-0.0006108652381980154,-0.04688390703169768,0.023660000000000004,0.48538000000000003,-0.45276000000000005,20.5,0,60,29,26,104,32.2294140625,117842,23.007370330023388,1000.9714296825684,0
2024-03-17T10:07:22,-0.3212364340499999,-0.0646062102,10.085747258999998,0.037110063220529434,-0.0044287729769356115,-0.04444044607890562,0.025340000000000005,0.48482000000000003,-0.46214000000000005,20.5,0,60,29,26,104,32.2294140625,117842,23.007370330023388,1000.9714296825684,0
2024-03-17T10:07:22,-0.2967100024,-0.03529413334999999,10.06839929515,0.04688390703169768,-0.0003054326190990077,-0.04505131131710364,0.024220000000000002,0.4904200000000001,-0.44478,20.5,0,60,29,26,104,32.2294140625,117842,23.007370330023388,1000.9714296825684,0
2024-03-17T10:07:22,-0.2919243572,0.047856451999999994,10.11386292455,0.03756821214917795,-0.004581489286485115,-0.04382958084070761,0.033460000000000004,0.48566000000000004,-0.45066,20.5,0,60,29,26,104,32.2391796875,118338,22.970368013282098,1000.9764178058821,0
2024-03-17T10:07:22,-0.31226334929999994,-0.0011964113,10.1072826624,0.041691552507014555,-0.0022907446432425577,-0.04734205596034619,0.028980000000000002,0.48286000000000007,-0.44548000000000004,20.5,0,60,29,26,104,32.2391796875,118338,22.970368013282098,1000.9764178058821,0
2024-03-17T10:07:22,-0.33020951879999993,0.031106693799999998,10.085747258999998,0.04474587869800463,-0.004276056667386108,-0.050549098460885775,0.028980000000000002,0.48286000000000007,-0.4438000000000001,20.5,0,60,29,26,104,32.2391796875,118338,22.970368013282098,1000.9764178058821,0
2024-03-17T10:07:22,-0.31704899449999996,-0.005982056499999999,10.062417238649997,0.041691552507014555,-0.004886921905584123,-0.04627304179349966,0.02058,0.4898600000000001,-0.4438000000000001,20.5,0,60,29,26,104,32.2391796875,118338,22.970368013282098,1000.9764178058821,0
2024-03-17T10:07:22,-0.3218346397,0.0131605243,10.131809094049999,0.039706240482871004,-0.0015271630954950385,-0.04535674393620265,0.019180000000000003,0.47782,-0.44856000000000007,20.5,0,60,29,26,104,32.2391796875,118338,22.970368013282098,1000.9764178058821,0
2024-03-17T10:07:22,-0.29730820804999997,-0.0029910282499999996,10.071988529050001,0.041996985126113565,0.00015271630954950385,-0.04718933965079669,0.030100000000000002,0.48622000000000004,-0.4566800000000001,20.5,0,60,29,26,104,32.2391796875,118338,22.970368013282098,1000.9764178058821,0
2024-03-17T10:07:22,-0.29850461935,0.010767701699999998,10.125228831899998,0.041080687268816536,-0.004886921905584123,-0.04581489286485116,0.030100000000000002,0.48622000000000004,-0.4566800000000001,20.5,0,60,29,26,104,32.2391796875,118338,22.970368013282098,1000.9764178058821,0
2024-03-17T10:07:22,-0.25304098994999996,0.0263210486,10.08036340815,0.04276056667386108,-0.001069014166846527,-0.04886921905584123,0.032060000000000005,0.48566000000000004,-0.4590600000000001,20.5,0,60,29,26,104,32.2469921875,118504,22.927852885750568,1000.9800482288355,0
2024-03-17T10:07:22,-0.28893332894999996,0.04725824635,10.0295159279,0.04260785036431157,-0.002138028333693054,-0.04703662334124718,0.025900000000000003,0.4909800000000001,-0.45920000000000005,20.5,0,60,29,26,104,32.2469921875,118504,22.927852885750568,1000.9800482288355,0
2024-03-17T10:07:22,-0.28295127244999996,0.05084748024999999,10.10309522285,0.041386119887915546,-0.002901609881440573,-0.04581489286485116,0.030940000000000002,0.48846000000000006,-0.44954,20.5,0,60,29,26,104,32.2469921875,118504,22.927852885750568,1000.9800482288355,0
2024-03-17T10:07:22,-0.27696921594999996,0.00658026215,10.04207824655,0.04505131131710364,-0.004886921905584123,-0.04382958084070761,0.02058,0.4898600000000001,-0.44800000000000006,20.5,0,60,29,26,104,32.2469921875,118504,22.927852885750568,1000.9800482288355,0
2024-03-17T10:07:22,-0.23688943739999999,0.022133609050000003,10.08634546465,0.04581489286485116,0.0003054326190990077,-0.04642575810304917,0.02058,0.4898600000000001,-0.44800000000000006,20.5,0,60,29,26,104,32.2469921875,118504,22.927852885750568,1000.9800482288355,0
2024-03-17T10:07:22,-0.28055844984999995,0.010169496049999999,10.0438728635,0.039095375244672985,-0.0025961772623415654,-0.04657847441259867,0.027020000000000002,0.48202000000000006,-0.44884,20.5,0,60,29,26,104,32.2469921875,118504,22.927852885750568,1000.9800482288355,0
2024-03-17T10:07:22,-0.29611179675,0.00658026215,10.09352393245,0.038637226316024474,-0.005039638215133627,-0.04734205596034619,0.025900000000000003,0.4898600000000001,-0.44800000000000006,20.5,0,60,29,26,104,32.2469921875,118504,22.927852885750568,1000.9800482288355,0
2024-03-17T10:07:22,-0.29012974025,0.017946169499999998,10.033703367449998,0.03527746750593539,-0.0009162978572970231,-0.04260785036431157,0.025900000000000003,0.4898600000000001,-0.44800000000000006,20.5,0,60,29,26,104,32.2555859375,118255,22.87464321742896,1000.9813423856143,0
2024-03-17T10:07:22,-0.28235306679999994,0.01256231865,10.04088183525,0.041844268816564056,0.0007635815477475193,-0.04963280060358875,0.02142,0.49126000000000003,-0.46284000000000003,20.5,0,60,29,26,104,32.2555859375,118255,22.87464321742896,1000.9813423856143,0
2024-03-17T10:07:22,-0.30568308715,0.014955141249999998,10.088738287249999,0.04413501345980661,0.00045814892864851157,-0.0433714319120591,0.030660000000000003,0.49378000000000005,-0.4566800000000001,20.5,0,60,29,26,104,32.2555859375,118255,22.87464321742896,1000.9813423856143,0
2024-03-17T10:07:22,-0.2943171798,-0.00418743955,10.02532848835,0.04413501345980661,0.00045814892864851157,-0.04642575810304917,0.015540000000000002,0.49154000000000003,-0.45528,20.5,0,60,29,26,104,32.2555859375,118255,22.87464321742896,1000.9813423856143,0
2024-03-17T10:07:22,-0.27996024419999993,0.07178467799999999,10.1204431867,0.038789942625573975,-0.005039638215133627,-0.04581489286485116,0.015540000000000002,0.49154000000000003,-0.45528,20.5,0,60,29,26,104,32.2555859375,118255,22.87464321742896,1000.9813423856143,0
2024-03-17T10:07:22,-0.31944181709999997,0.0095712904,10.039685423949999,0.043982297150257116,-0.004276056667386108,-0.04596760917440065,0.022260000000000002,0.48314000000000007,-0.43932000000000004,20.5,0,60,29,26,104,32.2555859375,118255,22.87464321742896,1000.9813423856143,0
2024-03-17T10:07:22,-0.28654050634999995,0.00059820565,10.07916699685,0.04092797095926703,-0.0015271630954950385,-0.04444044607890562,0.01974,0.48342000000000007,-0.44632000000000005,20.5,0,60,29,26,104,32.2555859375,118255,22.87464321742896,1000.9813423856143,0
2024-03-17T10:07:22,-0.28295127244999996,0.024526431649999996,10.085747258999998,0.04230241774521256,-0.0025961772623415654,-0.04306599929296009,0.01974,0.48342000000000007,-0.44632000000000005,20.5,0,60,29,26,104,32.263984375,118255,22.8483358309169,1000.9769223190756,0
2024-03-17T10:07:22,-0.30448667585,0.005982056499999999,10.05643518215,0.041844268816564056,-0.0013744467859455349,-0.04718933965079669,0.026740000000000003,0.47894000000000003,-0.4548600000000001,20.5,0,60,29,26,104,32.263984375,118255,22.8483358309169,1000.9769223190756,0
2024-03-17T10:07:22,-0.28893332894999996,-0.005383850849999999,10.079765202499999,0.040317105721069016,-0.0024434609527920616,-0.04260785036431157,0.026740000000000003,0.47894000000000003,-0.4548600000000001,20.5,0,60,29,26,104,32.263984375,118255,22.8483358309169,1000.9769223190756,0
2024-03-17T10:07:22,-0.28414768374999994,0.01734796385,10.060024416049998,0.04566217655530165,-0.005345070834232635,-0.04856378643674222,0.02842,0.48594000000000004,-0.45178,20.5,0,60,29,26,104,32.263984375,118255,22.8483358309169,1000.9769223190756,0
2024-03-17T10:07:22,-0.30329026454999997,0.051445685899999996,10.092327521149999,0.038331793696925465,-0.0025961772623415654,-0.04535674393620265,0.02254,0.48706000000000005,-0.45332000000000006,20.5,0,60,29,26,104,32.263984375,118255,22.8483358309169,1000.9769223190756,0
2024-03-17T10:07:22,-0.2943171798,0.011964112999999998,10.061819032999999,0.04550946024575215,-0.001069014166846527,-0.047952921198544204,0.022260000000000002,0.49014,-0.45248,20.5,0,60,29,26,104,32.263984375,118255,22.8483358309169,1000.9769223190756,0
2024-03-17T10:07:22,-0.26979074815,0.011365907350000001,10.0821580251,0.04459316238845512,-0.003207042500539581,-0.04688390703169768,0.022260000000000002,0.49014,-0.45248,20.5,0,60,29,26,104,32.263984375,118255,22.8483358309169,1000.9769223190756,0
2024-03-17T10:07:23,-0.28175486115,0.007178467799999999,10.0725867347,0.04260785036431157,-0.0015271630954950385,-0.041996985126113565,0.025060000000000002,0.48930000000000007,-0.4625600000000001,20.5,0,60,29,26,104,32.2727734375,119006,22.805924626976783,1000.9767320393079,0
2024-03-17T10:07:23,-0.43250268495,0.005982056499999999,10.1539427031,0.04230241774521256,-0.003207042500539581,-0.04657847441259867,0.02198,0.49350000000000005,-0.46242,20.5,0,60,29,26,104,32.2727734375,119006,22.805924626976783,1000.9767320393079,0
2024-03-17T10:07:23,-0.2883351233,0.020937197749999997,10.09830957765,0.041996985126113565,-0.0016798794050445422,-0.04260785036431157,0.025060000000000002,0.49378000000000005,-0.45626000000000005,20.5,0,60,29,26,104,32.2727734375,119006,22.805924626976783,1000.9767320393079,0
2024-03-17T10:07:23,-0.28773691765000003,0.023928225999999997,10.076175968599998,0.041844268816564056,-0.0025961772623415654,-0.04505131131710364,0.029540000000000004,0.4898600000000001,-0.45836000000000005,20.5,0,60,29,26,104,32.2727734375,119006,22.805924626976783,1000.9767320393079,0
2024-03-17T10:07:23,-0.31106693799999996,0.00059820565,10.061819032999999,0.04474587869800463,-0.0007635815477475193,-0.04474587869800463,0.029540000000000004,0.4898600000000001,-0.45836000000000005,20.5,0,60,29,26,104,32.2727734375,119006,22.805924626976783,1000.9767320393079,0
2024-03-17T10:07:23,-0.26620151425,-0.011964112999999998,10.1312108884,0.041080687268816536,-0.0016798794050445422,-0.04474587869800463,0.030380000000000004,0.49350000000000005,-0.4513600000000001,20.5,0,60,29,26,104,32.2727734375,119006,22.805924626976783,1000.9767320393079,0
2024-03-17T10:07:23,-0.2739781877,0.020338992099999998,10.085149053349998,0.04077525464971753,-0.0016798794050445422,-0.04550946024575215,0.028980000000000002,0.48342000000000007,-0.44772,20.5,0,60,29,26,104,32.2727734375,119006,22.805924626976783,1000.9767320393079,0
2024-03-17T10:07:23,-0.30687949845,0.029910282499999996,10.08036340815,0.039553524173321496,-0.008552113334772215,-0.04703662334124718,0.028980000000000002,0.48342000000000007,-0.44772,20.5,0,60,29,26,104,32.2813671875,118671,22.779642522835296,1000.9744262778087,0
2024-03-17T10:07:23,-0.33200413574999993,-0.01256231865,10.0235338714,0.04474587869800463,-0.002901609881440573,-0.04550946024575215,0.02646,0.48930000000000007,-0.45934,21.5,0,60,29,26,104,32.2813671875,118671,22.779642522835296,1000.9744262778087,0
2024-03-17T10:07:23,-0.29910282499999996,0.0023928226,10.21196865115,0.039400807863771994,0.0015271630954950385,-0.04520402762665314,0.02646,0.48930000000000007,-0.45934,20.5,0,60,29,26,104,32.2813671875,118671,22.779642522835296,1000.9744262778087,0
2024-03-17T10:07:23,-0.27337998204999997,0.027517459899999996,9.916455060049998,0.04566217655530165,-0.0006108652381980154,-0.052534410485029326,0.020860000000000004,0.48818000000000006,-0.45766,20.5,0,60,29,26,104,32.2813671875,118671,22.779642522835296,1000.9744262778087,0
2024-03-17T10:07:23,-0.25124637299999997,0.02691925425,10.140782178799999,0.04077525464971753,-0.008399397025222712,-0.041996985126113565,0.02646,0.49546,-0.45346000000000003,20.5,0,60,29,26,104,32.2813671875,118671,22.779642522835296,1000.9744262778087,0
2024-03-17T10:07:23,-0.3236292566499999,0.011964112999999998,10.080961613799998,0.049021935365390734,-0.0012217304763960308,-0.04734205596034619,0.02646,0.49546,-0.45346000000000003,20.5,0,60,29,26,104,32.2813671875,118671,22.779642522835296,1000.9744262778087,0
2024-03-17T10:07:23,-0.30687949845,0.0077766734499999995,10.127023448849998,0.0,-0.0015271630954950385,-0.04718933965079669,0.028140000000000005,0.49462000000000006,-0.4655000000000001,20.5,0,60,29,26,104,32.2813671875,118671,22.779642522835296,1000.9744262778087,0
2024-03-17T10:07:23,-0.27098715944999996,-0.00418743955,10.1587283483,0.04550946024575215,-0.0007635815477475193,-0.04520402762665314,0.023660000000000004,0.48734000000000005,-0.46424000000000004,20.5,0,60,29,26,104,32.2883984375,119342,22.737126677378278,1000.9731938116081,0
2024-03-17T10:07:23,-0.29611179675,0.013758729949999998,10.080961613799998,0.04230241774521256,-0.0038179077387375964,-0.04703662334124718,0.01862,0.48482000000000003,-0.45304,20.5,0,61,29,26,105,32.2883984375,119342,22.737126677378278,1000.9731938116081,0
2024-03-17T10:07:23,-0.31345976059999997,-0.0011964113,10.137791150550001,0.04428772976935611,-0.004276056667386108,-0.04673119072214818,0.02842,0.48314000000000007,-0.44758000000000003,20.5,0,61,29,26,105,32.2883984375,119342,22.737126677378278,1000.9731938116081,0
2024-03-17T10:07:23,-0.28474588939999995,0.027517459899999996,10.130612682750002,0.039858956792420505,-0.0006108652381980154,-0.0435241482216086,0.02842,0.48314000000000007,-0.44758000000000003,20.5,0,61,29,26,105,32.2883984375,119342,22.737126677378278,1000.9731938116081,0
2024-03-17T10:07:23,-0.33738798659999997,0.027517459899999996,10.112666513249998,0.04306599929296009,-0.0036651914291880926,-0.048411070127192715,0.030380000000000004,0.48482000000000003,-0.4590600000000001,20.5,0,61,29,26,105,32.2883984375,119342,22.737126677378278,1000.9731938116081,0
2024-03-17T10:07:23,-0.2979064137,0.0131605243,10.061819032999999,0.039553524173321496,-0.004123340357836604,-0.050854531079984784,0.025900000000000003,0.48734000000000005,-0.45164000000000004,20.5,0,61,29,26,105,32.2883984375,119342,22.737126677378278,1000.9731938116081,0
2024-03-17T10:07:23,-0.30448667585,-0.00418743955,10.045069274799998,0.04505131131710364,-0.0013744467859455349,-0.0476474885794452,0.025900000000000003,0.48734000000000005,-0.45164000000000004,20.5,0,61,29,26,105,32.2883984375,119342,22.737126677378278,1000.9731938116081,0
2024-03-17T10:07:23,-0.26919254249999996,0.0047856452,10.080961613799998,0.040317105721069016,-0.0016798794050445422,-0.04673119072214818,0.02058,0.50078,-0.4561200000000001,20.5,0,61,29,26,105,32.29484375,119342,22.710704922846787,1000.9818111323056,0
2024-03-17T10:07:23,-0.20398812665,0.024526431649999996,10.128219860149999,0.03924809155422249,-0.006108652381980154,-0.048258353817643214,0.026740000000000003,0.49266000000000004,-0.4491200000000001,20.5,0,61,29,26,105,32.29484375,119342,22.710704922846787,1000.9818111323056,0
2024-03-17T10:07:23,-0.32662028489999995,0.05982056499999999,9.8739824589,0.043982297150257116,-0.0012217304763960308,-0.04520402762665314,0.030940000000000002,0.4949,-0.44842000000000004,20.5,0,61,29,26,105,32.29484375,119342,22.710704922846787,1000.9818111323056,0
2024-03-17T10:07:23,-0.3696910917,-0.005383850849999999,10.213763268099997,0.04535674393620265,-0.0018325957145940463,-0.043982297150257116,0.028140000000000005,0.48706000000000005,-0.45164000000000004,20.5,0,61,29,26,105,32.29484375,119342,22.710704922846787,1000.9818111323056,0
2024-03-17T10:07:23,-0.23330020349999997,-0.0323031051,10.12104139235,0.04688390703169768,-0.0022907446432425577,-0.04291328298341058,0.02478,0.5016200000000001,-0.46172,20.5,0,61,29,26,105,32.29484375,119342,22.710704922846787,1000.9818111323056,0
2024-03-17T10:07:23,-0.19441683624999997,0.062213387599999996,9.9972128228,0.038331793696925465,0.0006108652381980154,-0.04489859500755413,0.02478,0.5016200000000001,-0.46172,20.5,0,61,29,26,105,32.29484375,119342,22.710704922846787,1000.9818111323056,0
2024-03-17T10:07:23,-0.3355933696499999,0.06520441585,10.1611211709,0.041844268816564056,-0.0019853120241435504,-0.04428772976935611,0.01694,0.4898600000000001,-0.46480000000000005,20.5,0,61,29,26,105,32.29484375,119342,22.710704922846787,1000.9818111323056,0
2024-03-17T10:07:23,-0.33678978094999995,-0.007178467799999999,10.173085283899999,0.04077525464971753,-0.005192354524683131,-0.04428772976935611,0.023660000000000004,0.48874000000000006,-0.46382000000000007,20.5,0,61,29,26,105,32.3012890625,119174,22.6789142218159,1000.9706337246271,0
2024-03-17T10:07:23,-0.15672988029999999,0.037686955949999996,10.0582297991,0.03802636107782646,-0.003970624048287101,-0.041080687268816536,0.02254,0.49658,-0.45444000000000007,20.5,0,61,29,26,105,32.3012890625,119174,22.6789142218159,1000.9706337246271,0
2024-03-17T10:07:23,-0.28414768374999994,0.14416756165,10.106086251099997,0.04596760917440065,-0.002138028333693054,-0.04810563750809371,0.02254,0.49658,-0.45444000000000007,20.5,0,61,29,26,105,32.3012890625,119174,22.6789142218159,1000.9706337246271,0
2024-03-17T10:07:23,-0.28175486115,-0.0131605243,10.04566748045,0.04382958084070761,-0.0003054326190990077,-0.0476474885794452,0.024500000000000004,0.48594000000000004,-0.46074000000000004,20.5,0,61,29,26,105,32.3012890625,119174,22.6789142218159,1000.9706337246271,0
2024-03-17T10:07:23,-0.2715853651,0.01854437515,10.1132647189,0.043982297150257116,0.00045814892864851157,-0.048411070127192715,0.030100000000000002,0.49294000000000004,-0.45878,20.5,0,61,29,26,105,32.3012890625,119174,22.6789142218159,1000.9706337246271,0
2024-03-17T10:07:23,-0.28235306679999994,0.0502492746,10.143773207049998,0.041844268816564056,-0.0012217304763960308,-0.04612032548395016,0.030100000000000002,0.49294000000000004,-0.45878,20.5,0,61,29,26,105,32.3012890625,119174,22.6789142218159,1000.9706337246271,0
2024-03-17T10:07:23,-0.35413774480000004,0.025722842949999998,10.1024970172,0.04016438941151951,-0.0019853120241435504,-0.043676864531158106,0.02058,0.49350000000000005,-0.45164000000000004,20.5,0,61,29,26,105,32.3012890625,119174,22.6789142218159,1000.9706337246271,0
2024-03-17T10:07:23,-0.31345976059999997,-0.0023928226,10.0115697584,0.04566217655530165,-0.003054326190990077,-0.04703662334124718,0.022260000000000002,0.48846000000000006,-0.45066,20.5,0,61,29,26,105,32.3079296875,119258,22.636400090549685,1000.979566469999,0
2024-03-17T10:07:23,-0.28235306679999994,-0.00658026215,10.092327521149999,0.04123340357836604,-0.0025961772623415654,-0.04428772976935611,0.02478,0.48622000000000004,-0.45626000000000005,20.5,0,61,29,26,105,32.3079296875,119258,22.636400090549685,1000.979566469999,0
2024-03-17T10:07:24,-0.26739792554999997,-0.01256231865,9.984052298499998,0.0016798794050445422,-0.0019853120241435504,-0.04321871560250959,0.026740000000000003,0.48538000000000003,-0.46298,20.5,0,61,29,26,105,32.3079296875,119258,22.636400090549685,1000.979566469999,0
2024-03-17T10:07:24,-0.33080772444999995,0.005982056499999999,10.17607631215,0.040622538340168025,0.0,-0.04612032548395016,0.026740000000000003,0.48538000000000003,-0.46298,20.5,0,61,29,26,105,32.3079296875,119258,22.636400090549685,1000.979566469999,0
2024-03-17T10:07:24,-0.27218357075,0.023330020349999998,10.2269237924,0.0474947722698957,-0.0016798794050445422,-0.04444044607890562,0.02758,0.49014,-0.46466,20.5,0,61,29,26,105,32.3079296875,119258,22.636400090549685,1000.979566469999,0
2024-03-17T10:07:24,-0.24287149389999999,0.0167497582,10.069595706449999,0.03756821214917795,-0.0025961772623415654,-0.04550946024575215,0.02142,0.48454,-0.47068000000000004,20.5,0,61,29,26,105,32.3079296875,119258,22.636400090549685,1000.979566469999,0
2024-03-17T10:07:24,-0.31944181709999997,0.013758729949999998,10.013962581,0.038637226316024474,-0.005803219762881146,-0.04581489286485116,0.02142,0.48454,-0.47068000000000004,20.5,0,61,29,26,105,32.3079296875,119258,22.636400090549685,1000.979566469999,0
2024-03-17T10:07:24,-0.33080772444999995,-0.005383850849999999,10.101898811549999,0.041996985126113565,-0.004581489286485115,-0.04413501345980661,0.02338,0.49154000000000003,-0.47082000000000007,20.5,0,61,29,26,104,32.31359375,119090,22.609941247694028,1000.9833218173671,0
2024-03-17T10:07:24,-0.3355933696499999,-0.0095712904,10.158130142649997,0.04428772976935611,-0.0044287729769356115,-0.043676864531158106,0.02338,0.49182000000000003,-0.46298,20.5,0,61,29,26,104,32.31359375,119090,22.609941247694028,1000.9833218173671,0
2024-03-17T10:07:24,-0.23868405434999998,-0.0095712904,10.08395264205,0.04612032548395016,-0.0016798794050445422,-0.04780020488899471,0.02842,0.48958,-0.45626000000000005,20.5,0,61,29,26,104,32.31359375,119090,22.609941247694028,1000.9833218173671,0
2024-03-17T10:07:24,-0.2644068973,0.0526420972,10.076175968599998,0.039706240482871004,-0.0033597588100890844,-0.04642575810304917,0.02562,0.48566000000000004,-0.4660600000000001,20.5,0,61,29,26,104,32.31359375,119090,22.609941247694028,1000.9833218173671,0
2024-03-17T10:07:24,-0.34217363179999993,0.0029910282499999996,10.069595706449999,0.04245513405476207,-0.0068722339297276735,-0.04734205596034619,0.02562,0.48566000000000004,-0.4660600000000001,20.5,0,61,29,26,104,32.31359375,119090,22.609941247694028,1000.9833218173671,0
2024-03-17T10:07:24,-0.3212364340499999,0.014356935599999999,10.198209921199998,0.043676864531158106,-0.0016798794050445422,-0.04444044607890562,0.02562,0.49966000000000005,-0.45878,20.5,0,61,29,26,104,32.31359375,119090,22.609941247694028,1000.9833218173671,0
2024-03-17T10:07:24,-0.3236292566499999,-0.0083748791,10.071390323399998,0.04566217655530165,-0.0007635815477475193,-0.04489859500755413,0.023940000000000003,0.49014,-0.4590600000000001,20.5,0,61,29,26,104,32.31359375,119090,22.609941247694028,1000.9833218173671,0
2024-03-17T10:07:24,-0.27337998204999997,0.014356935599999999,10.060024416049998,0.041386119887915546,-0.001069014166846527,-0.040317105721069016,0.01946,0.49854000000000004,-0.4641,20.5,0,61,29,26,104,32.319453125,119851,22.567392571916038,1000.9747957549588,0
2024-03-17T10:07:24,-0.27218357075,-0.0047856452,10.13420191665,0.040622538340168025,-0.004276056667386108,-0.04642575810304917,0.01666,0.4979800000000001,-0.4513600000000001,20.5,0,61,29,26,104,32.319453125,119851,22.567392571916038,1000.9747957549588,0
2024-03-17T10:07:24,-0.28115665549999996,0.013758729949999998,10.130014477099998,0.04092797095926703,0.0016798794050445422,-0.0474947722698957,0.028700000000000003,0.49322000000000005,-0.45444000000000007,20.5,0,61,29,26,104,32.319453125,119851,22.567392571916038,1000.9747957549588,0
2024-03-17T10:07:24,-0.31465617189999995,0.04486542375,10.231111231949999,0.04321871560250959,-0.0012217304763960308,-0.04718933965079669,0.028700000000000003,0.49322000000000005,-0.45444000000000007,20.5,0,61,29,26,104,32.319453125,119851,22.567392571916038,1000.9747957549588,0
2024-03-17T10:07:24,-0.3212364340499999,0.010169496049999999,10.106086251099997,0.04428772976935611,0.0,-0.049021935365390734,0.02338,0.48930000000000007,-0.45276000000000005,20.5,0,61,29,26,104,32.319453125,119851,22.567392571916038,1000.9747957549588,0
2024-03-17T10:07:24,-0.2895315346,0.0029910282499999996,10.068997500799998,0.0435241482216086,-0.00045814892864851157,-0.04444044607890562,0.03262,0.4904200000000001,-0.45948,20.5,0,61,29,26,104,32.319453125,119851,22.567392571916038,1000.9747957549588,0
2024-03-17T10:07:24,-0.26979074815,0.0017946169499999999,10.0163554036,0.04230241774521256,-0.0007635815477475193,-0.0476474885794452,0.03262,0.4904200000000001,-0.45948,20.5,0,61,29,26,104,32.319453125,119851,22.567392571916038,1000.9747957549588,0
2024-03-17T10:07:24,-0.30687949845,0.024526431649999996,10.033703367449998,0.038484510006474966,-0.006108652381980154,-0.04627304179349966,0.025060000000000002,0.4974200000000001,-0.45584,20.5,0,61,29,26,104,32.32453125,119851,22.54627327788753,1000.9758043063309,0
2024-03-17T10:07:24,-0.29970103065,0.023330020349999998,10.0594262104,0.043676864531158106,-0.001069014166846527,-0.04230241774521256,0.027020000000000002,0.4968600000000001,-0.44758000000000003,20.5,0,61,29,26,104,32.32453125,119851,22.54627327788753,1000.9758043063309,0
2024-03-17T10:07:24,-0.3391826035499999,0.020937197749999997,10.13539832795,0.043676864531158106,-0.0016798794050445422,-0.043982297150257116,0.02758,0.49182000000000003,-0.46158000000000005,20.5,0,61,29,26,104,32.32453125,119851,22.54627327788753,1000.9758043063309,0
2024-03-17T10:07:24,-0.2943171798,-0.13758729949999998,10.097113166349997,0.04612032548395016,-0.0016798794050445422,-0.04673119072214818,0.026740000000000003,0.49126000000000003,-0.45332000000000006,20.5,0,61,29,26,104,32.32453125,119851,22.54627327788753,1000.9758043063309,0
2024-03-17T10:07:24,-0.28773691765000003,-0.011365907350000001,10.06361364995,0.043676864531158106,-0.00595593607243065,-0.048411070127192715,0.026740000000000003,0.49126000000000003,-0.45332000000000006,20.5,0,61,29,26,104,32.32453125,119851,22.54627327788753,1000.9758043063309,0
2024-03-17T10:07:24,-0.29730820804999997,0.020338992099999998,10.09830957765,0.04581489286485116,-0.0027488935718910697,-0.04489859500755413,0.02926,0.49266000000000004,-0.45794000000000007,20.5,0,61,29,26,104,32.32453125,119851,22.54627327788753,1000.9758043063309,0
2024-03-17T10:07:24,-0.27457639335,-0.0083748791,10.0929257268,0.03756821214917795,-0.0018325957145940463,-0.04001167310197001,0.02842,0.48622000000000004,-0.46480000000000005,20.5,0,61,29,26,104,32.32453125,119851,22.54627327788753,1000.9758043063309,0
2024-03-17T10:07:24,-0.30807590975,0.0334995164,10.127023448849998,0.041844268816564056,-0.002138028333693054,-0.049021935365390734,0.02842,0.48622000000000004,-0.46480000000000005,20.5,0,61,29,26,104,32.329609375,119511,22.509055511855742,1000.9696143715191,0
2024-03-17T10:07:24,-0.2787638329,-0.005982056499999999,10.176674517799999,0.039553524173321496,-0.0009162978572970231,-0.04535674393620265,0.022260000000000002,0.48314000000000007,-0.45066,20.5,0,61,29,26,104,32.329609375,119511,22.509055511855742,1000.9696143715191,0
2024-03-17T10:07:24,-0.24885355039999998,0.014356935599999999,10.11625574715,0.04550946024575215,-0.00015271630954950385,-0.04520402762665314,0.022260000000000002,0.48314000000000007,-0.45066,20.5,0,61,29,26,104,32.329609375,119511,22.509055511855742,1000.9696143715191,0
2024-03-17T10:07:24,-0.34995030525,0.02691925425,9.927222761749999,0.03390302071998985,-0.0036651914291880926,-0.04520402762665314,0.0357,0.49126000000000003,-0.43694000000000005,20.5,0,61,29,26,104,32.329609375,119511,22.509055511855742,1000.9696143715191,0
2024-03-17T10:07:24,-0.2763710103,0.03170489945,10.191031453399999,0.04780020488899471,-0.007177666548826681,-0.04413501345980661,0.028700000000000003,0.49014,-0.45248,20.5,0,61,29,26,104,32.329609375,119511,22.509055511855742,1000.9696143715191,0
2024-03-17T10:07:24,-0.30747770409999997,-0.022731814700000002,9.97148997985,0.04978551691313826,-0.001069014166846527,-0.04550946024575215,0.028700000000000003,0.49014,-0.45248,20.5,0,61,29,26,102,32.329609375,119511,22.509055511855742,1000.9696143715191,0
2024-03-17T10:07:24,-0.24646072779999997,0.023330020349999998,10.2448699619,0.03741549583962844,0.0003054326190990077,-0.04123340357836604,0.023660000000000004,0.48538000000000003,-0.4555600000000001,20.5,0,59,29,26,102,32.329609375,119511,22.509055511855742,1000.9696143715191,0
2024-03-17T10:07:24,-0.26380869165,0.022731814700000002,9.92363352785,0.04810563750809371,-0.0056505034533316425,-0.04520402762665314,0.028700000000000003,0.48846000000000006,-0.44898000000000005,20.5,0,59,29,26,102,32.334296875,119936,22.482551332887265,1000.9681917738169,0
2024-03-17T10:07:24,-0.24466611084999998,0.01256231865,10.14496961835,0.0435241482216086,-0.002901609881440573,-0.04459316238845512,0.02758,0.49014,-0.4537400000000001,20.5,0,59,29,26,102,32.334296875,119936,22.482551332887265,1000.9681917738169,0
2024-03-17T10:07:24,-0.29312076849999996,0.025722842949999998,10.07916699685,0.041996985126113565,-0.0038179077387375964,-0.04428772976935611,0.028980000000000002,0.48734000000000005,-0.46718000000000004,20.5,0,59,29,26,102,32.334296875,119936,22.482551332887265,1000.9681917738169,0
2024-03-17T10:07:24,-0.3505485109,0.0131605243,10.09591675505,0.0435241482216086,-0.003207042500539581,-0.04428772976935611,0.028980000000000002,0.48734000000000005,-0.46718000000000004,20.5,0,59,29,26,102,32.334296875,119936,22.482551332887265,1000.9681917738169,0
2024-03-17T10:07:24,-0.26500510294999996,0.020338992099999998,10.12941627145,0.038484510006474966,-0.0022907446432425577,-0.04627304179349966,0.027020000000000002,0.49574000000000007,-0.45304,20.5,0,59,29,26,102,32.334296875,119936,22.482551332887265,1000.9681917738169,0
2024-03-17T10:07:24,-0.23988046564999999,0.014955141249999998,9.9744810081,0.043982297150257116,-0.0027488935718910697,-0.0476474885794452,0.033460000000000004,0.49014,-0.46102000000000004,20.5,0,59,29,26,102,32.334296875,119936,22.482551332887265,1000.9681917738169,0
2024-03-17T10:07:24,-0.28773691765000003,0.01256231865,10.157531936999998,0.041691552507014555,-0.004123340357836604,-0.04291328298341058,0.033460000000000004,0.49014,-0.46102000000000004,20.5,0,59,29,26,102,32.334296875,119936,22.482551332887265,1000.9681917738169,0
2024-03-17T10:07:24,-0.28235306679999994,0.011964112999999998,10.060024416049998,0.040317105721069016,-0.0025961772623415654,-0.04505131131710364,0.03122,0.49014,-0.45808000000000004,20.5,0,59,29,26,102,32.339765625,120278,22.440013125446924,1000.9698312366671,0
2024-03-17T10:07:25,-0.32482566794999995,0.024526431649999996,10.050453125649998,0.038331793696925465,0.0018325957145940463,-0.0476474885794452,0.026740000000000003,0.48958,-0.45822,21.5,0,59,29,26,102,32.339765625,120278,22.440013125446924,1000.9698312366671,0
2024-03-17T10:07:25,-0.15852449724999998,0.0023928226,10.130612682750002,0.04489859500755413,-0.002138028333693054,-0.04581489286485116,0.025060000000000002,0.4949,-0.45808000000000004,20.5,0,59,29,26,102,32.339765625,120278,22.440013125446924,1000.9698312366671,0
2024-03-17T10:07:25,-0.31405796625,-0.00418743955,10.033703367449998,0.040622538340168025,-0.0015271630954950385,-0.0435241482216086,0.027860000000000003,0.4979800000000001,-0.45304,20.5,0,59,29,26,102,32.339765625,120278,22.440013125446924,1000.9698312366671,0
2024-03-17T10:07:25,-0.2608176634,0.0191425808,10.1132647189,0.04520402762665314,-0.0006108652381980154,-0.04917465167494024,0.027860000000000003,0.4979800000000001,-0.45304,20.5,0,59,29,26,102,32.339765625,120278,22.440013125446924,1000.9698312366671,0
2024-03-17T10:07:25,-0.2979064137,0.0382851616,10.0941221381,0.04153883619746505,0.0013744467859455349,-0.04474587869800463,0.023660000000000004,0.49210000000000004,-0.46270000000000006,20.5,0,59,29,26,102,32.339765625,120278,22.440013125446924,1000.9698312366671,0
2024-03-17T10:07:25,-0.2895315346,0.023928225999999997,10.083354436399997,0.04444044607890562,-0.004276056667386108,-0.04734205596034619,0.02562,0.49406000000000005,-0.46172,20.5,0,59,29,26,102,32.339765625,120278,22.440013125446924,1000.9698312366671,0
2024-03-17T10:07:25,-0.30448667585,-0.0047856452,10.0725867347,0.0435241482216086,-0.0019853120241435504,-0.04703662334124718,0.02562,0.49406000000000005,-0.46172,20.5,0,59,29,26,102,32.3454296875,120107,22.429679826350796,1000.9681869510167,0
2024-03-17T10:07:25,-0.3026920589,0.00059820565,10.085747258999998,0.041080687268816536,-0.005192354524683131,-0.04596760917440065,0.03178,0.48846000000000006,-0.46284000000000003,20.5,0,59,29,26,102,32.3454296875,120107,22.429679826350796,1000.9681869510167,0
