Timestamp,Accel_X,Accel_Y,Accel_Z,Gyro_X,Gyro_Y,Gyro_Z,Mag_X,Mag_Y,Mag_Z,LSM9DS1_Temp,Proximity,Color_R,Color_G,Color_B,Color_C,BME680_Temp,Gas,Humidity,Pressure,Switch_Pressed
2024-03-17T10:13:40,-0.27696921594999996,0.007178467799999999,9.87577707585,0.02138028333693054,0.020158552860534508,0.08750644537186571,0.0539,0.47922000000000003,-0.4548600000000001,19.5,0,0,0,0,0,33.574921875,34501,100,695.662002676745,0
2024-03-17T10:13:40,-0.2620140747,0.022731814700000002,9.8811609267,0.019394971312786988,0.025809056313866152,0.08842274322916273,0.045500000000000006,0.47558000000000006,-0.46578,19.5,0,0,0,0,0,33.574921875,34501,100,695.662002676745,0
2024-03-17T10:13:40,-0.26500510294999996,0.017946169499999998,9.88295554365,0.021532999646480044,0.021838432265579053,0.08735372906231621,0.049980000000000004,0.48762000000000005,-0.45584,19.5,0,0,0,0,0,33.574921875,34501,100,695.662002676745,0
2024-03-17T10:13:40,-0.28235306679999994,0.00658026215,9.89731247925,0.01710422666954443,0.020463985479633514,0.08582656596682116,0.049980000000000004,0.48762000000000005,-0.45584,19.5,0,0,0,0,0,33.574921875,34501,100,695.662002676745,0
2024-03-17T10:13:40,-0.28534409504999997,-0.0035892338999999997,9.8680004024,0.014355333097653362,0.024129176908821607,0.0870482964432172,0.0483,0.48006000000000004,-0.44856000000000007,19.5,0,0,0,0,0,33.574921875,34501,100,695.662002676745,0
2024-03-17T10:13:40,-0.2895315346,0.022133609050000003,9.870991430649998,0.020158552860534508,0.01786780821729195,0.08628471489546968,0.04914000000000001,0.48286000000000007,-0.44800000000000006,19.5,0,0,0,0,0,33.574921875,34501,100,695.662002676745,0
2024-03-17T10:13:40,-0.29132615154999997,0.031106693799999998,9.9014999188,0.0238237442897226,0.018478673455489966,0.08796459430051423,0.04914000000000001,0.48286000000000007,-0.44800000000000006,19.5,0,0,0,0,0,33.574921875,34501,100,695.662002676745,0
2024-03-17T10:13:40,-0.28055844984999995,0.011964112999999998,9.895517862299998,0.020005836550985007,0.019547687622336492,0.08735372906231621,0.054740000000000004,0.48958,-0.45808000000000004,19.5,0,0,0,0,0,26.7659375,12047,28.695556659080736,1000.9017473968786,0
2024-03-17T10:13:40,-0.26021945775,0.024526431649999996,9.878169898449999,0.01832595714594046,0.02306016274197508,0.08796459430051423,0.05194000000000001,0.48398,-0.4590600000000001,19.5,0,0,0,0,0,26.7659375,12047,28.695556659080736,1000.9017473968786,0
2024-03-17T10:13:40,-0.29312076849999996,0.029312076849999997,9.8991070962,0.01710422666954443,0.02168571595602955,0.09025533894375677,0.05138,0.48034000000000004,-0.46956000000000003,19.5,0,0,0,0,0,26.7659375,12047,28.695556659080736,1000.9017473968786,0
2024-03-17T10:13:40,-0.26979074815,0.013758729949999998,9.89970530185,0.020922134408282028,0.02107485071783153,0.08567384965727166,0.04578,0.48342000000000007,-0.4606,19.5,0,0,0,0,0,26.7659375,12047,28.695556659080736,1000.9017473968786,0
2024-03-17T10:13:40,-0.29132615154999997,0.01854437515,9.944570725599998,0.02260201381332657,0.01786780821729195,0.0907134878724053,0.04578,0.48342000000000007,-0.4606,19.5,0,0,0,0,0,26.7659375,12047,28.695556659080736,1000.9017473968786,0
2024-03-17T10:13:40,-0.27457639335,0.013758729949999998,9.9098747979,0.019242255003237483,0.019394971312786988,0.08735372906231621,0.045500000000000006,0.49238000000000004,-0.45220000000000005,19.5,0,0,0,0,0,26.7659375,12047,28.695556659080736,1000.9017473968786,0
2024-03-17T10:13:40,-0.2787638329,0.00658026215,9.96072227815,0.020769418098732523,0.021227567027381034,0.08689558013366769,0.051660000000000005,0.47502000000000005,-0.4555600000000001,19.5,0,0,0,0,0,26.7659375,12047,28.695556659080736,1000.9017473968786,0
2024-03-17T10:13:40,-0.3002992363,0.047856451999999994,9.9349994352,0.023976460599272102,0.0238237442897226,0.0872010127527667,0.051660000000000005,0.47502000000000005,-0.4555600000000001,19.5,0,0,0,0,0,27.0106640625,19299,28.760322360760263,1000.9054708918671,0
2024-03-17T10:13:40,-0.29012974025,-0.0077766734499999995,9.773483909699998,0.020158552860534508,0.020005836550985007,0.08811731061006371,0.04914000000000001,0.48006000000000004,-0.4536,19.5,0,0,0,0,0,27.0106640625,19299,28.760322360760263,1000.9054708918671,0
2024-03-17T10:13:40,-0.32243284534999994,0.07776673449999999,9.869196813699999,0.018478673455489966,0.017256942979093935,0.08796459430051423,0.04914000000000001,0.48006000000000004,-0.4536,19.5,0,0,0,0,0,27.0106640625,19299,28.760322360760263,1000.9054708918671,0
2024-03-17T10:13:40,-0.3176472001499999,-0.00059820565,9.882357337999998,0.01832595714594046,0.025350907385217638,0.08582656596682116,0.055580000000000004,0.47978000000000004,-0.4571,19.5,0,0,0,0,0,27.0106640625,19299,28.760322360760263,1000.9054708918671,0
2024-03-17T10:13:40,-0.2596212521,0.030508488149999995,9.9110712092,0.02351831167062359,0.020005836550985007,0.08689558013366769,0.04326000000000001,0.48734000000000005,-0.46270000000000006,19.5,0,0,0,0,0,27.0106640625,19299,28.760322360760263,1000.9054708918671,0
2024-03-17T10:13:40,-0.28594230069999993,-0.010169496049999999,9.80638522045,0.022754730122876075,0.020158552860534508,0.0832303887044796,0.04326000000000001,0.48734000000000005,-0.46270000000000006,19.5,0,0,0,0,0,27.0106640625,19299,28.760322360760263,1000.9054708918671,0
2024-03-17T10:13:40,-0.2883351233,0.0167497582,9.96909715725,0.019394971312786988,0.01893682238413848,0.08827002691961322,0.041580000000000006,0.48538000000000003,-0.45248,19.5,0,0,0,0,0,27.0106640625,19299,28.760322360760263,1000.9054708918671,0
2024-03-17T10:13:40,-0.27517459899999996,0.010767701699999998,9.911669414849998,0.018173240836390957,0.020769418098732523,0.08536841703817265,0.0511,0.48314000000000007,-0.4529,19.5,0,0,0,0,0,27.368671875,26394,28.801268077907622,1000.9234767161099,0
2024-03-17T10:13:40,-0.27996024419999993,0.013758729949999998,9.94277610865,0.017715091907742446,0.01893682238413848,0.08414668656177661,0.0427,0.49014,-0.4496800000000001,19.5,0,0,0,0,0,27.368671875,26394,28.801268077907622,1000.9234767161099,0
2024-03-17T10:13:41,-0.28893332894999996,0.020937197749999997,9.9469635482,0.016493361431346415,0.022754730122876075,0.0872010127527667,0.04186000000000001,0.47866000000000003,-0.44254000000000004,19.5,0,1845,871,668,3439,27.368671875,26394,28.801268077907622,1000.9234767161099,0
2024-03-17T10:13:41,-0.2763710103,0.015553346899999999,9.9170532657,0.017409659288643436,0.02260201381332657,0.0867428638241182,0.04186000000000001,0.47866000000000003,-0.44254000000000004,19.5,0,1845,871,668,3439,27.368671875,26394,28.801268077907622,1000.9234767161099,0
2024-03-17T10:13:41,-0.26500510294999996,0.04366901245,9.9756774194,0.020922134408282028,0.018784106074588976,0.08399397025222713,0.045500000000000006,0.48594000000000004,-0.45948,19.5,0,1845,871,668,3439,27.368671875,26394,28.801268077907622,1000.9234767161099,0
2024-03-17T10:13:41,-0.26739792554999997,0.038883367249999995,9.9756774194,0.021532999646480044,0.021838432265579053,0.08964447370555875,0.04438,0.48706000000000005,-0.46158000000000005,19.5,0,1845,871,668,3439,27.368671875,26394,28.801268077907622,1000.9234767161099,0
2024-03-17T10:13:41,-0.30149564759999997,0.04725824635,9.930213789999998,0.018784106074588976,0.020311269170084013,0.08781187799096472,0.04438,0.48706000000000005,-0.46158000000000005,19.5,0,1845,871,668,3439,27.368671875,26394,28.801268077907622,1000.9234767161099,0
2024-03-17T10:13:41,-0.27517459899999996,-0.005982056499999999,9.9338030239,0.021991148575128558,0.02107485071783153,0.0907134878724053,0.054180000000000006,0.48930000000000007,-0.45682000000000006,19.5,0,1845,871,668,3439,27.753046875,32889,28.833406930228577,1000.9444689754223,0
2024-03-17T10:13:41,-0.28055844984999995,0.035892338999999995,9.9696953629,0.019700403931885997,0.020769418098732523,0.08659014751456869,0.0539,0.48482000000000003,-0.45752000000000004,19.5,0,1845,871,668,3439,27.753046875,32889,28.833406930228577,1000.9444689754223,0
2024-03-17T10:13:41,-0.29312076849999996,0.01734796385,9.9565348386,0.015729779883598898,0.021838432265579053,0.08796459430051423,0.05138,0.49182000000000003,-0.44828,19.5,0,1845,871,668,3439,27.753046875,32889,28.833406930228577,1000.9444689754223,0
2024-03-17T10:13:41,-0.27337998204999997,0.0382851616,10.007980524499999,0.022449297503777065,0.018020524526841455,0.09056077156285579,0.043820000000000005,0.48762000000000005,-0.45122,19.5,0,1845,871,668,3439,27.753046875,32889,28.833406930228577,1000.9444689754223,0
2024-03-17T10:13:41,-0.28055844984999995,0.021535403399999997,9.988239738049998,0.020463985479633514,0.02229658119422756,0.08857545953871222,0.046340000000000006,0.49322000000000005,-0.44702000000000003,19.5,0,1845,871,668,3439,27.753046875,32889,28.833406930228577,1000.9444689754223,0
2024-03-17T10:13:41,-0.27816562724999994,0.013758729949999998,9.9876415324,0.019547687622336492,0.019547687622336492,0.08536841703817265,0.046340000000000006,0.49322000000000005,-0.44702000000000003,19.5,0,1845,871,668,3439,27.753046875,32889,28.833406930228577,1000.9444689754223,0
2024-03-17T10:13:41,-0.28773691765000003,0.0131605243,9.954142015999999,0.017409659288643436,0.021991148575128558,0.08872817584826173,0.046060000000000004,0.4837,-0.45234,19.5,0,1845,871,668,3439,27.753046875,32889,28.833406930228577,1000.9444689754223,0
2024-03-17T10:13:41,-0.2679961312,0.0394815729,9.9122676205,0.019700403931885997,0.02061670178918302,0.08597928227637067,0.050260000000000006,0.48706000000000005,-0.44926000000000005,19.5,0,1845,871,668,3439,28.1204296875,39029,28.847512317591086,1000.9515262294963,0
2024-03-17T10:13:41,-0.28534409504999997,0.022133609050000003,9.986445121099997,0.019547687622336492,0.019242255003237483,0.08827002691961322,0.04746000000000001,0.48426,-0.4424,19.5,0,1845,871,668,3439,28.1204296875,39029,28.847512317591086,1000.9515262294963,0
2024-03-17T10:13:41,-0.3176472001499999,0.022133609050000003,9.995418205850001,0.020922134408282028,0.02229658119422756,0.08552113334772216,0.04746000000000001,0.48426,-0.4424,19.5,0,1845,871,668,3439,28.1204296875,39029,28.847512317591086,1000.9515262294963,0
2024-03-17T10:13:41,-0.27816562724999994,0.041874395499999995,10.027123105299998,0.019853120241435502,0.020311269170084013,0.08979719001510826,0.04186000000000001,0.4974200000000001,-0.44296,19.5,0,1845,871,668,3439,28.1204296875,39029,28.847512317591086,1000.9515262294963,0
2024-03-17T10:13:41,-0.26261228035,0.020338992099999998,9.98225768155,0.02260201381332657,0.020005836550985007,0.0867428638241182,0.0483,0.48902000000000007,-0.43526000000000004,19.5,0,1845,871,668,3439,28.1204296875,39029,28.847512317591086,1000.9515262294963,0
2024-03-17T10:13:41,-0.27577280465,0.0167497582,10.00259667365,0.02504547476611863,0.022449297503777065,0.08857545953871222,0.04578,0.48538000000000003,-0.44814000000000004,19.5,0,1845,871,668,3439,28.1204296875,39029,28.847512317591086,1000.9515262294963,0
2024-03-17T10:13:41,-0.2955135911,0.0191425808,9.979266653299998,0.02107485071783153,0.016798794050445424,0.0829249560853806,0.04578,0.48538000000000003,-0.44814000000000004,19.5,0,1845,871,668,3439,28.1204296875,39029,28.847512317591086,1000.9515262294963,0
2024-03-17T10:13:41,-0.27816562724999994,0.0334995164,9.985248709799999,0.020922134408282028,0.021227567027381034,0.08811731061006371,0.05362000000000001,0.48510000000000003,-0.45346000000000003,19.5,0,1845,871,668,3439,28.4536328125,44359,28.842083729685598,1000.9561564933719,0
2024-03-17T10:13:41,-0.30927232104999997,0.01734796385,9.98704332675,0.020769418098732523,0.02107485071783153,0.08842274322916273,0.048580000000000005,0.48790000000000006,-0.44716,19.5,0,1845,871,668,3439,28.4536328125,44359,28.842083729685598,1000.9561564933719,0
2024-03-17T10:13:41,-0.27218357075,0.15134602945,10.0666046782,0.016493361431346415,0.025656340004316647,0.08567384965727166,0.05586000000000001,0.4949,-0.4537400000000001,19.5,0,1845,871,668,3439,28.4536328125,44359,28.842083729685598,1000.9561564933719,0
2024-03-17T10:13:41,-0.2883351233,0.01615155255,9.97388280245,0.021227567027381034,0.016798794050445424,0.08811731061006371,0.05586000000000001,0.4949,-0.4537400000000001,19.5,0,1845,871,668,3439,28.4536328125,44359,28.842083729685598,1000.9561564933719,0
2024-03-17T10:13:41,-0.28773691765000003,0.005982056499999999,9.98943614935,0.022143864884678056,0.018478673455489966,0.08811731061006371,0.046900000000000004,0.48454,-0.44114000000000003,19.5,0,1845,871,668,3439,28.4536328125,44359,28.842083729685598,1000.9561564933719,0
2024-03-17T10:13:41,-0.27337998204999997,0.0334995164,9.986445121099997,0.020922134408282028,0.015118914645400881,0.09056077156285579,0.04718000000000001,0.49182000000000003,-0.45836000000000005,19.5,0,1845,871,668,3439,28.4536328125,44359,28.842083729685598,1000.9561564933719,0
2024-03-17T10:13:41,-0.32422746229999994,0.0047856452,9.9469635482,0.01863138976503947,0.020769418098732523,0.08796459430051423,0.05278000000000001,0.49238000000000004,-0.4478600000000001,19.5,0,1845,871,668,3439,28.4536328125,44359,28.842083729685598,1000.9561564933719,0
2024-03-17T10:13:41,-0.25722842949999997,0.023330020349999998,10.00259667365,0.01863138976503947,0.021227567027381034,0.08796459430051423,0.05278000000000001,0.49238000000000004,-0.4478600000000001,19.5,0,1845,871,668,3439,28.74953125,49452,28.82796914907628,1000.9641741870056,0
2024-03-17T10:13:41,-0.2727817764,0.0017946169499999999,10.00498949625,0.021838432265579053,0.020311269170084013,0.08903360846736075,0.05698,0.48454,-0.44646,19.5,0,1843,870,668,3439,28.74953125,49452,28.82796914907628,1000.9641741870056,0
2024-03-17T10:13:41,-0.2895315346,0.02691925425,9.957133044249998,0.02107485071783153,0.020769418098732523,0.08399397025222713,0.04494000000000001,0.49350000000000005,-0.4531800000000001,19.5,0,1843,870,668,3439,28.74953125,49452,28.82796914907628,1000.9641741870056,0
2024-03-17T10:13:41,-0.27577280465,0.02691925425,9.98943614935,0.020158552860534508,0.01786780821729195,0.08613199858592017,0.04438,0.49210000000000004,-0.44338000000000005,19.5,0,1843,870,668,3439,28.74953125,49452,28.82796914907628,1000.9641741870056,0
2024-03-17T10:13:41,-0.29611179675,0.0263210486,9.997811028449998,0.019242255003237483,0.021227567027381034,0.08811731061006371,0.04438,0.49210000000000004,-0.4537400000000001,19.5,0,1843,870,668,3439,28.74953125,49452,28.82796914907628,1000.9641741870056,0
2024-03-17T10:13:41,-0.2943171798,0.005383850849999999,10.001998467999998,0.019547687622336492,0.020463985479633514,0.09025533894375677,0.046900000000000004,0.48650000000000004,-0.4537400000000001,19.5,0,1843,870,668,3439,28.74953125,49452,28.82796914907628,1000.9641741870056,0
2024-03-17T10:13:41,-0.31106693799999996,0.020937197749999997,10.012766169699999,0.019853120241435502,0.02504547476611863,0.08811731061006371,0.0441,0.48482000000000003,-0.45094000000000006,19.5,0,1843,870,668,3439,28.74953125,49452,28.82796914907628,1000.9641741870056,0
2024-03-17T10:13:41,-0.28055844984999995,0.00059820565,9.927222761749999,0.017409659288643436,0.020311269170084013,0.0870482964432172,0.05138,0.48874000000000006,-0.46522,19.5,0,1843,870,668,3439,29.0075390625,53941,28.788349180617367,1000.9694083192662,0
2024-03-17T10:13:41,-0.2967100024,0.005383850849999999,9.994820000199999,0.02107485071783153,0.02061670178918302,0.09010262263420728,0.05054000000000001,0.48650000000000004,-0.45598,20.5,0,1843,870,668,3439,29.0075390625,53941,28.788349180617367,1000.9694083192662,0
2024-03-17T10:13:41,-0.2703889538,0.020937197749999997,9.985846915449999,0.018020524526841455,0.015729779883598898,0.08765916168141522,0.04942,0.49546,-0.45808000000000004,20.5,0,1843,870,668,3439,29.0075390625,53941,28.788349180617367,1000.9694083192662,0
2024-03-17T10:13:41,-0.29252256285,0.017946169499999998,9.9469635482,0.019547687622336492,0.019547687622336492,0.0870482964432172,0.04942,0.49546,-0.45808000000000004,19.5,0,1843,870,668,3439,29.0075390625,53941,28.788349180617367,1000.9694083192662,0
2024-03-17T10:13:41,-0.28773691765000003,0.01734796385,10.043274657849999,0.020158552860534508,0.02290744643242558,0.08659014751456869,0.053340000000000005,0.48118000000000005,-0.45150000000000007,19.5,0,1843,870,668,3439,29.0075390625,53941,28.788349180617367,1000.9694083192662,0
2024-03-17T10:13:41,-0.29371897415,0.035892338999999995,10.02054284315,0.01893682238413848,0.01756237559819294,0.08735372906231621,0.047740000000000005,0.49266000000000004,-0.4466,19.5,0,1843,870,668,3439,29.0075390625,53941,28.788349180617367,1000.9694083192662,0
2024-03-17T10:13:41,-0.2835494781,0.021535403399999997,10.015757197949998,0.017715091907742446,0.020769418098732523,0.08781187799096472,0.047740000000000005,0.49266000000000004,-0.4466,19.5,0,1843,870,668,3439,29.0075390625,53941,28.788349180617367,1000.9694083192662,0
2024-03-17T10:13:41,-0.26919254249999996,0.022133609050000003,10.030712339199999,0.01756237559819294,0.01664607774089592,0.08491026810952414,0.03962,0.48398,-0.45332000000000006,19.5,0,1843,870,668,3439,29.231953125,58302,28.734729284251323,1000.9717925697084,0
2024-03-17T10:13:42,-0.2644068973,0.020937197749999997,10.03848901265,0.020463985479633514,0.023212879051524585,0.08903360846736075,0.051660000000000005,0.48902000000000007,-0.44282000000000005,20.5,0,1843,870,668,3439,29.231953125,58302,28.734729284251323,1000.9717925697084,0
2024-03-17T10:13:42,-0.29012974025,0.0011964113,10.070792117749999,0.02107485071783153,0.020005836550985007,0.08888089215781124,0.04914000000000001,0.49322000000000005,-0.43932000000000004,20.5,0,1843,870,668,3439,29.231953125,58302,28.734729284251323,1000.9717925697084,0
2024-03-17T10:13:42,-0.30448667585,0.031106693799999998,9.994221794549999,0.021991148575128558,0.020311269170084013,0.08949175739600926,0.04242,0.49294000000000004,-0.44884,19.5,0,1843,870,668,3439,29.231953125,58302,28.734729284251323,1000.9717925697084,0
2024-03-17T10:13:42,-0.15912270289999997,0.03170489945,10.019944637499998,0.024129176908821607,0.02336559536107409,0.08521570072862314,0.04242,0.49294000000000004,-0.44884,20.5,0,1843,870,668,3439,29.231953125,58302,28.734729284251323,1000.9717925697084,0
2024-03-17T10:13:42,-0.23748764304999997,0.032901310749999996,10.11864856975,0.021532999646480044,0.019547687622336492,0.0867428638241182,0.05614000000000001,0.48454,-0.45178,20.5,0,1843,870,668,3439,29.231953125,58302,28.734729284251323,1000.9717925697084,0
2024-03-17T10:13:42,-0.27936203854999997,0.04007977854999999,10.019944637499998,0.02229658119422756,0.02229658119422756,0.08842274322916273,0.04662,0.4904200000000001,-0.45304,20.5,0,1843,870,668,3439,29.231953125,58302,28.734729284251323,1000.9717925697084,0
2024-03-17T10:13:42,-0.27457639335,0.0011964113,10.039685423949999,0.022754730122876075,0.020005836550985007,0.08827002691961322,0.04662,0.4904200000000001,-0.45304,19.5,0,1843,870,668,3439,29.426484375,62123,28.68416562217513,1000.9774439478907,0
2024-03-17T10:13:42,-0.2727817764,0.029910282499999996,10.016953609249999,0.020158552860534508,0.022449297503777065,0.08643743120501918,0.05054000000000001,0.48202000000000006,-0.44814000000000004,19.5,0,1843,870,668,3439,29.426484375,62123,28.68416562217513,1000.9774439478907,0
2024-03-17T10:13:42,-0.28534409504999997,0.023330020349999998,10.02054284315,0.02260201381332657,0.019242255003237483,0.0872010127527667,0.05054000000000001,0.48202000000000006,-0.44814000000000004,20.5,0,1843,870,668,3439,29.426484375,62123,28.68416562217513,1000.9774439478907,0
2024-03-17T10:13:42,-0.2955135911,0.010169496049999999,9.98345409285,0.01710422666954443,0.019700403931885997,0.08781187799096472,0.046340000000000006,0.48566000000000004,-0.4561200000000001,20.5,0,1843,870,668,3439,29.426484375,62123,28.68416562217513,1000.9774439478907,0
2024-03-17T10:13:42,-0.27816562724999994,0.028713871199999998,10.03729260135,0.02458732583747012,0.02260201381332657,0.08597928227637067,0.050820000000000004,0.48566000000000004,-0.45220000000000005,20.5,0,1843,870,668,3439,29.426484375,62123,28.68416562217513,1000.9774439478907,0
2024-03-17T10:13:42,-0.26261228035,0.014356935599999999,10.0235338714,0.019700403931885997,0.02229658119422756,0.08491026810952414,0.050820000000000004,0.48566000000000004,-0.45220000000000005,19.5,0,1843,870,668,3439,29.426484375,62123,28.68416562217513,1000.9774439478907,0
2024-03-17T10:13:42,-0.26620151425,0.021535403399999997,10.0295159279,0.01863138976503947,0.01863138976503947,0.08735372906231621,0.046340000000000006,0.48790000000000006,-0.4543000000000001,20.5,0,1843,870,668,3439,29.426484375,62123,28.68416562217513,1000.9774439478907,0
2024-03-17T10:13:42,-0.28115665549999996,0.014356935599999999,10.033105161799998,0.01832595714594046,0.022449297503777065,0.08857545953871222,0.054180000000000006,0.48678000000000005,-0.45654,20.5,0,1843,870,668,3439,29.592890625,65498,28.60332017811791,1000.9857090492067,0
2024-03-17T10:13:42,-0.27936203854999997,0.03170489945,10.05763159345,0.026419921552064168,0.022449297503777065,0.08949175739600926,0.04186000000000001,0.48902000000000007,-0.44926000000000005,20.5,0,1847,872,670,3446,29.592890625,65498,28.60332017811791,1000.9857090492067,0
2024-03-17T10:13:42,-0.2739781877,-0.014356935599999999,10.0582297991,0.020311269170084013,0.020463985479633514,0.0907134878724053,0.04802,0.48734000000000005,-0.44604000000000005,19.5,0,1847,872,670,3446,29.592890625,65498,28.60332017811791,1000.9857090492067,0
2024-03-17T10:13:42,-0.27696921594999996,0.0191425808,9.999605645399999,0.0238237442897226,0.016951510359994926,0.09010262263420728,0.04802,0.48734000000000005,-0.44604000000000005,20.5,0,1847,872,670,3446,29.592890625,65498,28.60332017811791,1000.9857090492067,0
2024-03-17T10:13:42,-0.2895315346,0.02691925425,10.03131054485,0.021532999646480044,0.01832595714594046,0.08842274322916273,0.046900000000000004,0.49126000000000003,-0.4432400000000001,20.5,0,1847,872,670,3446,29.592890625,65498,28.60332017811791,1000.9857090492067,0
2024-03-17T10:13:42,-0.27816562724999994,0.037686955949999996,10.02413207705,0.019547687622336492,0.020463985479633514,0.08765916168141522,0.046060000000000004,0.48594000000000004,-0.4426800000000001,19.5,0,1847,872,670,3446,29.592890625,65498,28.60332017811791,1000.9857090492067,0
2024-03-17T10:13:42,-0.29012974025,0.027517459899999996,10.015158992299998,0.02107485071783153,0.02168571595602955,0.08857545953871222,0.046060000000000004,0.48482000000000003,-0.4513600000000001,19.5,0,1847,872,670,3446,29.592890625,65498,28.60332017811791,1000.9857090492067,0
2024-03-17T10:13:42,-0.29491538544999996,0.0017946169499999999,10.033105161799998,0.02932153143350474,0.0056505034533316425,0.07223481441691533,0.049980000000000004,0.48482000000000003,-0.4513600000000001,19.5,0,1847,872,670,3446,29.7376171875,68309,28.526235279885448,1000.9981395628399,0
2024-03-17T10:13:42,-0.28594230069999993,0.007178467799999999,10.0474620974,0.05726861608106395,-0.07467827536970738,-0.06612616203493517,0.043820000000000005,0.48734000000000005,-0.46242,19.5,0,1847,872,670,3446,29.7376171875,68309,28.526235279885448,1000.9981395628399,0
2024-03-17T10:13:42,-0.29012974025,0.022133609050000003,10.03131054485,0.04566217655530165,-0.0633772684630441,-0.05833763024791047,0.039900000000000005,0.48678000000000005,-0.45220000000000005,19.5,0,1847,872,670,3446,29.7376171875,68309,28.526235279885448,1000.9981395628399,0
2024-03-17T10:13:42,-0.28713871199999996,0.01854437515,10.015757197949998,0.051007247389534285,-0.050549098460885775,-0.0595593607243065,0.046340000000000006,0.48510000000000003,-0.44492000000000004,20.5,0,1847,872,670,3446,29.7376171875,68309,28.526235279885448,1000.9981395628399,0
2024-03-17T10:13:42,-0.29132615154999997,0.017946169499999998,10.03131054485,0.043982297150257116,-0.036804630601430424,-0.057879481319261954,0.046340000000000006,0.48510000000000003,-0.44492000000000004,20.5,0,1847,872,670,3446,29.7376171875,68309,28.526235279885448,1000.9981395628399,0
2024-03-17T10:13:42,-0.27936203854999997,0.013758729949999998,10.024730282699998,0.04627304179349966,-0.021838432265579053,-0.06032294227205402,0.05054000000000001,0.48482000000000003,-0.4529,20.5,0,1847,872,670,3446,29.7376171875,68309,28.526235279885448,1000.9981395628399,0
2024-03-17T10:13:42,-0.2787638329,0.017946169499999998,10.05882800475,0.04291328298341058,-0.013744467859455347,-0.05711589977151444,0.042980000000000004,0.49238000000000004,-0.44646,20.5,0,1847,872,670,3446,29.7376171875,68309,28.526235279885448,1000.9981395628399,0
2024-03-17T10:13:42,-0.27517459899999996,0.0035892338999999997,10.0462656861,0.04245513405476207,-0.006108652381980154,-0.05390885727097486,0.042980000000000004,0.49238000000000004,-0.44646,20.5,0,1847,872,670,3446,29.8626171875,71191,28.44750012086753,1001.008981278997,0
2024-03-17T10:13:42,-0.2787638329,0.0394815729,10.086943670299998,0.04046982203061852,0.011606439525762293,-0.05619960191421741,0.04242,0.48258000000000006,-0.44828,20.5,0,1847,872,670,3446,29.8626171875,71191,28.44750012086753,1001.008981278997,0
2024-03-17T10:13:42,-0.28654050634999995,0.0077766734499999995,10.0462656861,0.03726277953007894,0.008552113334772215,-0.05238169417547982,0.04242,0.48258000000000006,-0.44828,20.5,0,1847,872,670,3446,29.8626171875,71191,28.44750012086753,1001.008981278997,0
2024-03-17T10:13:42,-0.42771703974999997,0.0017946169499999999,10.0319087505,0.041996985126113565,0.01069014166846527,-0.052228977865930316,0.041580000000000006,0.49154000000000003,-0.45178,20.5,0,1847,872,670,3446,29.8626171875,71191,28.44750012086753,1001.008981278997,0
2024-03-17T10:13:42,-0.2787638329,0.0131605243,10.0582297991,0.038484510006474966,0.00946841119206924,-0.05497787143782139,0.04746000000000001,0.48566000000000004,-0.45444000000000007,20.5,0,1847,872,670,3446,29.8626171875,71191,28.44750012086753,1001.008981278997,0
2024-03-17T10:13:42,-0.29012974025,0.022731814700000002,10.052247742599999,0.041080687268816536,0.013897184169004852,-0.05467243881872238,0.04746000000000001,0.48566000000000004,-0.45444000000000007,20.5,0,1847,872,670,3446,29.8626171875,71191,28.44750012086753,1001.008981278997,0
2024-03-17T10:13:42,-0.28295127244999996,0.008973084749999999,10.039685423949999,0.03497203488683638,0.010384709049366262,-0.053297992032776846,0.046060000000000004,0.48734000000000005,-0.45038000000000006,20.5,0,1847,872,670,3446,29.8626171875,71191,28.44750012086753,1001.008981278997,0
2024-03-17T10:13:42,-0.26380869165,-0.0029910282499999996,10.071390323399998,0.03802636107782646,0.016493361431346415,-0.04856378643674222,0.04802,0.48258000000000006,-0.4590600000000001,20.5,0,1847,872,670,3446,29.9719921875,73485,28.356315986402826,1001.017741303273,0
2024-03-17T10:13:42,-0.26141586904999997,0.01854437515,10.018150020550001,0.03634648167278191,0.008704829644321718,-0.049327367984489744,0.04102,0.48678000000000005,-0.44758000000000003,20.5,0,1847,872,670,3446,29.9719921875,73485,28.356315986402826,1001.017741303273,0
2024-03-17T10:13:42,-0.29132615154999997,0.024526431649999996,10.083354436399997,0.03741549583962844,0.00946841119206924,-0.04673119072214818,0.0539,0.48622000000000004,-0.44800000000000006,20.5,0,1847,872,670,3446,29.9719921875,73485,28.356315986402826,1001.017741303273,0
2024-03-17T10:13:43,-0.28534409504999997,0.0251246373,10.063015444300001,0.043982297150257116,0.0033597588100890844,-0.04520402762665314,0.0539,0.48622000000000004,-0.44800000000000006,20.5,0,1847,872,670,3446,29.9719921875,73485,28.356315986402826,1001.017741303273,0
2024-03-17T10:13:43,-0.29491538544999996,0.020338992099999998,10.085149053349998,0.039400807863771994,0.006719517620178169,-0.04917465167494024,0.04018000000000001,0.49014,-0.45864000000000005,20.5,0,1847,872,670,3446,29.9719921875,73485,28.356315986402826,1001.017741303273,0
2024-03-17T10:13:43,-0.28893332894999996,0.020937197749999997,10.060024416049998,0.04092797095926703,0.008857545953871223,-0.049021935365390734,0.050820000000000004,0.4898600000000001,-0.44212000000000007,20.5,0,1847,872,670,3446,29.9719921875,73485,28.356315986402826,1001.017741303273,0
2024-03-17T10:13:43,-0.28893332894999996,0.04307080679999999,10.019944637499998,0.03756821214917795,0.005345070834232635,-0.04535674393620265,0.050820000000000004,0.4898600000000001,-0.45808000000000004,20.5,0,1847,872,670,3446,29.9719921875,73485,28.356315986402826,1001.017741303273,0
2024-03-17T10:13:43,-0.27517459899999996,0.030508488149999995,10.1264252432,0.039553524173321496,0.005803219762881146,-0.0435241482216086,0.047740000000000005,0.48930000000000007,-0.45808000000000004,20.5,0,1847,872,670,3446,30.06828125,76000,28.275206641815842,1001.0177956959234,0
2024-03-17T10:13:43,-0.26261228035,0.03649054465,10.04985492,0.041844268816564056,0.0024434609527920616,-0.04489859500755413,0.051660000000000005,0.4909800000000001,-0.44254000000000004,20.5,0,1846,872,669,3445,30.06828125,76000,28.275206641815842,1001.0177956959234,0
2024-03-17T10:13:43,-0.2919243572,0.028713871199999998,10.0008020567,0.040622538340168025,0.005803219762881146,-0.043676864531158106,0.04942,0.4909800000000001,-0.44688000000000005,19.5,0,1846,872,669,3445,30.06828125,76000,28.275206641815842,1001.0177956959234,0
2024-03-17T10:13:43,-0.28654050634999995,0.04127618984999999,10.071390323399998,0.04291328298341058,0.0068722339297276735,-0.04245513405476207,0.04662,0.48706000000000005,-0.46326000000000006,20.5,0,1846,872,669,3445,30.06828125,76000,28.275206641815842,1001.0177956959234,0
2024-03-17T10:13:43,-0.25064816735,0.010767701699999998,10.0821580251,0.04581489286485116,0.0027488935718910697,-0.04413501345980661,0.047740000000000005,0.49154000000000003,-0.44982000000000005,20.5,0,1846,872,669,3445,30.06828125,76000,28.275206641815842,1001.0177956959234,0
2024-03-17T10:13:43,-0.28414768374999994,0.0191425808,10.04925671435,0.04489859500755413,0.0,-0.0474947722698957,0.047740000000000005,0.49154000000000003,-0.44982000000000005,20.5,0,1846,872,669,3445,30.06828125,76000,28.275206641815842,1001.0177956959234,0
2024-03-17T10:13:43,-0.26620151425,0.0077766734499999995,10.0725867347,0.04321871560250959,-0.006261368691529657,-0.04917465167494024,0.055020000000000006,0.49126000000000003,-0.46452000000000004,20.5,0,1846,872,669,3445,30.06828125,76000,28.275206641815842,1001.0177956959234,0
2024-03-17T10:13:43,-0.28235306679999994,0.01734796385,10.076774174250001,0.041080687268816536,-0.0054977871437821395,-0.04550946024575215,0.04802,0.49350000000000005,-0.45346000000000003,20.5,0,1846,872,669,3445,30.153046875,78328,28.198724787354397,1001.0278324990057,0
2024-03-17T10:13:43,-0.28055844984999995,0.028115665550000002,9.984052298499998,0.04306599929296009,-0.0036651914291880926,-0.047952921198544204,0.047740000000000005,0.4837,-0.46242,20.5,0,1846,872,669,3445,30.153046875,78328,28.198724787354397,1001.0278324990057,0
2024-03-17T10:13:43,-0.29252256285,0.03409772205,10.06122082735,0.04581489286485116,-0.00045814892864851157,-0.04627304179349966,0.047740000000000005,0.4837,-0.46242,20.5,0,1846,872,669,3445,30.153046875,78328,28.198724787354397,1001.0278324990057,0
2024-03-17T10:13:43,-0.29611179675,0.015553346899999999,10.04985492,0.04276056667386108,-0.0035124751196385882,-0.04627304179349966,0.04242,0.48118000000000005,-0.45822,20.5,0,1846,872,669,3445,30.153046875,78328,28.198724787354397,1001.0278324990057,0
2024-03-17T10:13:43,-0.26321048599999997,0.022133609050000003,10.02293566575,0.04505131131710364,-0.0007635815477475193,-0.04550946024575215,0.04102,0.48006000000000004,-0.45038000000000006,20.5,0,1846,872,669,3445,30.153046875,78328,28.198724787354397,1001.0278324990057,0
2024-03-17T10:13:43,-0.30508488149999996,0.046660040699999995,10.036096190049998,0.039553524173321496,0.0012217304763960308,-0.04566217655530165,0.04102,0.48006000000000004,-0.45038000000000006,20.5,0,1846,872,669,3445,30.153046875,78328,28.198724787354397,1001.0278324990057,0
2024-03-17T10:13:43,-0.28235306679999994,0.028115665550000002,10.010971552749998,0.04276056667386108,0.0012217304763960308,-0.04459316238845512,0.0483,0.48734000000000005,-0.45570000000000005,20.5,0,1846,872,669,3445,30.153046875,78328,28.198724787354397,1001.0278324990057,0
2024-03-17T10:13:43,-0.26979074815,0.0077766734499999995,10.0462656861,0.04260785036431157,-0.004886921905584123,-0.04291328298341058,0.0427,0.48874000000000006,-0.44772,20.5,0,1846,872,669,3445,30.2282421875,80649,28.138169652998954,1001.0295069906929,0
2024-03-17T10:13:43,-0.2943171798,0.0669990328,10.0103733471,0.041080687268816536,0.00015271630954950385,-0.050701814770435276,0.04438,0.48902000000000007,-0.44604000000000005,20.5,0,1846,872,669,3445,30.2282421875,80649,28.138169652998954,1001.0295069906929,0
2024-03-17T10:13:43,-0.28773691765000003,-0.03170489945,10.08036340815,0.04321871560250959,-0.002138028333693054,-0.04520402762665314,0.04886000000000001,0.49378000000000005,-0.44478,20.5,0,1846,872,669,3445,30.2282421875,80649,28.138169652998954,1001.0295069906929,0
2024-03-17T10:13:43,-0.25124637299999997,0.022133609050000003,9.993025383249998,0.04703662334124718,-0.0027488935718910697,-0.047952921198544204,0.04886000000000001,0.49378000000000005,-0.44478,20.5,0,1846,872,669,3445,30.2282421875,80649,28.138169652998954,1001.0295069906929,0
2024-03-17T10:13:43,-0.29850461935,0.03529413334999999,10.0008020567,0.04260785036431157,-0.0013744467859455349,-0.04505131131710364,0.05138,0.49014,-0.43960000000000005,20.5,0,1846,872,669,3445,30.2282421875,80649,28.138169652998954,1001.0295069906929,0
2024-03-17T10:13:43,-0.33140593009999997,0.04486542375,10.14736244095,0.04474587869800463,-0.00595593607243065,-0.04214970143566306,0.04802,0.48398,-0.45108000000000004,20.5,0,1846,872,669,3445,30.2282421875,80649,28.138169652998954,1001.0295069906929,0
2024-03-17T10:13:43,-0.27098715944999996,0.024526431649999996,10.0821580251,0.043676864531158106,-0.005803219762881146,-0.04321871560250959,0.04802,0.48398,-0.44632000000000005,20.5,0,1846,872,669,3445,30.2282421875,80649,28.138169652998954,1001.0295069906929,0
2024-03-17T10:13:43,-0.2560320182,-0.007178467799999999,10.0295159279,0.04092797095926703,-0.0027488935718910697,-0.04444044607890562,0.042980000000000004,0.48314000000000007,-0.44632000000000005,20.5,0,1846,872,669,3445,30.2966015625,82543,28.06592094986124,1001.038020644083,0
2024-03-17T10:13:43,-0.26021945775,0.029910282499999996,10.08036340815,0.041080687268816536,-0.002138028333693054,-0.04382958084070761,0.051660000000000005,0.48622000000000004,-0.44520000000000004,20.5,0,1846,872,669,3445,30.2966015625,82543,28.06592094986124,1001.038020644083,0
2024-03-17T10:13:43,-0.2979064137,0.017946169499999998,10.050453125649998,0.041996985126113565,-0.00015271630954950385,-0.041691552507014555,0.051660000000000005,0.48622000000000004,-0.44520000000000004,20.5,0,1846,872,669,3445,30.2966015625,82543,28.06592094986124,1001.038020644083,0
2024-03-17T10:13:43,-0.29012974025,-0.0035892338999999997,10.033703367449998,0.040622538340168025,-0.00045814892864851157,-0.04520402762665314,0.046900000000000004,0.4909800000000001,-0.4536,20.5,0,1846,872,669,3445,30.2966015625,82543,28.06592094986124,1001.038020644083,0
2024-03-17T10:13:43,-0.28055844984999995,0.02691925425,10.042676452199998,0.039858956792420505,0.0012217304763960308,-0.04581489286485116,0.042980000000000004,0.49602,-0.4508000000000001,20.5,0,1846,872,669,3445,30.2966015625,82543,28.06592094986124,1001.038020644083,0
2024-03-17T10:13:43,-0.27936203854999997,0.014955141249999998,10.070792117749999,0.04428772976935611,-0.0007635815477475193,-0.04505131131710364,0.042980000000000004,0.49602,-0.4508000000000001,20.5,0,1846,872,669,3445,30.2966015625,82543,28.06592094986124,1001.038020644083,0
2024-03-17T10:13:43,-0.27457639335,0.01974078645,10.06122082735,0.038942658935123484,0.00015271630954950385,-0.04428772976935611,0.055020000000000006,0.4837,-0.44856000000000007,20.5,0,1846,872,669,3445,30.2966015625,82543,28.06592094986124,1001.038020644083,0
2024-03-17T10:13:43,-0.29970103065,0.024526431649999996,10.050453125649998,0.04856378643674222,0.0013744467859455349,-0.04718933965079669,0.04326000000000001,0.48258000000000006,-0.46004,20.5,0,1846,872,669,3445,30.3565625,84782,28.015253693384615,1001.0400848136684,0
2024-03-17T10:13:43,-0.2955135911,0.0077766734499999995,10.077970585549998,0.04214970143566306,-0.0038179077387375964,-0.04520402762665314,0.04326000000000001,0.49182000000000003,-0.4531800000000001,20.5,0,1847,872,670,3447,30.3565625,84782,28.015253693384615,1001.0400848136684,0
2024-03-17T10:13:43,-0.2787638329,0.0263210486,10.048658508699999,0.040622538340168025,-0.0024434609527920616,-0.04321871560250959,0.05194000000000001,0.48398,-0.44898000000000005,20.5,0,1847,872,670,3447,30.3565625,84782,28.015253693384615,1001.0400848136684,0
2024-03-17T10:13:43,-0.28115665549999996,0.017946169499999998,10.0666046782,0.04123340357836604,-0.003207042500539581,-0.04657847441259867,0.05194000000000001,0.48398,-0.44898000000000005,20.5,0,1847,872,670,3447,30.3565625,84782,28.015253693384615,1001.0400848136684,0
2024-03-17T10:13:43,-0.25663022385,0.011964112999999998,10.036096190049998,0.04077525464971753,-0.005345070834232635,-0.04627304179349966,0.0483,0.48734000000000005,-0.45248,20.5,0,1847,872,670,3447,30.3565625,84782,28.015253693384615,1001.0400848136684,0
2024-03-17T10:13:43,-0.28414768374999994,0.0029910282499999996,10.085747258999998,0.038331793696925465,0.0016798794050445422,-0.0433714319120591,0.050260000000000006,0.48650000000000004,-0.4466,20.5,0,1847,872,670,3447,30.3565625,84782,28.015253693384615,1001.0400848136684,0
2024-03-17T10:13:43,-0.27517459899999996,0.0011964113,10.080961613799998,0.04520402762665314,-0.00045814892864851157,-0.043676864531158106,0.050260000000000006,0.48650000000000004,-0.4466,20.5,0,1847,872,670,3447,30.3565625,84782,28.015253693384615,1001.0400848136684,0
2024-03-17T10:13:43,-0.31046873235,0.023330020349999998,10.071988529050001,0.04459316238845512,-0.0012217304763960308,-0.04596760917440065,0.05138,0.4907,-0.4494,20.5,0,1847,872,670,3447,30.410859375,86788,27.936305402049022,1001.04372307204,0
2024-03-17T10:13:44,-0.2763710103,0.023330020349999998,10.071390323399998,0.041386119887915546,-0.002138028333693054,-0.04306599929296009,0.046900000000000004,0.48482000000000003,-0.44814000000000004,20.5,0,1847,872,670,3447,30.410859375,86788,27.936305402049022,1001.04372307204,0
2024-03-17T10:13:44,-0.29012974025,0.030508488149999995,10.06839929515,0.04123340357836604,0.038484510006474966,-0.04688390703169768,0.046340000000000006,0.48734000000000005,-0.4461800000000001,20.5,0,1847,872,670,3447,30.410859375,86788,27.936305402049022,1001.04372307204,0
2024-03-17T10:13:44,-0.29132615154999997,0.0370887503,10.039087218299999,0.04428772976935611,-0.0006108652381980154,-0.04657847441259867,0.046340000000000006,0.48734000000000005,-0.4461800000000001,20.5,0,1847,872,670,3447,30.410859375,86788,27.936305402049022,1001.04372307204,0
2024-03-17T10:13:44,-0.2955135911,0.020338992099999998,10.06839929515,0.04688390703169768,-0.0027488935718910697,-0.041080687268816536,0.04438,0.4949,-0.4529,20.5,0,1847,872,670,3447,30.410859375,86788,27.936305402049022,1001.04372307204,0
2024-03-17T10:13:44,-0.2775674216,0.023928225999999997,10.085747258999998,0.04459316238845512,-0.001069014166846527,-0.04657847441259867,0.049980000000000004,0.49154000000000003,-0.44562000000000007,20.5,0,1847,872,670,3447,30.410859375,86788,27.936305402049022,1001.04372307204,0
2024-03-17T10:13:44,-0.25782663515,0.029312076849999997,10.03250695615,0.04123340357836604,-0.003970624048287101,-0.04550946024575215,0.046900000000000004,0.49294000000000004,-0.43904000000000004,20.5,0,1847,872,670,3447,30.410859375,86788,27.936305402049022,1001.04372307204,0
2024-03-17T10:13:44,-0.2727817764,0.03649054465,10.021739254449999,0.04657847441259867,-0.005192354524683131,-0.04306599929296009,0.046900000000000004,0.49294000000000004,-0.43904000000000004,20.5,0,1847,872,670,3447,30.459296875,88797,27.87358225420758,1001.0432399965629,0
2024-03-17T10:13:44,-0.2656033086,0.01854437515,10.0654082669,0.04489859500755413,-0.004886921905584123,-0.04489859500755413,0.045500000000000006,0.48874000000000006,-0.4461800000000001,20.5,0,1847,872,670,3447,30.459296875,88797,27.87358225420758,1001.0432399965629,0
2024-03-17T10:13:44,-0.2943171798,0.025722842949999998,10.0462656861,0.04489859500755413,-0.0024434609527920616,-0.047952921198544204,0.046900000000000004,0.48762000000000005,-0.4461800000000001,20.5,0,1847,872,670,3447,30.459296875,88797,27.87358225420758,1001.0432399965629,0
2024-03-17T10:13:44,-0.2727817764,-0.12741780345,10.0666046782,0.04306599929296009,0.0,-0.04428772976935611,0.0539,0.48622000000000004,-0.45836000000000005,20.5,0,1847,872,670,3447,30.459296875,88797,27.87358225420758,1001.0432399965629,0
2024-03-17T10:13:44,-0.28115665549999996,0.0029910282499999996,10.077970585549998,0.04306599929296009,-0.0019853120241435504,-0.04627304179349966,0.03682,0.48790000000000006,-0.44898000000000005,20.5,0,1847,872,670,3447,30.459296875,88797,27.87358225420758,1001.0432399965629,0
2024-03-17T10:13:44,-0.2727817764,0.021535403399999997,10.076774174250001,0.04550946024575215,-0.0025961772623415654,-0.04688390703169768,0.03682,0.48790000000000006,-0.44898000000000005,20.5,0,1847,872,670,3447,30.459296875,88797,27.87358225420758,1001.0432399965629,0
2024-03-17T10:13:44,-0.29312076849999996,0.01854437515,10.054042359550001,0.04153883619746505,-0.0035124751196385882,-0.04612032548395016,0.04914000000000001,0.48566000000000004,-0.45500000000000007,20.5,0,1847,872,670,3447,30.459296875,88797,27.87358225420758,1001.0432399965629,0
2024-03-17T10:13:44,-0.27098715944999996,0.030508488149999995,9.9876415324,0.04306599929296009,-0.003207042500539581,-0.04459316238845512,0.04746000000000001,0.4968600000000001,-0.4502400000000001,20.5,0,1847,872,670,3447,30.5044140625,90415,27.788366602976684,1001.0445461659787,0
2024-03-17T10:13:44,-0.27218357075,0.015553346899999999,10.05882800475,0.039706240482871004,-0.0006108652381980154,-0.04535674393620265,0.04522,0.49238000000000004,-0.44114000000000003,20.5,0,1847,872,670,3447,30.5044140625,90415,27.788366602976684,1001.0445461659787,0
2024-03-17T10:13:44,-0.2656033086,0.03529413334999999,10.06122082735,0.041996985126113565,-0.0016798794050445422,-0.04520402762665314,0.04186000000000001,0.49210000000000004,-0.4508000000000001,20.5,0,1847,872,670,3447,30.5044140625,90415,27.788366602976684,1001.0445461659787,0
2024-03-17T10:13:44,-0.30209385325,0.005383850849999999,10.070792117749999,0.04153883619746505,-0.0007635815477475193,-0.04474587869800463,0.04186000000000001,0.49210000000000004,-0.4508000000000001,20.5,0,1847,872,670,3447,30.5044140625,90415,27.788366602976684,1001.0445461659787,0
2024-03-17T10:13:44,-0.27816562724999994,-0.0047856452,10.02532848835,0.040317105721069016,0.0019853120241435504,-0.048411070127192715,0.046060000000000004,0.49154000000000003,-0.43554000000000004,20.5,0,1847,872,670,3447,30.5044140625,90415,27.788366602976684,1001.0445461659787,0
2024-03-17T10:13:44,-0.2656033086,0.0251246373,10.08395264205,0.0435241482216086,-0.00015271630954950385,-0.049021935365390734,0.049980000000000004,0.49350000000000005,-0.4531800000000001,20.5,0,1847,872,670,3447,30.5044140625,90415,27.788366602976684,1001.0445461659787,0
2024-03-17T10:13:44,-0.29132615154999997,0.01615155255,10.039087218299999,0.04245513405476207,0.0009162978572970231,-0.04612032548395016,0.049980000000000004,0.49350000000000005,-0.4531800000000001,20.5,0,1847,872,670,3447,30.5044140625,90415,27.788366602976684,1001.0445461659787,0
2024-03-17T10:13:44,-0.2919243572,0.0095712904,10.069595706449999,0.04046982203061852,-0.00045814892864851157,-0.043982297150257116,0.050820000000000004,0.49462000000000006,-0.44520000000000004,20.5,0,1846,872,669,3445,30.5440625,92193,27.747185779398137,1001.0441638341653,0
2024-03-17T10:13:44,-0.27936203854999997,0.01974078645,10.05882800475,0.04428772976935611,-0.0038179077387375964,-0.04596760917440065,0.05306,0.48930000000000007,-0.45094000000000006,20.5,0,1846,872,669,3445,30.5440625,92193,27.747185779398137,1001.0441638341653,0
2024-03-17T10:13:44,-0.29611179675,0.037686955949999996,10.06839929515,0.03772092845872745,-0.0019853120241435504,-0.04306599929296009,0.05194000000000001,0.4907,-0.43470000000000003,20.5,0,1846,872,669,3445,30.5440625,92193,27.747185779398137,1001.0441638341653,0
2024-03-17T10:13:44,-0.25064816735,0.0047856452,10.0941221381,0.04734205596034619,-0.0013744467859455349,-0.04550946024575215,0.04494000000000001,0.49126000000000003,-0.45346000000000003,20.5,0,1846,872,669,3445,30.5440625,92193,27.747185779398137,1001.0441638341653,0
2024-03-17T10:13:44,-0.2727817764,0.011365907350000001,10.0414800409,0.04123340357836604,-0.006261368691529657,-0.048716502746291725,0.04494000000000001,0.49126000000000003,-0.45346000000000003,20.5,0,1846,872,669,3445,30.5440625,92193,27.747185779398137,1001.0441638341653,0
2024-03-17T10:13:44,-0.27936203854999997,-0.0023928226,10.066006472549999,0.04321871560250959,0.0007635815477475193,-0.04657847441259867,0.052500000000000005,0.4904200000000001,-0.4491200000000001,20.5,0,1846,872,669,3445,30.5440625,92193,27.747185779398137,1001.0441638341653,0
2024-03-17T10:13:44,-0.28414768374999994,0.025722842949999998,10.060622621699999,0.0435241482216086,-0.0003054326190990077,-0.04642575810304917,0.046340000000000006,0.49182000000000003,-0.44072,20.5,0,1846,872,669,3445,30.5440625,92193,27.747185779398137,1001.0441638341653,0
2024-03-17T10:13:44,-0.29012974025,0.024526431649999996,10.04447106915,0.043676864531158106,0.0015271630954950385,-0.04291328298341058,0.046340000000000006,0.49182000000000003,-0.44072,20.5,0,1846,872,669,3445,30.5805859375,94043,27.672422524573896,1001.051276383661,0
2024-03-17T10:13:44,-0.29312076849999996,0.031106693799999998,10.05763159345,0.04642575810304917,0.0015271630954950385,-0.04444044607890562,0.04046,0.48622000000000004,-0.4585000000000001,20.5,0,1846,872,669,3445,30.5805859375,94043,27.672422524573896,1001.051276383661,0
2024-03-17T10:13:44,-0.2715853651,0.0382851616,10.070792117749999,0.04382958084070761,0.0006108652381980154,-0.04886921905584123,0.04046,0.48622000000000004,-0.4585000000000001,20.5,0,1846,872,669,3445,30.5805859375,94043,27.672422524573896,1001.051276383661,0
2024-03-17T10:13:44,-0.28055844984999995,0.01974078645,10.057033387799999,0.04856378643674222,-0.0003054326190990077,-0.0476474885794452,0.04578,0.48678000000000005,-0.44856000000000007,20.5,0,1846,872,669,3445,30.5805859375,94043,27.672422524573896,1001.051276383661,0
2024-03-17T10:13:44,-0.26500510294999996,0.017946169499999998,10.14736244095,0.04153883619746505,-0.0025961772623415654,-0.04260785036431157,0.048580000000000005,0.49350000000000005,-0.4494,20.5,0,1846,872,669,3445,30.5805859375,94043,27.672422524573896,1001.051276383661,0
2024-03-17T10:13:44,-0.26919254249999996,0.023330020349999998,10.063015444300001,0.04428772976935611,-0.0016798794050445422,-0.04459316238845512,0.048580000000000005,0.48930000000000007,-0.45332000000000006,20.5,0,1846,872,669,3445,30.5805859375,94043,27.672422524573896,1001.051276383661,0
2024-03-17T10:13:44,-0.28534409504999997,0.0095712904,10.0534441539,0.0435241482216086,0.0015271630954950385,-0.04718933965079669,0.051660000000000005,0.48930000000000007,-0.45332000000000006,20.5,0,1846,872,669,3445,30.5805859375,94043,27.672422524573896,1001.051276383661,0
2024-03-17T10:13:44,-0.25782663515,0.029312076849999997,10.082756230749998,0.04214970143566306,-0.0006108652381980154,-0.04214970143566306,0.04494000000000001,0.49266000000000004,-0.45444000000000007,20.5,0,1846,872,669,3445,30.6153515625,94274,27.597544138721652,1001.0555365997928,0
2024-03-17T10:13:44,-0.2703889538,0.0083748791,10.04925671435,0.04535674393620265,0.0015271630954950385,-0.0474947722698957,0.0441,0.48762000000000005,-0.44800000000000006,20.5,0,1846,872,669,3445,30.6153515625,94274,27.597544138721652,1001.0555365997928,0
2024-03-17T10:13:44,-0.29970103065,0.022731814700000002,10.085149053349998,0.041844268816564056,-0.0009162978572970231,-0.04413501345980661,0.04102,0.49182000000000003,-0.44296,20.5,0,1846,872,669,3445,30.6153515625,94274,27.597544138721652,1001.0555365997928,0
2024-03-17T10:13:44,-0.26620151425,0.02691925425,10.016953609249999,0.043982297150257116,0.0006108652381980154,-0.04214970143566306,0.04662,0.47838,-0.43988000000000005,20.5,0,1846,872,669,3445,30.6153515625,94274,27.597544138721652,1001.0555365997928,0
2024-03-17T10:13:45,-0.25663022385,0.010767701699999998,10.024730282699998,0.0433714319120591,-0.003970624048287101,-0.04780020488899471,0.04662,0.47838,-0.43988000000000005,20.5,0,1846,872,669,3445,30.6153515625,94274,27.597544138721652,1001.0555365997928,0
2024-03-17T10:13:45,-0.28594230069999993,0.011964112999999998,10.0821580251,0.04123340357836604,-0.0003054326190990077,-0.04306599929296009,0.04578,0.48622000000000004,-0.45192,20.5,0,1846,872,669,3445,30.6153515625,94274,27.597544138721652,1001.0555365997928,0
2024-03-17T10:13:45,-0.27457639335,0.021535403399999997,10.061819032999999,0.041691552507014555,-0.0035124751196385882,-0.04520402762665314,0.046060000000000004,0.4909800000000001,-0.4631200000000001,20.5,0,1846,872,669,3445,30.6153515625,94274,27.597544138721652,1001.0555365997928,0
2024-03-17T10:13:45,-0.3026920589,0.011964112999999998,10.0366943957,0.04016438941151951,-0.002138028333693054,-0.04780020488899471,0.046060000000000004,0.4909800000000001,-0.4631200000000001,20.5,0,1846,872,669,3445,30.647578125,95609,27.516938179400174,1001.0449094806162,0
2024-03-17T10:13:45,-0.30209385325,0.022731814700000002,10.073783145999998,0.041844268816564056,-0.001069014166846527,-0.04474587869800463,0.04326000000000001,0.48426,-0.4536,20.5,0,1846,872,669,3445,30.647578125,95609,27.516938179400174,1001.0449094806162,0
2024-03-17T10:13:45,-0.2919243572,0.035892338999999995,10.04447106915,0.04291328298341058,-0.0027488935718910697,-0.04886921905584123,0.05278000000000001,0.4898600000000001,-0.44534,20.5,0,1846,872,669,3445,30.647578125,95609,27.516938179400174,1001.0449094806162,0
2024-03-17T10:13:45,-0.2895315346,0.0083748791,10.082756230749998,0.038942658935123484,0.0007635815477475193,-0.04520402762665314,0.05054000000000001,0.4837,-0.4536,20.5,0,1846,872,669,3445,30.647578125,95609,27.516938179400174,1001.0449094806162,0
2024-03-17T10:13:45,-0.28773691765000003,0.0029910282499999996,10.05643518215,0.041996985126113565,-0.0019853120241435504,-0.04291328298341058,0.05054000000000001,0.4837,-0.4536,20.5,0,1846,872,669,3445,30.647578125,95609,27.516938179400174,1001.0449094806162,0
2024-03-17T10:13:45,-0.28534409504999997,0.022731814700000002,10.070792117749999,0.04321871560250959,-0.004886921905584123,-0.04474587869800463,0.04578,0.48790000000000006,-0.44688000000000005,20.5,0,1846,872,669,3445,30.647578125,95609,27.516938179400174,1001.0449094806162,0
2024-03-17T10:13:45,-0.2979064137,0.014955141249999998,10.048658508699999,0.04260785036431157,-0.002901609881440573,-0.04505131131710364,0.04522,0.47446000000000005,-0.44394000000000006,20.5,0,1846,872,669,3445,30.647578125,95609,27.516938179400174,1001.0449094806162,0
2024-03-17T10:13:45,-0.27696921594999996,0.007178467799999999,10.13539832795,0.04276056667386108,-0.0033597588100890844,-0.0474947722698957,0.04522,0.47446000000000005,-0.44394000000000006,20.5,0,1846,872,669,3445,30.6774609375,96816,27.458363000591206,1001.0394562534993,0
2024-03-17T10:13:45,-0.28235306679999994,-0.0023928226,10.060622621699999,0.041844268816564056,-0.0015271630954950385,-0.04642575810304917,0.04438,0.48734000000000005,-0.4537400000000001,20.5,0,1846,872,669,3445,30.6774609375,96816,27.458363000591206,1001.0394562534993,0
2024-03-17T10:13:45,-0.2883351233,-0.014356935599999999,10.0510513313,0.049021935365390734,-0.0024434609527920616,-0.04581489286485116,0.04438,0.48734000000000005,-0.4537400000000001,20.5,0,1846,872,669,3445,30.6774609375,96816,27.458363000591206,1001.0394562534993,0
2024-03-17T10:13:45,-0.26979074815,0.022731814700000002,10.1312108884,0.04566217655530165,-0.0016798794050445422,-0.04581489286485116,0.043820000000000005,0.48706000000000005,-0.43484,20.5,0,1846,872,669,3445,30.6774609375,96816,27.458363000591206,1001.0394562534993,0
2024-03-17T10:13:45,-0.2703889538,0.029312076849999997,10.067801089499998,0.04566217655530165,-0.00045814892864851157,-0.04734205596034619,0.0483,0.48874000000000006,-0.43750000000000006,20.5,0,1846,872,669,3445,30.6774609375,96816,27.458363000591206,1001.0394562534993,0
2024-03-17T10:13:45,-0.2644068973,0.0131605243,10.08036340815,0.04627304179349966,0.0019853120241435504,-0.04886921905584123,0.0483,0.48874000000000006,-0.43750000000000006,20.5,0,1846,872,669,3445,30.6774609375,96816,27.458363000591206,1001.0394562534993,0
2024-03-17T10:13:45,-0.2775674216,0.01256231865,10.06481006125,0.04092797095926703,-0.00473420559603462,-0.049938233222687756,0.046060000000000004,0.4979800000000001,-0.44072,20.5,0,1846,872,669,3445,30.6774609375,96816,27.458363000591206,1001.0394562534993,0
2024-03-17T10:13:45,-0.25304098994999996,0.01974078645,10.0366943957,0.04428772976935611,0.03726277953007894,-0.04550946024575215,0.045500000000000006,0.49350000000000005,-0.44464000000000004,20.5,0,1846,872,669,3445,30.70734375,98800,27.394260838702305,1001.0411791685257,0
2024-03-17T10:13:45,-0.26321048599999997,0.01256231865,10.076175968599998,0.03802636107782646,-0.0038179077387375964,-0.04444044607890562,0.045500000000000006,0.48510000000000003,-0.44800000000000006,20.5,0,1846,872,669,3445,30.70734375,98800,27.394260838702305,1001.0411791685257,0
2024-03-17T10:13:45,-0.2895315346,0.01854437515,10.04925671435,0.04214970143566306,0.001069014166846527,-0.04886921905584123,0.04186000000000001,0.4904200000000001,-0.4397400000000001,20.5,0,1846,872,669,3445,30.70734375,98800,27.394260838702305,1001.0411791685257,0
2024-03-17T10:13:45,-0.3236292566499999,0.010169496049999999,10.131809094049999,0.04474587869800463,-0.0015271630954950385,-0.04948008429403925,0.04186000000000001,0.4904200000000001,-0.4397400000000001,20.5,0,1846,872,669,3445,30.70734375,98800,27.394260838702305,1001.0411791685257,0
2024-03-17T10:13:45,-0.2703889538,0.03649054465,10.118050364099998,0.04016438941151951,-0.0035124751196385882,-0.04657847441259867,0.04046,0.49350000000000005,-0.44772,20.5,0,1846,872,669,3445,30.70734375,98800,27.394260838702305,1001.0411791685257,0
2024-03-17T10:13:45,-0.2979064137,0.021535403399999997,10.03250695615,0.04321871560250959,0.0003054326190990077,-0.04566217655530165,0.039060000000000004,0.4898600000000001,-0.44128,20.5,0,1846,872,669,3445,30.70734375,98800,27.394260838702305,1001.0411791685257,0
2024-03-17T10:13:45,-0.28115665549999996,0.010169496049999999,10.06839929515,0.04153883619746505,-0.003207042500539581,-0.04657847441259867,0.04438,0.48958,-0.43512000000000006,20.5,0,1846,872,669,3445,30.70734375,98800,27.394260838702305,1001.0411791685257,0
2024-03-17T10:13:45,-0.30508488149999996,0.0191425808,10.06720288385,0.038637226316024474,-0.0003054326190990077,-0.04581489286485116,0.04438,0.48958,-0.43512000000000006,20.5,0,1846,872,669,3445,30.7360546875,99265,27.307916419802186,1001.0427956912581,0
2024-03-17T10:13:45,-0.28175486115,0.0095712904,10.0749795573,0.0435241482216086,-0.003054326190990077,-0.047952921198544204,0.046060000000000004,0.49378000000000005,-0.4529,20.5,0,1846,872,669,3445,30.7360546875,99265,27.307916419802186,1001.0427956912581,0
2024-03-17T10:13:45,-0.26979074815,0.029910282499999996,10.068997500799998,0.04245513405476207,-0.0013744467859455349,-0.04535674393620265,0.046060000000000004,0.49378000000000005,-0.4529,20.5,0,1846,872,669,3445,30.7360546875,99265,27.307916419802186,1001.0427956912581,0
2024-03-17T10:13:45,-0.2775674216,0.00418743955,10.069595706449999,0.04001167310197001,-0.003207042500539581,-0.04382958084070761,0.04102,0.48762000000000005,-0.44716,20.5,0,1846,872,669,3445,30.7360546875,99265,27.307916419802186,1001.0427956912581,0
2024-03-17T10:13:45,-0.25902304644999996,0.0263210486,10.077970585549998,0.04520402762665314,-0.0009162978572970231,-0.04581489286485116,0.046900000000000004,0.49126000000000003,-0.44072,20.5,0,1846,872,669,3445,30.7360546875,99265,27.307916419802186,1001.0427956912581,0
2024-03-17T10:13:45,-0.27996024419999993,0.0251246373,10.060622621699999,0.040622538340168025,-0.038789942625573975,-0.04856378643674222,0.046900000000000004,0.49126000000000003,-0.44072,20.5,0,1846,872,669,3445,30.7360546875,99265,27.307916419802186,1001.0427956912581,0
2024-03-17T10:13:45,-0.28654050634999995,0.007178467799999999,10.146764235300001,0.04444044607890562,-0.0013744467859455349,-0.0435241482216086,0.0413,0.49546,-0.44562000000000007,20.5,0,1846,872,669,3445,30.7360546875,99265,27.307916419802186,1001.0427956912581,0
2024-03-17T10:13:45,-0.2967100024,0.0346959277,10.04985492,0.04444044607890562,-0.0044287729769356115,-0.05009094953223726,0.03654,0.48678000000000005,-0.4432400000000001,20.5,0,1846,872,669,3445,30.7622265625,100327,27.23248654758333,1001.0385016194851,0
2024-03-17T10:13:45,-0.26321048599999997,0.010169496049999999,10.096514960699999,0.04444044607890562,-0.0033597588100890844,-0.04382958084070761,0.048580000000000005,0.48958,-0.44758000000000003,20.5,0,1846,872,669,3445,30.7622265625,100327,27.23248654758333,1001.0385016194851,0
2024-03-17T10:13:45,-0.28115665549999996,-0.00059820565,10.140782178799999,0.039553524173321496,-0.0015271630954950385,-0.04673119072214818,0.046900000000000004,0.49182000000000003,-0.45402000000000003,20.5,0,1846,872,669,3445,30.7622265625,100327,27.23248654758333,1001.0385016194851,0
2024-03-17T10:13:45,-0.25782663515,0.025722842949999998,10.036096190049998,0.040622538340168025,0.00015271630954950385,-0.04734205596034619,0.046900000000000004,0.49182000000000003,-0.45402000000000003,20.5,0,1846,872,669,3445,30.7622265625,100327,27.23248654758333,1001.0385016194851,0
2024-03-17T10:13:45,-0.2883351233,0.020937197749999997,10.066006472549999,0.04550946024575215,0.0006108652381980154,-0.0476474885794452,0.0483,0.48902000000000007,-0.45836000000000005,20.5,0,1846,872,669,3445,30.7622265625,100327,27.23248654758333,1001.0385016194851,0
2024-03-17T10:13:45,-0.26261228035,0.0263210486,10.0510513313,0.04291328298341058,-0.0015271630954950385,-0.04474587869800463,0.046340000000000006,0.49182000000000003,-0.45234,20.5,0,1846,872,669,3445,30.7622265625,100327,27.23248654758333,1001.0385016194851,0
2024-03-17T10:13:45,-0.26919254249999996,0.01615155255,10.0953185494,0.04474587869800463,-0.002901609881440573,-0.039400807863771994,0.046340000000000006,0.49182000000000003,-0.45234,20.5,0,1846,872,669,3445,30.7622265625,100327,27.23248654758333,1001.0385016194851,0
2024-03-17T10:13:45,-0.29850461935,0.032901310749999996,10.1024970172,0.0018325957145940463,-0.001069014166846527,-0.041996985126113565,0.04326000000000001,0.4949,-0.45500000000000007,20.5,0,1846,872,669,3445,30.7868359375,101473,27.134819368595096,1001.0388554522999,0
2024-03-17T10:13:46,-0.27218357075,0.011964112999999998,10.22153994155,0.03695734691097993,-0.0019853120241435504,-0.04520402762665314,0.039900000000000005,0.4904200000000001,-0.4466,20.5,0,1846,872,669,3445,30.7868359375,101473,27.134819368595096,1001.0388554522999,0
2024-03-17T10:13:46,-0.2739781877,0.03649054465,10.07557776295,0.0435241482216086,-0.0035124751196385882,-0.04886921905584123,0.03962,0.49546,-0.45458000000000004,20.5,0,1846,872,669,3445,30.7868359375,101473,27.134819368595096,1001.0388554522999,0
2024-03-17T10:13:46,-0.27696921594999996,0.0047856452,10.06361364995,0.041691552507014555,-0.0019853120241435504,-0.04382958084070761,0.04354000000000001,0.49434000000000006,-0.4529,20.5,0,1846,872,669,3445,30.7868359375,101473,27.134819368595096,1001.0388554522999,0
2024-03-17T10:13:46,-0.28713871199999996,0.0167497582,10.001400262349998,0.04214970143566306,-0.003054326190990077,-0.04382958084070761,0.04354000000000001,0.49434000000000006,-0.4529,20.5,0,1846,872,669,3445,30.7868359375,101473,27.134819368595096,1001.0388554522999,0
2024-03-17T10:13:46,-0.28654050634999995,0.007178467799999999,10.09352393245,0.03787364476827696,-0.0013744467859455349,-0.04260785036431157,0.04662,0.48762000000000005,-0.4555600000000001,20.5,0,1846,872,669,3445,30.7868359375,101473,27.134819368595096,1001.0388554522999,0
2024-03-17T10:13:46,-0.28414768374999994,0.023330020349999998,10.07318494035,0.04046982203061852,-0.00045814892864851157,-0.04245513405476207,0.0427,0.49210000000000004,-0.43624000000000007,20.5,0,1846,872,669,3445,30.7868359375,101473,27.134819368595096,1001.0388554522999,0
2024-03-17T10:13:46,-0.24765713909999998,0.0047856452,10.077970585549998,0.04459316238845512,-0.0044287729769356115,-0.043982297150257116,0.0427,0.49210000000000004,-0.44814000000000004,20.5,0,1846,872,669,3445,30.8110546875,102646,27.059308533931365,1001.0385740605843,0
2024-03-17T10:13:46,-0.29611179675,0.01854437515,10.09113110985,0.041080687268816536,-0.002138028333693054,-0.04718933965079669,0.04662,0.49126000000000003,-0.44842000000000004,20.5,0,1846,872,669,3445,30.8110546875,102646,27.059308533931365,1001.0385740605843,0
2024-03-17T10:13:46,-0.26620151425,0.0191425808,10.054042359550001,0.04428772976935611,-0.0022907446432425577,-0.04566217655530165,0.04018000000000001,0.49658,-0.44842000000000004,20.5,0,1846,872,669,3445,30.8110546875,102646,27.059308533931365,1001.0385740605843,0
2024-03-17T10:13:46,-0.24705893344999996,0.029910282499999996,10.02772131095,0.04092797095926703,-0.0012217304763960308,-0.04428772976935611,0.0413,0.49014,-0.44744000000000006,20.5,0,1846,872,669,3445,30.8110546875,102646,27.059308533931365,1001.0385740605843,0
2024-03-17T10:13:46,-0.27816562724999994,0.017946169499999998,10.09950598895,0.038179077387375956,-0.00015271630954950385,-0.04627304179349966,0.04578,0.48734000000000005,-0.44394000000000006,20.5,0,1846,872,669,3445,30.8110546875,102646,27.059308533931365,1001.0385740605843,0
2024-03-17T10:13:46,-0.28175486115,0.0167497582,10.0666046782,0.04214970143566306,-0.0016798794050445422,-0.04291328298341058,0.04578,0.48734000000000005,-0.44394000000000006,20.5,0,1846,872,669,3445,30.8110546875,102646,27.059308533931365,1001.0385740605843,0
2024-03-17T10:13:46,-0.28175486115,-0.0077766734499999995,10.04566748045,0.04474587869800463,-0.0019853120241435504,-0.04245513405476207,0.04718000000000001,0.4979800000000001,-0.44814000000000004,20.5,0,1846,872,669,3445,30.8110546875,102646,27.059308533931365,1001.0385740605843,0
2024-03-17T10:13:46,-0.25663022385,0.021535403399999997,10.033105161799998,0.041386119887915546,-0.0018325957145940463,-0.04596760917440065,0.046340000000000006,0.48734000000000005,-0.45444000000000007,20.5,0,1846,872,669,3445,30.835078125,103401,26.983815744873993,1001.0469513128617,0
2024-03-17T10:13:46,-0.26919254249999996,0.0011964113,10.048060303049999,0.038637226316024474,-0.001069014166846527,-0.04245513405476207,0.047740000000000005,0.48762000000000005,-0.43820000000000003,20.5,0,1846,872,669,3445,30.835078125,103401,26.983815744873993,1001.0469513128617,0
2024-03-17T10:13:46,-0.2763710103,0.0167497582,10.06720288385,0.04153883619746505,-0.004123340357836604,-0.04673119072214818,0.04438,0.4949,-0.45122,20.5,0,1846,872,669,3445,30.835078125,103401,26.983815744873993,1001.0469513128617,0
2024-03-17T10:13:46,-0.29491538544999996,0.03649054465,10.1204431867,0.04550946024575215,-0.003970624048287101,-0.04963280060358875,0.04438,0.4949,-0.45122,20.5,0,1846,872,669,3445,30.835078125,103401,26.983815744873993,1001.0469513128617,0
2024-03-17T10:13:46,-0.28713871199999996,0.0191425808,10.03848901265,0.0433714319120591,0.0013744467859455349,-0.04428772976935611,0.03878,0.48930000000000007,-0.46032000000000006,20.5,0,1846,872,669,3445,30.835078125,103401,26.983815744873993,1001.0469513128617,0
2024-03-17T10:13:46,-0.28055844984999995,0.011964112999999998,10.0438728635,0.0433714319120591,0.0038179077387375964,-0.043676864531158106,0.04102,0.48146000000000005,-0.44898000000000005,20.5,0,1846,872,669,3445,30.835078125,103401,26.983815744873993,1001.0469513128617,0
2024-03-17T10:13:46,-0.2715853651,0.020338992099999998,10.082756230749998,0.04046982203061852,-0.0022907446432425577,-0.04581489286485116,0.04102,0.48146000000000005,-0.44898000000000005,20.5,0,1846,872,669,3445,30.835078125,103401,26.983815744873993,1001.0469513128617,0
2024-03-17T10:13:46,-0.27577280465,0.0011964113,10.0821580251,0.04230241774521256,-0.0009162978572970231,-0.04612032548395016,0.042140000000000004,0.49294000000000004,-0.43792000000000003,20.5,0,1846,872,669,3445,30.8583203125,104360,26.897239821891503,1001.0468792799838,0
2024-03-17T10:13:46,-0.2967100024,0.037686955949999996,10.05882800475,0.04673119072214818,0.00045814892864851157,-0.0476474885794452,0.04662,0.49126000000000003,-0.45276000000000005,20.5,0,1846,872,669,3445,30.8583203125,104360,26.897239821891503,1001.0468792799838,0
2024-03-17T10:13:46,-0.29132615154999997,0.020338992099999998,10.07318494035,0.0433714319120591,-0.0009162978572970231,-0.04886921905584123,0.039900000000000005,0.48566000000000004,-0.4625600000000001,20.5,0,1846,872,669,3445,30.8583203125,104360,26.897239821891503,1001.0468792799838,0
2024-03-17T10:13:46,-0.2919243572,0.022731814700000002,10.07318494035,0.039095375244672985,-0.0013744467859455349,-0.041996985126113565,0.044660000000000005,0.49210000000000004,-0.45472,20.5,0,1846,872,670,3446,30.8583203125,104360,26.897239821891503,1001.0468792799838,0
2024-03-17T10:13:46,-0.27218357075,0.0323031051,10.05643518215,0.04001167310197001,-0.0025961772623415654,-0.04260785036431157,0.044660000000000005,0.49210000000000004,-0.45472,20.5,0,1846,872,670,3446,30.8583203125,104360,26.897239821891503,1001.0468792799838,0
2024-03-17T10:13:46,-0.28414768374999994,0.014356935599999999,10.073783145999998,0.041691552507014555,-0.003207042500539581,-0.04810563750809371,0.041580000000000006,0.48762000000000005,-0.45108000000000004,20.5,0,1846,872,670,3446,30.8583203125,104360,26.897239821891503,1001.0468792799838,0
2024-03-17T10:13:46,-0.27936203854999997,0.023330020349999998,10.085149053349998,0.04917465167494024,-0.0038179077387375964,-0.04657847441259867,0.045500000000000006,0.49294000000000004,-0.45164000000000004,20.5,0,1846,872,670,3446,30.8583203125,104360,26.897239821891503,1001.0468792799838,0
2024-03-17T10:13:46,-0.2679961312,0.01256231865,10.069595706449999,0.04612032548395016,0.0006108652381980154,-0.04780020488899471,0.045500000000000006,0.49294000000000004,-0.45164000000000004,20.5,0,1846,872,670,3446,30.8794140625,105866,26.816060693248325,1001.0469174280588,0
2024-03-17T10:13:46,-0.27936203854999997,0.041874395499999995,10.101300605899999,0.040317105721069016,-0.00045814892864851157,-0.04382958084070761,0.054180000000000006,0.4898600000000001,-0.45696000000000003,20.5,0,1846,872,670,3446,30.8794140625,105866,26.816060693248325,1001.0469174280588,0
2024-03-17T10:13:46,-0.30089744194999996,0.031106693799999998,10.03729260135,0.04306599929296009,-0.0006108652381980154,-0.04291328298341058,0.054180000000000006,0.4898600000000001,-0.45696000000000003,20.5,0,1846,872,670,3446,30.8794140625,105866,26.816060693248325,1001.0469174280588,0
2024-03-17T10:13:46,-0.2943171798,0.01615155255,10.060024416049998,0.043676864531158106,-0.0016798794050445422,-0.049327367984489744,0.05222,0.48874000000000006,-0.43904000000000004,20.5,0,1846,872,670,3446,30.8794140625,105866,26.816060693248325,1001.0469174280588,0
2024-03-17T10:13:46,-0.27098715944999996,0.03170489945,10.068997500799998,0.03756821214917795,-0.006414085001079162,-0.04444044607890562,0.04662,0.49014,-0.45038000000000006,20.5,0,1846,872,670,3446,30.8794140625,105866,26.816060693248325,1001.0469174280588,0
2024-03-17T10:13:46,-0.29371897415,0.02691925425,10.08155981945,0.038331793696925465,-0.0033597588100890844,-0.0433714319120591,0.04662,0.49014,-0.45038000000000006,20.5,0,1846,872,670,3446,30.8794140625,105866,26.816060693248325,1001.0469174280588,0
2024-03-17T10:13:46,-0.26261228035,0.024526431649999996,10.071390323399998,0.04291328298341058,0.0,-0.0433714319120591,0.050260000000000006,0.48706000000000005,-0.44744000000000006,20.5,0,1846,872,670,3446,30.8794140625,105866,26.816060693248325,1001.0469174280588,0
2024-03-17T10:13:46,-0.29910282499999996,0.00658026215,9.994820000199999,0.043982297150257116,0.038331793696925465,-0.04810563750809371,0.044660000000000005,0.49294000000000004,-0.44646,20.5,0,1846,872,670,3446,30.8989453125,106467,26.745838797007487,1001.0408323396581,0
2024-03-17T10:13:46,-0.2895315346,0.010169496049999999,10.057033387799999,0.041844268816564056,0.0006108652381980154,-0.04260785036431157,0.046060000000000004,0.49182000000000003,-0.45402000000000003,20.5,0,1846,872,670,3446,30.8989453125,106467,26.745838797007487,1001.0408323396581,0
2024-03-17T10:13:46,-0.33080772444999995,0.01734796385,10.11505933585,0.0025961772623415654,-0.001069014166846527,-0.04291328298341058,0.044660000000000005,0.48510000000000003,-0.44534,20.5,0,1846,872,670,3446,30.8989453125,106467,26.745838797007487,1001.0408323396581,0
2024-03-17T10:13:46,-0.2907279459,0.01734796385,10.08634546465,0.04077525464971753,-0.038942658935123484,-0.04520402762665314,0.040740000000000005,0.4968600000000001,-0.44114000000000003,20.5,0,1846,872,670,3446,30.8989453125,106467,26.745838797007487,1001.0408323396581,0
2024-03-17T10:13:46,-0.30807590975,0.024526431649999996,10.0701939121,0.04474587869800463,-0.00045814892864851157,-0.04688390703169768,0.040740000000000005,0.4968600000000001,-0.44114000000000003,20.5,0,1846,872,670,3446,30.8989453125,106467,26.745838797007487,1001.0408323396581,0
2024-03-17T10:13:47,-0.28654050634999995,0.0083748791,10.076175968599998,0.040317105721069016,-0.0009162978572970231,-0.04718933965079669,0.050820000000000004,0.48790000000000006,-0.4473000000000001,20.5,0,1846,872,670,3446,30.8989453125,106467,26.745838797007487,1001.0408323396581,0
2024-03-17T10:13:47,-0.27996024419999993,0.023330020349999998,10.071988529050001,0.04459316238845512,0.00045814892864851157,-0.04642575810304917,0.050820000000000004,0.48510000000000003,-0.44422,20.5,0,1846,872,670,3446,30.8989453125,106467,26.745838797007487,1001.0408323396581,0
2024-03-17T10:13:47,-0.3062812928,0.0017946169499999999,10.09352393245,0.04673119072214818,-0.004123340357836604,-0.04535674393620265,0.050820000000000004,0.48510000000000003,-0.44422,20.5,0,1846,872,670,3446,30.9184765625,107484,26.659092160393694,1001.0419281330019,0
2024-03-17T10:13:47,-0.2763710103,0.028713871199999998,10.08155981945,0.04077525464971753,0.001069014166846527,-0.04413501345980661,0.047740000000000005,0.48706000000000005,-0.43862000000000007,20.5,0,1846,872,670,3446,30.9184765625,107484,26.659092160393694,1001.0419281330019,0
2024-03-17T10:13:47,-0.28654050634999995,0.022133609050000003,10.048658508699999,0.04276056667386108,-0.0033597588100890844,-0.0476474885794452,0.047740000000000005,0.48706000000000005,-0.43862000000000007,20.5,0,1846,872,670,3446,30.9184765625,107484,26.659092160393694,1001.0419281330019,0
2024-03-17T10:13:47,-0.3098705267,0.01974078645,10.0319087505,0.04413501345980661,-0.001069014166846527,-0.04566217655530165,0.04354000000000001,0.48818000000000006,-0.44856000000000007,20.5,0,1846,872,670,3446,30.9184765625,107484,26.659092160393694,1001.0419281330019,0
2024-03-17T10:13:47,-0.2835494781,0.020338992099999998,10.0534441539,0.041080687268816536,-0.0016798794050445422,-0.043676864531158106,0.04186000000000001,0.49294000000000004,-0.44408000000000003,20.5,0,1846,872,670,3446,30.9184765625,107484,26.659092160393694,1001.0419281330019,0
2024-03-17T10:13:47,-0.27936203854999997,0.011964112999999998,10.096514960699999,0.04520402762665314,0.0022907446432425577,-0.04245513405476207,0.04186000000000001,0.49294000000000004,-0.44408000000000003,20.5,0,1846,872,670,3446,30.9184765625,107484,26.659092160393694,1001.0419281330019,0
2024-03-17T10:13:47,-0.28295127244999996,0.0077766734499999995,10.006185907549998,0.041386119887915546,-0.004581489286485115,-0.04230241774521256,0.04718000000000001,0.47922000000000003,-0.44366,20.5,0,1846,872,670,3446,30.9184765625,107484,26.659092160393694,1001.0419281330019,0
2024-03-17T10:13:47,-0.28713871199999996,0.010169496049999999,10.08155981945,0.04306599929296009,-0.0012217304763960308,-0.04657847441259867,0.0413,0.48454,-0.45192,20.5,0,1846,872,670,3446,30.9368359375,108242,26.57781430300568,1001.0357376053594,0
2024-03-17T10:13:47,-0.29012974025,0.008973084749999999,10.21795070765,0.04260785036431157,-0.0006108652381980154,-0.04566217655530165,0.03962,0.49714,-0.4491200000000001,20.5,0,1846,872,670,3446,30.9368359375,108242,26.57781430300568,1001.0357376053594,0
2024-03-17T10:13:47,-0.28414768374999994,-0.0011964113,10.083354436399997,0.03726277953007894,-0.003207042500539581,-0.041844268816564056,0.03962,0.49714,-0.4491200000000001,20.5,0,1877,892,678,3485,30.9368359375,108242,26.57781430300568,1001.0357376053594,0
2024-03-17T10:13:47,-0.28295127244999996,0.010767701699999998,10.109675485,0.041844268816564056,-0.0006108652381980154,-0.043676864531158106,0.05054000000000001,0.48678000000000005,-0.4494,20.5,0,1877,892,678,3485,30.9368359375,108242,26.57781430300568,1001.0357376053594,0
2024-03-17T10:13:47,-0.3176472001499999,0.01256231865,10.02652489965,0.07605272215565292,0.0,-0.04306599929296009,0.04354000000000001,0.48902000000000007,-0.4424,20.5,0,1877,892,678,3485,30.9368359375,108242,26.57781430300568,1001.0357376053594,0
2024-03-17T10:13:47,-0.3062812928,0.0047856452,10.080961613799998,0.04306599929296009,-0.0007635815477475193,-0.04718933965079669,0.04354000000000001,0.48902000000000007,-0.4424,20.5,0,1877,892,678,3485,30.9368359375,108242,26.57781430300568,1001.0357376053594,0
2024-03-17T10:13:47,-0.2943171798,0.01734796385,10.06839929515,0.04245513405476207,-0.0022907446432425577,-0.04474587869800463,0.04326000000000001,0.49378000000000005,-0.4513600000000001,20.5,0,1877,892,678,3485,30.9368359375,108242,26.57781430300568,1001.0357376053594,0
2024-03-17T10:13:47,-0.2955135911,0.03409772205,10.063015444300001,0.043676864531158106,-0.0022907446432425577,-0.04550946024575215,0.0511,0.49266000000000004,-0.4494,20.5,0,1877,892,678,3485,30.95421875,109153,26.50752462744436,1001.0279641848862,0
2024-03-17T10:13:47,-0.32063822839999995,0.0263210486,10.052247742599999,0.041691552507014555,-0.002138028333693054,-0.0433714319120591,0.041580000000000006,0.49126000000000003,-0.4424,20.5,0,1877,892,678,3485,30.95421875,109153,26.50752462744436,1001.0279641848862,0
2024-03-17T10:13:47,-0.2979064137,0.029910282499999996,10.0845508477,0.040317105721069016,-0.002138028333693054,-0.04657847441259867,0.0441,0.4909800000000001,-0.4368000000000001,20.5,0,1877,892,678,3485,30.95421875,109153,26.50752462744436,1001.0279641848862,0
2024-03-17T10:13:47,-0.29910282499999996,0.022133609050000003,10.063015444300001,0.041691552507014555,-0.002138028333693054,-0.04428772976935611,0.0441,0.4909800000000001,-0.4368000000000001,20.5,0,1877,892,678,3485,30.95421875,109153,26.50752462744436,1001.0279641848862,0
2024-03-17T10:13:47,-0.2667997199,0.02691925425,10.04925671435,0.04780020488899471,0.004123340357836604,-0.04245513405476207,0.04886000000000001,0.49714,-0.44716,20.5,0,1877,892,678,3485,30.95421875,109153,26.50752462744436,1001.0279641848862,0
2024-03-17T10:13:47,-0.28175486115,0.021535403399999997,10.052845948249999,0.039553524173321496,-0.0019853120241435504,-0.04489859500755413,0.04662,0.48958,-0.4543000000000001,20.5,0,1877,892,678,3485,30.95421875,109153,26.50752462744436,1001.0279641848862,0
2024-03-17T10:13:47,-0.29012974025,0.0263210486,10.071390323399998,0.04505131131710364,-0.0022907446432425577,-0.04489859500755413,0.04662,0.4909800000000001,-0.44576000000000005,20.5,0,1877,892,678,3485,30.95421875,109153,26.50752462744436,1001.0279641848862,0
2024-03-17T10:13:47,-0.27457639335,0.029910282499999996,10.098907783299998,0.0433714319120591,-0.002901609881440573,-0.04413501345980661,0.04662,0.4909800000000001,-0.44576000000000005,20.5,0,1877,892,678,3485,30.9712109375,110007,26.426215740459938,1001.0231483671433,0
2024-03-17T10:13:47,-0.28773691765000003,0.017946169499999998,10.086943670299998,0.041080687268816536,-0.0027488935718910697,-0.04642575810304917,0.04886000000000001,0.49434000000000006,-0.43708,20.5,0,1877,892,678,3485,30.9712109375,110007,26.426215740459938,1001.0231483671433,0
2024-03-17T10:13:47,-0.2715853651,0.010169496049999999,10.098907783299998,0.038942658935123484,-0.001069014166846527,-0.043676864531158106,0.04886000000000001,0.49434000000000006,-0.43708,20.5,0,1877,892,678,3485,30.9712109375,110007,26.426215740459938,1001.0231483671433,0
2024-03-17T10:13:47,-0.30149564759999997,0.0646062102,10.0558369765,0.043982297150257116,-0.003054326190990077,-0.048411070127192715,0.04886000000000001,0.4907,-0.44982000000000005,20.5,0,1877,892,678,3485,30.9712109375,110007,26.426215740459938,1001.0231483671433,0
2024-03-17T10:13:47,-0.2727817764,0.01734796385,10.09113110985,0.04520402762665314,-0.004123340357836604,-0.041691552507014555,0.0427,0.4949,-0.4548600000000001,20.5,0,1877,892,678,3485,30.9712109375,110007,26.426215740459938,1001.0231483671433,0
2024-03-17T10:13:47,-0.27517459899999996,0.021535403399999997,10.064211855599998,0.04459316238845512,-0.0036651914291880926,-0.04657847441259867,0.0427,0.4949,-0.4548600000000001,20.5,0,1877,892,678,3485,30.9712109375,110007,26.426215740459938,1001.0231483671433,0
2024-03-17T10:13:47,-0.28893332894999996,0.0167497582,10.050453125649998,0.0433714319120591,-0.0024434609527920616,-0.04306599929296009,0.0371,0.48482000000000003,-0.44828,20.5,0,1877,892,678,3485,30.9712109375,110007,26.426215740459938,1001.0231483671433,0
2024-03-17T10:13:47,-0.30568308715,0.017946169499999998,10.110273690649999,0.04489859500755413,0.001069014166846527,-0.04550946024575215,0.04186000000000001,0.49462000000000006,-0.4513600000000001,20.5,0,1877,892,678,3485,30.988203125,110728,26.33944305815988,1001.0237187903904,0
2024-03-17T10:13:47,-0.26261228035,0.029910282499999996,10.086943670299998,0.0435241482216086,-0.0033597588100890844,-0.04703662334124718,0.044660000000000005,0.48538000000000003,-0.4606,20.5,0,1877,892,678,3485,30.988203125,110728,26.33944305815988,1001.0237187903904,0
2024-03-17T10:13:47,-0.26979074815,0.03529413334999999,10.068997500799998,0.041996985126113565,-0.0003054326190990077,-0.04520402762665314,0.0441,0.48930000000000007,-0.45542,20.5,0,1877,892,678,3485,30.988203125,110728,26.33944305815988,1001.0237187903904,0
2024-03-17T10:13:47,-0.28115665549999996,0.022133609050000003,10.0534441539,0.040317105721069016,-0.0036651914291880926,-0.04428772976935611,0.0441,0.48930000000000007,-0.45542,20.5,0,1877,892,678,3485,30.988203125,110728,26.33944305815988,1001.0237187903904,0
2024-03-17T10:13:47,-0.29371897415,0.021535403399999997,10.052247742599999,0.041844268816564056,-0.0013744467859455349,-0.043676864531158106,0.04494000000000001,0.49854000000000004,-0.44688000000000005,20.5,0,1877,892,678,3485,30.988203125,110728,26.33944305815988,1001.0237187903904,0
2024-03-17T10:13:47,-0.2895315346,0.014955141249999998,10.2460663732,0.04505131131710364,0.00015271630954950385,-0.04550946024575215,0.05362000000000001,0.4898600000000001,-0.44716,20.5,0,1877,892,678,3485,30.988203125,110728,26.33944305815988,1001.0237187903904,0
2024-03-17T10:13:47,-0.28235306679999994,0.040677984199999996,10.077970585549998,0.041386119887915546,-0.0013744467859455349,-0.04245513405476207,0.05362000000000001,0.4898600000000001,-0.44716,20.5,0,1877,892,678,3485,30.988203125,110728,26.33944305815988,1001.0237187903904,0
2024-03-17T10:13:47,-0.28055844984999995,0.0095712904,10.06361364995,0.04596760917440065,-0.0006108652381980154,-0.041386119887915546,0.042980000000000004,0.48790000000000006,-0.43806000000000006,20.5,0,1877,892,678,3485,31.00421875,111020,26.26364767429288,1001.024502991643,0
2024-03-17T10:13:48,-0.2596212521,0.020937197749999997,10.097711372000001,0.04276056667386108,-0.004886921905584123,-0.04489859500755413,0.04494000000000001,0.49350000000000005,-0.45528,20.5,0,2146,1079,755,3840,31.00421875,111020,26.26364767429288,1001.024502991643,0
2024-03-17T10:13:48,-0.2787638329,0.005383850849999999,10.08395264205,0.04153883619746505,0.00045814892864851157,-0.04260785036431157,0.03934,0.4907,-0.4461800000000001,20.5,0,2146,1079,755,3840,31.00421875,111020,26.26364767429288,1001.024502991643,0
2024-03-17T10:13:48,-0.27337998204999997,0.011365907350000001,10.069595706449999,0.04489859500755413,-0.0027488935718910697,-0.04581489286485116,0.04494000000000001,0.48706000000000005,-0.4526200000000001,20.5,0,2146,1079,755,3840,31.00421875,111020,26.26364767429288,1001.024502991643,0
2024-03-17T10:13:48,-0.2703889538,0.0263210486,10.021739254449999,0.04214970143566306,-0.0025961772623415654,-0.04642575810304917,0.04494000000000001,0.48706000000000005,-0.4526200000000001,20.5,0,2146,1079,755,3840,31.00421875,111020,26.26364767429288,1001.024502991643,0
2024-03-17T10:13:48,-0.2763710103,0.023928225999999997,10.085149053349998,0.039553524173321496,-0.0007635815477475193,-0.04489859500755413,0.054180000000000006,0.49154000000000003,-0.44716,20.5,0,2146,1079,755,3840,31.00421875,111020,26.26364767429288,1001.024502991643,0
2024-03-17T10:13:48,-0.26620151425,0.014955141249999998,10.06481006125,0.04260785036431157,-0.0012217304763960308,-0.04489859500755413,0.04746000000000001,0.48622000000000004,-0.4571,20.5,0,2146,1079,755,3840,31.00421875,111020,26.26364767429288,1001.024502991643,0
2024-03-17T10:13:48,-0.3002992363,0.010169496049999999,10.0725867347,0.04718933965079669,-0.00045814892864851157,-0.04413501345980661,0.04746000000000001,0.48622000000000004,-0.4571,20.5,0,2146,1079,755,3840,31.0196484375,111607,26.182342627103868,1001.018949496077,0
2024-03-17T10:13:48,-0.25782663515,0.021535403399999997,10.0438728635,0.04092797095926703,0.0015271630954950385,-0.04260785036431157,0.046340000000000006,0.49126000000000003,-0.46158000000000005,20.5,0,2146,1079,755,3840,31.0196484375,111607,26.182342627103868,1001.018949496077,0
2024-03-17T10:13:48,-0.27218357075,0.017946169499999998,10.1024970172,0.04413501345980661,-0.002138028333693054,-0.043676864531158106,0.046340000000000006,0.49126000000000003,-0.46158000000000005,20.5,0,2146,1079,755,3840,31.0196484375,111607,26.182342627103868,1001.018949496077,0
2024-03-17T10:13:48,-0.2763710103,0.0191425808,10.0953185494,0.04260785036431157,0.0012217304763960308,-0.04474587869800463,0.045500000000000006,0.49574000000000007,-0.45094000000000006,20.5,0,2146,1079,755,3840,31.0196484375,111607,26.182342627103868,1001.018949496077,0
2024-03-17T10:13:48,-0.30867411539999995,0.020338992099999998,10.07916699685,0.04413501345980661,-0.0019853120241435504,-0.04413501345980661,0.046340000000000006,0.49350000000000005,-0.4543000000000001,20.5,0,2146,1079,755,3840,31.0196484375,111607,26.182342627103868,1001.018949496077,0
2024-03-17T10:13:48,-0.30807590975,0.03529413334999999,10.076774174250001,0.04703662334124718,-0.0019853120241435504,-0.04780020488899471,0.047740000000000005,0.49602,-0.44142000000000003,20.5,0,2146,1079,755,3840,31.0196484375,111607,26.182342627103868,1001.018949496077,0
2024-03-17T10:13:48,-0.4390829471,0.04366901245,10.024730282699998,0.04428772976935611,-0.0019853120241435504,-0.04230241774521256,0.047740000000000005,0.49602,-0.44142000000000003,20.5,0,2146,1079,755,3840,31.0196484375,111607,26.182342627103868,1001.018949496077,0
2024-03-17T10:13:48,-0.2679961312,0.023330020349999998,10.137791150550001,0.041844268816564056,-0.004123340357836604,-0.043982297150257116,0.04914000000000001,0.48818000000000006,-0.4520600000000001,20.5,0,2146,1079,755,3840,31.0348828125,112725,26.12305502374103,1001.0184666690808,0
2024-03-17T10:13:48,-0.28175486115,0.0191425808,10.080961613799998,0.04306599929296009,0.0015271630954950385,-0.04718933965079669,0.04522,0.49854000000000004,-0.43666000000000005,20.5,0,2146,1079,755,3840,31.0348828125,112725,26.12305502374103,1001.0184666690808,0
2024-03-17T10:13:48,-0.2500499617,0.03529413334999999,10.091729315499999,0.0007635815477475193,-0.002901609881440573,-0.04291328298341058,0.03794,0.48706000000000005,-0.4491200000000001,20.5,0,2146,1079,755,3840,31.0348828125,112725,26.12305502374103,1001.0184666690808,0
2024-03-17T10:13:48,-0.26261228035,0.00059820565,9.994221794549999,0.04046982203061852,-0.0036651914291880926,-0.04092797095926703,0.03794,0.48706000000000005,-0.4491200000000001,20.5,0,2146,1079,755,3840,31.0348828125,112725,26.12305502374103,1001.0184666690808,0
2024-03-17T10:13:48,-0.2715853651,0.017946169499999998,10.028319516599998,0.04092797095926703,-0.003970624048287101,-0.04230241774521256,0.04354000000000001,0.4837,-0.45542,20.5,0,2146,1079,755,3840,31.0348828125,112725,26.12305502374103,1001.0184666690808,0
2024-03-17T10:13:48,-0.26141586904999997,0.028115665550000002,10.07916699685,0.04596760917440065,0.0027488935718910697,-0.04474587869800463,0.04494000000000001,0.48678000000000005,-0.4520600000000001,20.5,0,2146,1079,755,3840,31.0348828125,112725,26.12305502374103,1001.0184666690808,0
2024-03-17T10:13:48,-0.28474588939999995,0.0035892338999999997,10.0773723799,0.041386119887915546,-0.0022907446432425577,-0.04444044607890562,0.04494000000000001,0.48678000000000005,-0.4520600000000001,20.5,0,2146,1079,755,3840,31.0348828125,112725,26.12305502374103,1001.0184666690808,0
2024-03-17T10:13:48,-0.2967100024,0.025722842949999998,10.076175968599998,0.04260785036431157,0.0013744467859455349,-0.04520402762665314,0.04662,0.48566000000000004,-0.45934,20.5,0,2146,1079,755,3840,31.052265625,113255,26.058462702734314,1001.026848916549,0
2024-03-17T10:13:48,-0.30149564759999997,0.005982056499999999,10.09352393245,0.0476474885794452,-0.00015271630954950385,-0.04581489286485116,0.05446000000000001,0.48874000000000006,-0.44044000000000005,20.5,0,2146,1079,755,3840,31.052265625,113255,26.058462702734314,1001.026848916549,0
2024-03-17T10:13:48,-0.2835494781,0.04127618984999999,10.073783145999998,0.04276056667386108,-0.0024434609527920616,-0.0474947722698957,0.0427,0.48650000000000004,-0.44464000000000004,20.5,0,2146,1079,755,3840,31.052265625,113255,26.058462702734314,1001.026848916549,0
2024-03-17T10:13:48,-0.24945175605,0.04247260115,10.0953185494,0.04627304179349966,-0.0013744467859455349,-0.04489859500755413,0.04942,0.48734000000000005,-0.43932000000000004,20.5,0,2146,1079,755,3840,31.052265625,113255,26.058462702734314,1001.026848916549,0
2024-03-17T10:13:48,-0.29312076849999996,0.0083748791,10.007980524499999,0.04489859500755413,-0.002901609881440573,-0.041691552507014555,0.04942,0.48734000000000005,-0.43932000000000004,20.5,0,2146,1079,755,3840,31.052265625,113255,26.058462702734314,1001.026848916549,0
2024-03-17T10:13:48,-0.2955135911,0.0191425808,10.17607631215,0.04321871560250959,0.002901609881440573,-0.04245513405476207,0.04718000000000001,0.4898600000000001,-0.4438000000000001,20.5,0,2146,1079,755,3840,31.052265625,113255,26.058462702734314,1001.026848916549,0
2024-03-17T10:13:48,-0.26919254249999996,0.011365907350000001,10.0749795573,0.0476474885794452,-0.0024434609527920616,-0.04734205596034619,0.04102,0.48622000000000004,-0.4494,20.5,0,2146,1079,755,3840,31.052265625,113255,26.058462702734314,1001.026848916549,0
2024-03-17T10:13:48,-0.27936203854999997,0.0251246373,10.071390323399998,0.04413501345980661,-0.0044287729769356115,-0.0433714319120591,0.04102,0.48622000000000004,-0.4494,20.5,0,2146,1079,755,3840,31.0673046875,113636,25.977234004154138,1001.0296401470748,0
2024-03-17T10:13:48,-0.27517459899999996,0.020937197749999997,10.088738287249999,0.03772092845872745,-0.0022907446432425577,-0.04214970143566306,0.04242,0.48566000000000004,-0.44562000000000007,20.5,0,2145,1079,755,3838,31.0673046875,113636,25.977234004154138,1001.0296401470748,0
2024-03-17T10:13:48,-0.25663022385,0.0323031051,10.057033387799999,0.04092797095926703,-0.003054326190990077,-0.040622538340168025,0.04242,0.48566000000000004,-0.44562000000000007,20.5,0,2145,1079,755,3838,31.0673046875,113636,25.977234004154138,1001.0296401470748,0
2024-03-17T10:13:48,-0.2787638329,0.035892338999999995,10.05763159345,0.04321871560250959,-0.0009162978572970231,-0.04123340357836604,0.04662,0.48706000000000005,-0.4438000000000001,20.5,0,2145,1079,755,3838,31.0673046875,113636,25.977234004154138,1001.0296401470748,0
2024-03-17T10:13:48,-0.2979064137,0.014356935599999999,10.106086251099997,0.04382958084070761,-0.0019853120241435504,-0.0433714319120591,0.04662,0.48762000000000005,-0.44716,20.5,0,2145,1079,755,3838,31.0673046875,113636,25.977234004154138,1001.0296401470748,0
2024-03-17T10:13:48,-0.28594230069999993,0.022133609050000003,10.21795070765,0.04230241774521256,-0.0016798794050445422,-0.051618112627732304,0.04662,0.48762000000000005,-0.44716,20.5,0,2145,1079,755,3838,31.0673046875,113636,25.977234004154138,1001.0296401470748,0
2024-03-17T10:13:48,-0.27936203854999997,0.0502492746,10.071988529050001,0.0476474885794452,-0.0022907446432425577,-0.04260785036431157,0.04438,0.49126000000000003,-0.45066,20.5,0,2145,1079,755,3838,31.0673046875,113636,25.977234004154138,1001.0296401470748,0
2024-03-17T10:13:48,-0.2895315346,0.017946169499999998,10.08634546465,0.041080687268816536,-0.0035124751196385882,-0.04581489286485116,0.04522,0.4968600000000001,-0.45528,20.5,0,2145,1079,755,3838,31.0821484375,114640,25.91799234479452,1001.0303181466287,0
2024-03-17T10:13:48,-0.2955135911,0.022731814700000002,10.07438135165,0.043982297150257116,0.0,-0.04581489286485116,0.04438,0.49266000000000004,-0.43736,20.5,0,2145,1079,755,3838,31.0821484375,114640,25.91799234479452,1001.0303181466287,0
2024-03-17T10:13:48,-0.26620151425,0.0083748791,10.101300605899999,0.039553524173321496,-0.0036651914291880926,-0.04321871560250959,0.0413,0.4963000000000001,-0.44800000000000006,20.5,0,2145,1079,755,3838,31.0821484375,114640,25.91799234479452,1001.0303181466287,0
2024-03-17T10:13:48,-0.2524427843,-0.0047856452,10.0414800409,0.04413501345980661,-0.0016798794050445422,-0.04428772976935611,0.049980000000000004,0.48930000000000007,-0.44576000000000005,20.5,0,2145,1079,755,3838,31.0821484375,114640,25.91799234479452,1001.0303181466287,0
2024-03-17T10:13:48,-0.2955135911,0.028713871199999998,10.06839929515,0.04092797095926703,-0.0035124751196385882,-0.04886921905584123,0.049980000000000004,0.48930000000000007,-0.44576000000000005,20.5,0,2145,1079,755,3838,31.0821484375,114640,25.91799234479452,1001.0303181466287,0
2024-03-17T10:13:48,-0.2656033086,0.022731814700000002,10.1024970172,0.03756821214917795,-0.0013744467859455349,-0.04596760917440065,0.048580000000000005,0.49294000000000004,-0.45696000000000003,20.5,0,2145,1079,755,3838,31.0821484375,114640,25.91799234479452,1001.0303181466287,0
2024-03-17T10:13:49,-0.28713871199999996,0.01854437515,10.0953185494,0.043982297150257116,-0.0033597588100890844,-0.04627304179349966,0.047740000000000005,0.50022,-0.45178,20.5,0,2145,1079,755,3838,31.0821484375,114640,25.91799234479452,1001.0303181466287,0
2024-03-17T10:13:49,-0.2715853651,0.00658026215,10.06361364995,0.04428772976935611,-0.002138028333693054,-0.04657847441259867,0.047740000000000005,0.50022,-0.45178,20.5,0,2145,1079,755,3838,31.0950390625,115109,25.84764453105193,1001.027833674376,0
2024-03-17T10:13:49,-0.2703889538,0.014356935599999999,10.0546405652,0.04321871560250959,-0.003054326190990077,-0.04321871560250959,0.041580000000000006,0.4963000000000001,-0.44016000000000005,20.5,0,2145,1079,755,3838,31.0950390625,115109,25.84764453105193,1001.027833674376,0
2024-03-17T10:13:49,-0.29132615154999997,0.022133609050000003,10.09113110985,0.04230241774521256,-0.0018325957145940463,-0.048411070127192715,0.041580000000000006,0.4963000000000001,-0.44016000000000005,20.5,0,2145,1079,755,3838,31.0950390625,115109,25.84764453105193,1001.027833674376,0
2024-03-17T10:13:49,-0.28235306679999994,0.0334995164,10.094720343749998,0.04321871560250959,-0.00045814892864851157,-0.04688390703169768,0.051660000000000005,0.4974200000000001,-0.44828,20.5,0,2145,1079,755,3838,31.0950390625,115109,25.84764453105193,1001.027833674376,0
2024-03-17T10:13:49,-0.27816562724999994,0.020338992099999998,10.076774174250001,0.041996985126113565,-0.004123340357836604,-0.04657847441259867,0.0483,0.49294000000000004,-0.44926000000000005,20.5,0,2145,1079,755,3838,31.0950390625,115109,25.84764453105193,1001.027833674376,0
2024-03-17T10:13:49,-0.27696921594999996,0.014955141249999998,10.07318494035,0.04001167310197001,-0.005803219762881146,-0.04718933965079669,0.0483,0.49294000000000004,-0.44926000000000005,20.5,0,2145,1079,755,3838,31.0950390625,115109,25.84764453105193,1001.027833674376,0
2024-03-17T10:13:49,-0.2739781877,0.027517459899999996,10.0941221381,0.04535674393620265,-0.004581489286485115,-0.04642575810304917,0.041580000000000006,0.49182000000000003,-0.43792000000000003,20.5,0,2145,1079,755,3838,31.0950390625,115109,25.84764453105193,1001.027833674376,0
2024-03-17T10:13:49,-0.30508488149999996,0.0,10.080961613799998,0.04260785036431157,0.00045814892864851157,-0.04276056667386108,0.03626000000000001,0.48706000000000005,-0.4531800000000001,20.5,0,2145,1079,755,3838,31.10890625,115266,25.77740524133247,1001.0179477917508,0
2024-03-17T10:13:49,-0.29252256285,0.028713871199999998,10.1383893562,0.04444044607890562,-0.00045814892864851157,-0.04948008429403925,0.04102,0.48706000000000005,-0.4426800000000001,20.5,0,2145,1079,755,3838,31.10890625,115266,25.77740524133247,1001.0179477917508,0
2024-03-17T10:13:49,-0.26021945775,0.020937197749999997,10.05882800475,0.04612032548395016,0.0007635815477475193,-0.043982297150257116,0.046060000000000004,0.49126000000000003,-0.46858000000000005,20.5,0,2145,1079,755,3838,31.10890625,115266,25.77740524133247,1001.0179477917508,0
2024-03-17T10:13:49,-0.29910282499999996,0.03649054465,10.08634546465,0.04688390703169768,-0.0024434609527920616,-0.04520402762665314,0.046060000000000004,0.49126000000000003,-0.46858000000000005,20.5,0,2145,1079,755,3838,31.10890625,115266,25.77740524133247,1001.0179477917508,0
2024-03-17T10:13:49,-0.28295127244999996,0.020937197749999997,10.08036340815,0.04245513405476207,-0.003970624048287101,-0.0433714319120591,0.04102,0.49434000000000006,-0.45514000000000004,20.5,0,2145,1079,755,3838,31.10890625,115266,25.77740524133247,1001.0179477917508,0
2024-03-17T10:13:49,-0.2763710103,0.0323031051,10.2317094376,0.041386119887915546,-0.005039638215133627,-0.04428772976935611,0.03878,0.49294000000000004,-0.45038000000000006,20.5,0,2145,1079,755,3838,31.10890625,115266,25.77740524133247,1001.0179477917508,0
2024-03-17T10:13:49,-0.26380869165,0.00418743955,10.085747258999998,0.04260785036431157,-0.005345070834232635,-0.048411070127192715,0.03878,0.49294000000000004,-0.45038000000000006,20.5,0,2145,1079,755,3838,31.10890625,115266,25.77740524133247,1001.0179477917508,0
2024-03-17T10:13:49,-0.25184457865,0.0011964113,10.071390323399998,0.038789942625573975,-0.0006108652381980154,-0.04581489286485116,0.04942,0.49938000000000005,-0.44688000000000005,20.5,0,2145,1079,755,3838,31.121796875,116219,25.7126044502097,1001.0154614277593,0
2024-03-17T10:13:49,-0.2679961312,0.0191425808,10.06361364995,0.04123340357836604,0.0,-0.04596760917440065,0.042140000000000004,0.49406000000000005,-0.43932000000000004,20.5,0,2136,1072,751,3822,31.121796875,116219,25.7126044502097,1001.0154614277593,0
2024-03-17T10:13:49,-0.26979074815,0.01734796385,10.0414800409,0.04505131131710364,0.0,-0.04703662334124718,0.04102,0.4979800000000001,-0.44184,20.5,0,2136,1072,751,3822,31.121796875,116219,25.7126044502097,1001.0154614277593,0
2024-03-17T10:13:49,-0.29491538544999996,0.028713871199999998,10.080961613799998,0.04673119072214818,-0.0015271630954950385,-0.04382958084070761,0.04102,0.4979800000000001,-0.44184,20.5,0,2136,1072,751,3822,31.121796875,116219,25.7126044502097,1001.0154614277593,0
2024-03-17T10:13:49,-0.27696921594999996,0.014356935599999999,10.070792117749999,0.04077525464971753,-0.0027488935718910697,-0.04428772976935611,0.032900000000000006,0.49518000000000006,-0.44394000000000006,20.5,0,2136,1072,751,3822,31.121796875,116219,25.7126044502097,1001.0154614277593,0
2024-03-17T10:13:49,-0.26500510294999996,0.027517459899999996,10.073783145999998,0.04214970143566306,-0.002138028333693054,-0.04505131131710364,0.03934,0.48622000000000004,-0.43792000000000003,20.5,0,2136,1072,751,3822,31.121796875,116219,25.7126044502097,1001.0154614277593,0
2024-03-17T10:13:49,-0.26919254249999996,0.013758729949999998,10.0893364929,0.04444044607890562,-0.0016798794050445422,-0.04535674393620265,0.044660000000000005,0.49602,-0.43904000000000004,20.5,0,2136,1072,751,3822,31.121796875,116219,25.7126044502097,1001.0154614277593,0
2024-03-17T10:13:49,-0.31645078885,0.023330020349999998,10.0845508477,0.04260785036431157,-0.0009162978572970231,-0.04459316238845512,0.044660000000000005,0.49602,-0.43904000000000004,20.5,0,2136,1072,751,3822,31.1344921875,116460,25.642335883387013,1001.0198434032889,0
2024-03-17T10:13:49,-0.29910282499999996,0.02691925425,10.0725867347,0.041844268816564056,-0.0019853120241435504,-0.04703662334124718,0.04102,0.4907,-0.44828,20.5,0,2136,1072,751,3822,31.1344921875,116460,25.642335883387013,1001.0198434032889,0
2024-03-17T10:13:49,-0.29910282499999996,0.028713871199999998,10.09113110985,0.04306599929296009,-0.004123340357836604,-0.04642575810304917,0.04886000000000001,0.49322000000000005,-0.44534,20.5,0,2136,1072,751,3822,31.1344921875,116460,25.642335883387013,1001.0198434032889,0
2024-03-17T10:13:49,-0.26141586904999997,0.0263210486,10.019944637499998,0.04459316238845512,-0.004123340357836604,-0.04596760917440065,0.0413,0.48790000000000006,-0.44842000000000004,20.5,0,2136,1072,751,3822,31.1344921875,116460,25.642335883387013,1001.0198434032889,0
2024-03-17T10:13:49,-0.28235306679999994,0.031106693799999998,9.97866844765,0.040317105721069016,-0.001069014166846527,-0.04627304179349966,0.04186000000000001,0.4898600000000001,-0.43736,20.5,0,2136,1072,751,3822,31.1344921875,116460,25.642335883387013,1001.0198434032889,0
2024-03-17T10:13:49,-0.2703889538,0.020338992099999998,10.08634546465,0.0435241482216086,-0.0054977871437821395,-0.04550946024575215,0.04186000000000001,0.4898600000000001,-0.43736,20.5,0,2136,1072,751,3822,31.1344921875,116460,25.642335883387013,1001.0198434032889,0
2024-03-17T10:13:49,-0.28474588939999995,0.028713871199999998,10.1048898398,0.04459316238845512,-0.0036651914291880926,-0.048716502746291725,0.049980000000000004,0.4907,-0.4501,20.5,0,2136,1072,751,3822,31.1344921875,116460,25.642335883387013,1001.0198434032889,0
2024-03-17T10:13:49,-0.28055844984999995,0.005982056499999999,10.109077279349998,0.04153883619746505,-0.0009162978572970231,-0.04612032548395016,0.039900000000000005,0.49462000000000006,-0.44814000000000004,20.5,0,2136,1072,751,3822,31.1469921875,116139,25.566607653118215,1001.0221123327015,0
2024-03-17T10:13:49,-0.26380869165,0.0263210486,10.057033387799999,0.04550946024575215,-0.0036651914291880926,-0.04673119072214818,0.04186000000000001,0.49266000000000004,-0.4473000000000001,20.5,0,2136,1072,751,3822,31.1469921875,116139,25.566607653118215,1001.0221123327015,0
2024-03-17T10:13:49,-0.2883351233,0.007178467799999999,10.097711372000001,0.04245513405476207,-0.004886921905584123,-0.04948008429403925,0.039900000000000005,0.48958,-0.45178,20.5,0,2136,1072,751,3822,31.1469921875,116139,25.566607653118215,1001.0221123327015,0
2024-03-17T10:13:49,-0.3098705267,0.01974078645,10.230513026299999,0.040317105721069016,-0.007635815477475193,-0.04505131131710364,0.039900000000000005,0.48958,-0.45178,20.5,0,2136,1072,751,3822,31.1469921875,116139,25.566607653118215,1001.0221123327015,0
2024-03-17T10:13:49,-0.29491538544999996,0.02691925425,10.076774174250001,0.04077525464971753,-0.0024434609527920616,-0.04535674393620265,0.037380000000000004,0.4898600000000001,-0.42854000000000003,20.5,0,2136,1072,751,3822,31.1469921875,116139,25.566607653118215,1001.0221123327015,0
2024-03-17T10:13:49,-0.27996024419999993,0.014356935599999999,10.0821580251,0.04886921905584123,-0.002138028333693054,-0.04260785036431157,0.04914000000000001,0.48790000000000006,-0.44450000000000006,20.5,0,2136,1072,751,3822,31.1469921875,116139,25.566607653118215,1001.0221123327015,0
2024-03-17T10:13:49,-0.2907279459,0.014356935599999999,10.046863891749998,0.04596760917440065,-0.004581489286485115,-0.04489859500755413,0.04914000000000001,0.48790000000000006,-0.44450000000000006,20.5,0,2136,1072,751,3822,31.1469921875,116139,25.566607653118215,1001.0221123327015,0
2024-03-17T10:13:49,-0.29371897415,0.027517459899999996,10.1479606466,0.04245513405476207,-0.0006108652381980154,-0.04566217655530165,0.0511,0.49350000000000005,-0.44520000000000004,20.5,0,2136,1072,751,3822,31.1591015625,117187,25.507310396612155,1001.0219520016288,0
2024-03-17T10:13:49,-0.2656033086,0.014356935599999999,10.08036340815,0.04474587869800463,-0.0016798794050445422,-0.04612032548395016,0.0511,0.49350000000000005,-0.44422,20.5,0,2136,1072,751,3822,31.1591015625,117187,25.507310396612155,1001.0219520016288,0
2024-03-17T10:13:50,-0.29312076849999996,0.03170489945,10.01456078665,0.04459316238845512,-0.0027488935718910697,-0.04856378643674222,0.05362000000000001,0.48902000000000007,-0.45514000000000004,20.5,0,2136,1072,751,3822,31.1591015625,117187,25.507310396612155,1001.0219520016288,0
2024-03-17T10:13:50,-0.26739792554999997,0.027517459899999996,10.09352393245,0.04688390703169768,-0.0025961772623415654,-0.04474587869800463,0.048580000000000005,0.49294000000000004,-0.44464000000000004,20.5,0,2136,1072,751,3822,31.1591015625,117187,25.507310396612155,1001.0219520016288,0
2024-03-17T10:13:50,-0.2703889538,0.01734796385,10.088738287249999,0.04688390703169768,-0.002138028333693054,-0.04489859500755413,0.048580000000000005,0.49294000000000004,-0.44464000000000004,20.5,0,2136,1072,751,3822,31.1591015625,117187,25.507310396612155,1001.0219520016288,0
2024-03-17T10:13:50,-0.26859433685,0.0251246373,10.097113166349997,0.043676864531158106,0.005039638215133627,-0.04581489286485116,0.04494000000000001,0.49126000000000003,-0.44282000000000005,20.5,0,2136,1072,751,3822,31.1591015625,117187,25.507310396612155,1001.0219520016288,0
2024-03-17T10:13:50,-0.26500510294999996,0.020338992099999998,10.039685423949999,0.04444044607890562,-0.0015271630954950385,-0.04627304179349966,0.04354000000000001,0.49266000000000004,-0.44100000000000006,20.5,0,2136,1072,751,3822,31.1591015625,117187,25.507310396612155,1001.0219520016288,0
2024-03-17T10:13:50,-0.29910282499999996,0.011365907350000001,10.0893364929,0.040317105721069016,-0.00015271630954950385,-0.04489859500755413,0.04354000000000001,0.49266000000000004,-0.44100000000000006,20.5,0,2136,1072,751,3822,31.170625,118671,25.447990802633395,1001.0172497935902,0
2024-03-17T10:13:50,-0.26919254249999996,0.005982056499999999,10.091729315499999,0.04092797095926703,-0.0035124751196385882,-0.04642575810304917,0.0441,0.48258000000000006,-0.44422,20.5,0,1549,760,566,2957,31.170625,118671,25.447990802633395,1001.0172497935902,0
2024-03-17T10:13:50,-0.29371897415,0.03529413334999999,10.06361364995,0.04306599929296009,0.0024434609527920616,-0.04413501345980661,0.0441,0.48258000000000006,-0.44422,20.5,0,1549,760,566,2957,31.170625,118671,25.447990802633395,1001.0172497935902,0
2024-03-17T10:13:50,-0.2727817764,0.014356935599999999,10.0701939121,0.04291328298341058,-0.0054977871437821395,-0.04642575810304917,0.04354000000000001,0.49294000000000004,-0.44646,20.5,0,1549,760,566,2957,31.170625,118671,25.447990802633395,1001.0172497935902,0
2024-03-17T10:13:50,-0.28474588939999995,0.0263210486,10.085149053349998,0.03924809155422249,-0.0022907446432425577,-0.04734205596034619,0.04354000000000001,0.48734000000000005,-0.45122,20.5,0,1549,760,566,2957,31.170625,118671,25.447990802633395,1001.0172497935902,0
2024-03-17T10:13:50,-0.28773691765000003,0.01974078645,10.0654082669,0.04550946024575215,-0.00473420559603462,-0.04734205596034619,0.04354000000000001,0.48734000000000005,-0.45122,20.5,0,1549,760,566,2957,31.170625,118671,25.447990802633395,1001.0172497935902,0
2024-03-17T10:13:50,-0.28654050634999995,0.029312076849999997,10.0462656861,0.0435241482216086,-0.0024434609527920616,-0.04444044607890562,0.050820000000000004,0.50554,-0.45094000000000006,20.5,0,1549,760,566,2957,31.170625,118671,25.447990802633395,1001.0172497935902,0
2024-03-17T10:13:50,-0.28295127244999996,0.03170489945,10.101898811549999,0.040317105721069016,-0.003970624048287101,-0.04688390703169768,0.04494000000000001,0.48902000000000007,-0.46088000000000007,20.5,0,1549,760,566,2957,31.18390625,118090,25.388829508242846,1001.0225776899613,0
2024-03-17T10:13:50,-0.25124637299999997,0.01615155255,10.0438728635,0.041080687268816536,-0.006566801310628666,-0.04612032548395016,0.04438,0.48734000000000005,-0.44856000000000007,20.5,0,1549,760,566,2957,31.18390625,118090,25.388829508242846,1001.0225776899613,0
2024-03-17T10:13:50,-0.28055844984999995,0.010767701699999998,9.9876415324,0.04276056667386108,-0.00045814892864851157,-0.0474947722698957,0.04886000000000001,0.48930000000000007,-0.44954,20.5,0,1549,760,566,2957,31.18390625,118090,25.388829508242846,1001.0225776899613,0
2024-03-17T10:13:50,-0.2835494781,0.011964112999999998,10.03848901265,0.04276056667386108,-0.00595593607243065,-0.0474947722698957,0.04886000000000001,0.48706000000000005,-0.4467400000000001,20.5,0,1549,760,566,2957,31.18390625,118090,25.388829508242846,1001.0225776899613,0
2024-03-17T10:13:50,-0.2955135911,0.014356935599999999,10.08634546465,0.04306599929296009,-0.0056505034533316425,-0.04444044607890562,0.045500000000000006,0.48706000000000005,-0.4467400000000001,20.5,0,1549,760,566,2957,31.18390625,118090,25.388829508242846,1001.0225776899613,0
2024-03-17T10:13:50,-0.27517459899999996,0.0047856452,10.04447106915,0.04413501345980661,-0.0013744467859455349,-0.04428772976935611,0.05054000000000001,0.48790000000000006,-0.44926000000000005,20.5,0,1549,760,566,2957,31.18390625,118090,25.388829508242846,1001.0225776899613,0
2024-03-17T10:13:50,-0.2775674216,0.010169496049999999,10.0749795573,0.04046982203061852,-0.0033597588100890844,-0.0476474885794452,0.039060000000000004,0.48706000000000005,-0.44170000000000004,20.5,0,1549,760,566,2957,31.18390625,118090,25.388829508242846,1001.0225776899613,0
2024-03-17T10:13:50,-0.28594230069999993,0.0191425808,10.086943670299998,0.04016438941151951,0.0003054326190990077,-0.04123340357836604,0.039060000000000004,0.48706000000000005,-0.44170000000000004,20.5,0,1549,760,566,2957,31.1958203125,119596,25.324117841475605,1001.0274887319902,0
2024-03-17T10:13:50,-0.2644068973,0.017946169499999998,10.08036340815,0.04489859500755413,-0.0038179077387375964,-0.04657847441259867,0.05306,0.48622000000000004,-0.44632000000000005,20.5,0,1549,760,566,2957,31.1958203125,119596,25.324117841475605,1001.0274887319902,0
2024-03-17T10:13:50,-0.27218357075,0.030508488149999995,10.08155981945,0.04260785036431157,-0.0012217304763960308,-0.04153883619746505,0.05306,0.48622000000000004,-0.44632000000000005,20.5,0,1549,760,566,2957,31.1958203125,119596,25.324117841475605,1001.0274887319902,0
2024-03-17T10:13:50,-0.28295127244999996,0.021535403399999997,10.0941221381,0.04428772976935611,-0.0016798794050445422,-0.04382958084070761,0.046340000000000006,0.48706000000000005,-0.44870000000000004,20.5,0,1549,760,566,2957,31.1958203125,119596,25.324117841475605,1001.0274887319902,0
2024-03-17T10:13:50,-0.28175486115,0.03409772205,10.08634546465,0.04291328298341058,0.00045814892864851157,-0.04260785036431157,0.052500000000000005,0.49378000000000005,-0.4555600000000001,20.5,0,1549,760,566,2957,31.1958203125,119596,25.324117841475605,1001.0274887319902,0
2024-03-17T10:13:50,-0.2727817764,0.023928225999999997,10.083354436399997,0.039095375244672985,-0.0019853120241435504,-0.04520402762665314,0.052500000000000005,0.49378000000000005,-0.4555600000000001,20.5,0,1549,760,566,2957,31.1958203125,119596,25.324117841475605,1001.0274887319902,0
2024-03-17T10:13:50,-0.2763710103,0.03529413334999999,10.0594262104,0.04520402762665314,-0.0019853120241435504,-0.04428772976935611,0.05306,0.48734000000000005,-0.44394000000000006,20.5,0,1549,760,566,2957,31.1958203125,119596,25.324117841475605,1001.0274887319902,0
2024-03-17T10:13:50,-0.2883351233,0.00418743955,10.085747258999998,0.04535674393620265,-0.0044287729769356115,-0.04657847441259867,0.04662,0.48930000000000007,-0.44828,20.5,0,1549,760,566,2957,31.2079296875,119851,25.27037974020878,1001.0363084844622,0
2024-03-17T10:13:50,-0.27337998204999997,0.023330020349999998,10.083354436399997,0.04260785036431157,-0.0025961772623415654,-0.04046982203061852,0.045500000000000006,0.4837,-0.44492000000000004,20.5,0,1549,760,566,2957,31.2079296875,119851,25.27037974020878,1001.0363084844622,0
2024-03-17T10:13:50,-0.2775674216,0.023928225999999997,10.08155981945,0.0433714319120591,-0.0033597588100890844,-0.041996985126113565,0.045500000000000006,0.4837,-0.44492000000000004,20.5,0,1549,760,566,2957,31.2079296875,119851,25.27037974020878,1001.0363084844622,0
2024-03-17T10:13:50,-0.27996024419999993,0.005982056499999999,10.082756230749998,0.0435241482216086,-0.0022907446432425577,-0.04444044607890562,0.047740000000000005,0.49126000000000003,-0.44226000000000004,20.5,0,1549,760,566,2957,31.2079296875,119851,25.27037974020878,1001.0363084844622,0
2024-03-17T10:13:50,-0.44925244314999996,0.023330020349999998,10.0821580251,0.04581489286485116,-0.0025961772623415654,-0.04703662334124718,0.04438,0.48314000000000007,-0.44422,20.5,0,1549,760,566,2957,31.2079296875,119851,25.27037974020878,1001.0363084844622,0
2024-03-17T10:13:50,-0.27577280465,0.0334995164,10.04447106915,0.04444044607890562,-0.0016798794050445422,-0.04428772976935611,0.04438,0.48314000000000007,-0.44422,20.5,0,1549,760,566,2957,31.2079296875,119851,25.27037974020878,1001.0363084844622,0
2024-03-17T10:13:50,-0.2739781877,-0.0029910282499999996,10.089934698549998,0.04260785036431157,-0.0009162978572970231,-0.04550946024575215,0.048580000000000005,0.49210000000000004,-0.45066,20.5,0,1549,760,566,2957,31.2079296875,119851,25.27037974020878,1001.0363084844622,0
2024-03-17T10:13:50,-0.25782663515,0.027517459899999996,10.106086251099997,0.041386119887915546,-0.0027488935718910697,-0.04413501345980661,0.04886000000000001,0.4909800000000001,-0.44170000000000004,20.5,0,1581,801,597,3016,31.217890625,120795,25.205568902456243,1001.0326679402285,0
2024-03-17T10:13:50,-0.2679961312,0.014955141249999998,10.003793084949999,0.043982297150257116,-0.0025961772623415654,-0.047952921198544204,0.046900000000000004,0.49546,-0.44058,20.5,0,1581,801,597,3016,31.217890625,120795,25.205568902456243,1001.0326679402285,0
2024-03-17T10:13:50,-0.26380869165,-0.01854437515,10.069595706449999,0.04535674393620265,-0.00473420559603462,-0.0435241482216086,0.05278000000000001,0.49266000000000004,-0.43932000000000004,20.5,0,1581,801,597,3016,31.217890625,120795,25.205568902456243,1001.0326679402285,0
2024-03-17T10:13:50,-0.28534409504999997,0.027517459899999996,10.11625574715,0.03588833274413341,-0.0035124751196385882,-0.04734205596034619,0.05278000000000001,0.49266000000000004,-0.43932000000000004,20.5,0,1581,801,597,3016,31.217890625,120795,25.205568902456243,1001.0326679402285,0
2024-03-17T10:13:50,-0.24047867129999997,0.0382851616,10.070792117749999,0.04123340357836604,-0.0009162978572970231,-0.0474947722698957,0.042980000000000004,0.49378000000000005,-0.44226000000000004,20.5,0,1581,801,597,3016,31.217890625,120795,25.205568902456243,1001.0326679402285,0
2024-03-17T10:13:50,-0.30687949845,0.037686955949999996,10.1024970172,0.041844268816564056,-0.0015271630954950385,-0.04550946024575215,0.049980000000000004,0.4898600000000001,-0.43904000000000004,20.5,0,1581,801,597,3016,31.217890625,120795,25.205568902456243,1001.0326679402285,0
2024-03-17T10:13:50,-0.29371897415,0.025722842949999998,10.05882800475,0.039095375244672985,0.0015271630954950385,-0.047952921198544204,0.04718000000000001,0.4963000000000001,-0.44856000000000007,20.5,0,1581,801,597,3016,31.217890625,120795,25.205568902456243,1001.0326679402285,0
2024-03-17T10:13:50,-0.28594230069999993,0.020338992099999998,10.089934698549998,0.04673119072214818,-0.004581489286485115,-0.04413501345980661,0.04718000000000001,0.4963000000000001,-0.44856000000000007,20.5,0,1581,801,597,3016,31.2284375,119427,25.14083103008278,1001.0371614835079,0
2024-03-17T10:13:51,-0.26500510294999996,0.010767701699999998,10.127621654499999,0.07559457322700441,-0.003970624048287101,-0.04382958084070761,0.04942,0.48930000000000007,-0.44352,20.5,0,1581,801,597,3016,31.2284375,119427,25.14083103008278,1001.0371614835079,0
2024-03-17T10:13:51,-0.2883351233,-0.0023928226,10.06361364995,0.041691552507014555,0.00015271630954950385,-0.04260785036431157,0.04942,0.48930000000000007,-0.44352,20.5,0,1581,801,597,3016,31.2284375,119427,25.14083103008278,1001.0371614835079,0
2024-03-17T10:13:51,-0.30209385325,0.040677984199999996,10.103693428499998,0.040317105721069016,-0.0033597588100890844,-0.04550946024575215,0.04662,0.48454,-0.44450000000000006,20.5,0,1581,801,597,3016,31.2284375,119427,25.14083103008278,1001.0371614835079,0
2024-03-17T10:13:51,-0.2727817764,0.062213387599999996,10.07438135165,0.0476474885794452,-0.0006108652381980154,-0.04657847441259867,0.0511,0.4837,-0.43736,20.5,0,1581,801,597,3016,31.2284375,119427,25.14083103008278,1001.0371614835079,0
2024-03-17T10:13:51,-0.3158525832,0.0047856452,10.051649536949999,0.041080687268816536,0.0022907446432425577,-0.04474587869800463,0.0511,0.4837,-0.43736,20.5,0,1581,801,597,3016,31.2284375,119427,25.14083103008278,1001.0371614835079,0
2024-03-17T10:13:51,-0.28115665549999996,-0.011365907350000001,10.09950598895,0.039400807863771994,0.0018325957145940463,-0.04612032548395016,0.055020000000000006,0.48790000000000006,-0.44198000000000004,20.5,0,1581,801,597,3016,31.2284375,119427,25.14083103008278,1001.0371614835079,0
2024-03-17T10:13:51,-0.23748764304999997,0.005383850849999999,10.177272723449999,0.04092797095926703,-0.036499197982331415,-0.04856378643674222,0.048580000000000005,0.48734000000000005,-0.4501,20.5,0,1581,801,597,3016,31.2383984375,120708,25.097911352922214,1001.0299266939692,0
2024-03-17T10:13:51,-0.28534409504999997,-0.011964112999999998,10.157531936999998,0.04260785036431157,-0.003054326190990077,-0.04474587869800463,0.05278000000000001,0.48566000000000004,-0.44814000000000004,20.5,0,1581,801,597,3016,31.2383984375,120708,25.097911352922214,1001.0299266939692,0
2024-03-17T10:13:51,-0.28534409504999997,0.0263210486,10.02413207705,0.04123340357836604,-0.0019853120241435504,-0.04382958084070761,0.051660000000000005,0.48594000000000004,-0.4397400000000001,20.5,0,1581,801,597,3016,31.2383984375,120708,25.097911352922214,1001.0299266939692,0
2024-03-17T10:13:51,-0.27577280465,0.03409772205,10.076774174250001,0.04123340357836604,-0.002138028333693054,-0.04612032548395016,0.051660000000000005,0.48594000000000004,-0.4397400000000001,20.5,0,1581,801,597,3016,31.2383984375,120708,25.097911352922214,1001.0299266939692,0
2024-03-17T10:13:51,-0.29312076849999996,0.0011964113,10.09830957765,0.043982297150257116,-0.0025961772623415654,-0.04673119072214818,0.04914000000000001,0.4904200000000001,-0.44534,20.5,0,1581,801,597,3016,31.2383984375,120708,25.097911352922214,1001.0299266939692,0
2024-03-17T10:13:51,-0.2907279459,-0.005383850849999999,10.06122082735,0.04444044607890562,-0.0024434609527920616,-0.04077525464971753,0.0553,0.48790000000000006,-0.44100000000000006,20.5,0,1581,801,597,3016,31.2383984375,120708,25.097911352922214,1001.0299266939692,0
2024-03-17T10:13:51,-0.28235306679999994,0.030508488149999995,10.0893364929,0.04444044607890562,-0.002138028333693054,-0.04673119072214818,0.0553,0.48790000000000006,-0.44100000000000006,20.5,0,1581,801,597,3016,31.2383984375,120708,25.097911352922214,1001.0299266939692,0
2024-03-17T10:13:51,-0.29730820804999997,0.02691925425,10.2436735506,0.043676864531158106,-0.005039638215133627,-0.04596760917440065,0.042140000000000004,0.48846000000000006,-0.44142000000000003,20.5,0,1581,801,597,3016,31.24875,120968,25.038661641734294,1001.0251200605625,0
2024-03-17T10:13:51,-0.4354937132,0.0077766734499999995,10.15214808615,0.04230241774521256,0.0007635815477475193,-0.047952921198544204,0.046340000000000006,0.49294000000000004,-0.44534,20.5,0,1581,801,597,3016,31.24875,120968,25.038661641734294,1001.0251200605625,0
2024-03-17T10:13:51,-0.29012974025,0.015553346899999999,10.180861957349999,0.04046982203061852,-0.0013744467859455349,-0.04291328298341058,0.04578,0.49294000000000004,-0.43414,20.5,0,1581,801,597,3016,31.24875,120968,25.038661641734294,1001.0251200605625,0
2024-03-17T10:13:51,-0.26141586904999997,0.023928225999999997,10.052247742599999,0.04230241774521256,0.00015271630954950385,-0.04459316238845512,0.05446000000000001,0.4963000000000001,-0.43456000000000006,20.5,0,1581,801,597,3016,31.24875,120968,25.038661641734294,1001.0251200605625,0
2024-03-17T10:13:51,-0.27696921594999996,0.0191425808,10.0749795573,0.04153883619746505,-0.0019853120241435504,-0.04627304179349966,0.05446000000000001,0.4963000000000001,-0.43456000000000006,20.5,0,1581,801,597,3016,31.24875,120968,25.038661641734294,1001.0251200605625,0
2024-03-17T10:13:51,-0.2883351233,0.03529413334999999,10.085747258999998,0.04077525464971753,-0.0015271630954950385,-0.0433714319120591,0.04746000000000001,0.49126000000000003,-0.44576000000000005,20.5,0,1581,801,597,3016,31.24875,120968,25.038661641734294,1001.0251200605625,0
2024-03-17T10:13:51,-0.26919254249999996,0.046660040699999995,10.043274657849999,0.04306599929296009,-0.0024434609527920616,-0.041691552507014555,0.05138,0.48902000000000007,-0.4403000000000001,20.5,1,1869,941,694,3460,31.24875,120968,25.038661641734294,1001.0251200605625,0
2024-03-17T10:13:51,-0.26859433685,0.049651068949999995,10.061819032999999,0.04306599929296009,0.0006108652381980154,-0.04596760917440065,0.046060000000000004,0.49154000000000003,-0.45500000000000007,20.5,1,1869,941,694,3460,31.25890625,120622,24.984875169764415,1001.0128100355774,0
2024-03-17T10:13:51,-0.24765713909999998,0.06101697629999999,10.114461130199999,0.0433714319120591,-0.0024434609527920616,-0.04459316238845512,0.04914000000000001,0.4909800000000001,-0.44604000000000005,20.5,1,1869,941,694,3460,31.25890625,120622,24.984875169764415,1001.0128100355774,0
2024-03-17T10:13:51,-0.2787638329,0.014955141249999998,10.1539427031,0.0435241482216086,-0.0019853120241435504,-0.04642575810304917,0.045500000000000006,0.48958,-0.44604000000000005,20.5,1,1869,941,694,3460,31.25890625,120622,24.984875169764415,1001.0128100355774,0
2024-03-17T10:13:51,-0.26979074815,0.005383850849999999,10.097113166349997,0.0433714319120591,0.0025961772623415654,-0.043982297150257116,0.04942,0.49182000000000003,-0.4529,20.5,1,1869,941,694,3460,31.25890625,120622,24.984875169764415,1001.0128100355774,0
2024-03-17T10:13:51,-0.27996024419999993,0.015553346899999999,10.104291634149998,0.040622538340168025,-0.0007635815477475193,-0.04444044607890562,0.0511,0.49658,-0.44254000000000004,20.5,1,1869,941,694,3460,31.25890625,120622,24.984875169764415,1001.0128100355774,0
2024-03-17T10:13:51,-0.28654050634999995,0.0263210486,10.048658508699999,0.04046982203061852,0.0018325957145940463,-0.048258353817643214,0.0511,0.49658,-0.44254000000000004,20.5,1,1869,941,694,3460,31.25890625,120622,24.984875169764415,1001.0128100355774,0
2024-03-17T10:13:51,-0.31286155495,0.0323031051,10.088140081599997,0.04230241774521256,-0.0044287729769356115,-0.041996985126113565,0.04662,0.48650000000000004,-0.44338000000000005,20.5,1,1869,941,694,3460,31.25890625,120622,24.984875169764415,1001.0128100355774,0
2024-03-17T10:13:51,-0.28055844984999995,-0.12861421474999998,10.079765202499999,0.04276056667386108,-0.002138028333693054,-0.041691552507014555,0.04102,0.49322000000000005,-0.4578000000000001,20.5,1,1869,941,694,3460,31.268671875,121055,24.931078184352643,1001.0124438885199,0
