Timestamp,Accel_X,Accel_Y,Accel_Z,Gyro_X,Gyro_Y,Gyro_Z,Mag_X,Mag_Y,Mag_Z,LSM9DS1_Temp,Proximity,Color_R,Color_G,Color_B,Color_C,BME680_Temp,Gas,Humidity,Pressure,Switch_Pressed,GPS_Latitude,GPS_Longitude,GPS_Speed,GPS_Timestamp,Pad_press
2024-03-25T15:26:21,-3.3493534343499998,1.5589239239,9.53360344405,0.036804630601430424,0.0018325957145940463,-0.036804630601430424,0.16002000000000002,0.22386,-0.4426800000000001,7.5,0,0,0,0,0,33.574921875,3235470,100,695.662002676745,0,,,,N/A,False
2024-03-25T15:26:21,-3.3481570230499993,1.5708880368999998,9.509675218049999,0.03756821214917795,0.0036651914291880926,-0.03466660226773738,0.15498,0.21966000000000002,-0.43554000000000004,7.5,0,0,0,0,0,33.574921875,3235470,100,695.662002676745,0,,,,N/A,False
2024-03-25T15:26:21,-3.3607193417,1.5308082583499998,9.52044291975,0.0316122760767473,0.0054977871437821395,-0.036804630601430424,0.16338000000000003,0.21826,-0.43190000000000006,7.5,0,0,0,0,0,33.574921875,3235470,100,695.662002676745,0,,,,N/A,False
2024-03-25T15:26:21,-3.3415767608999998,1.5529418674,9.54556755705,0.036193765363232405,0.004123340357836604,-0.03451388595818787,0.15862,0.22190000000000004,-0.4443600000000001,7.5,0,9111,8625,13609,33087,33.574921875,3235470,100,695.662002676745,0,40.689298,-73.991745,0.2,19:25:48,False
2024-03-25T15:26:21,-3.22612307045,1.567298803,9.5198447141,0.03695734691097993,0.003054326190990077,-0.036804630601430424,0.1589,0.21742,-0.44254000000000004,7.5,0,9111,8625,13609,33087,12.530390625,151345,24.33286112692586,1027.4556694140622,0,40.689298,-73.991745,0.2,19:25:48,False
2024-03-25T15:26:22,-3.33858573265,1.5684952143,9.531808827099999,0.03436116964863837,0.004886921905584123,-0.03451388595818787,0.16366000000000003,0.21938000000000002,-0.44394000000000006,7.5,0,9111,8625,13609,33087,12.530390625,151345,24.33286112692586,1027.4556694140622,0,40.689298,-73.991745,0.2,19:25:48,False
2024-03-25T15:26:22,-3.2560333529499994,1.5744772707999999,9.567701166099999,0.03665191429188092,0.0015271630954950385,-0.03787364476827696,0.1603,0.22386,-0.4526200000000001,7.5,0,9111,8625,13609,33087,12.530390625,151345,24.33286112692586,1027.4556694140622,0,40.689298,-73.991745,0.2,19:25:48,False
2024-03-25T15:26:22,-3.35174625695,1.5541382787,9.54197832315,0.038637226316024474,0.003207042500539581,-0.03420845333908886,0.15862,0.22750000000000004,-0.44142000000000003,7.5,0,9111,8625,13609,33087,12.530390625,151345,24.33286112692586,1027.4556694140622,0,40.68926,-73.991766,0.31,19:26:18,False
2024-03-25T15:26:22,-3.3355947043999996,1.5708880368999998,9.57069219435,0.03665191429188092,0.003054326190990077,-0.038179077387375956,0.1603,0.22750000000000004,-0.43302,7.5,0,9111,8625,13609,33087,12.7649609375,149734,24.42641924881498,1027.4342072631252,0,40.68926,-73.991766,0.31,19:26:18,False
2024-03-25T15:26:22,-3.3332018817999995,1.5517454561000001,9.534201649699998,0.03802636107782646,0.0019853120241435504,-0.03604104905368291,0.15582000000000001,0.22918000000000002,-0.44366,7.5,0,9111,8625,13609,33087,12.7649609375,149734,24.42641924881498,1027.4342072631252,0,40.689256,-73.991766,0.31,19:26:19,False
2024-03-25T15:26:22,-3.35054984565,1.5553346899999998,9.47378287905,0.03634648167278191,0.00473420559603462,-0.03924809155422249,0.15414000000000003,0.22078000000000003,-0.43918000000000007,7.5,0,9111,8625,13609,33087,12.7649609375,149734,24.42641924881498,1027.4342072631252,0,40.689256,-73.991766,0.31,19:26:19,False
2024-03-25T15:26:22,-3.3523444625999996,1.5541382787,9.50130033895,0.03802636107782646,0.0015271630954950385,-0.03588833274413341,0.15274000000000001,0.22106000000000003,-0.4466,7.5,0,9111,8625,13609,33087,12.7649609375,149734,24.42641924881498,1027.4342072631252,0,40.689256,-73.991766,0.31,19:26:19,False
2024-03-25T15:26:22,-3.35054984565,1.56311136345,9.54556755705,0.03359758810089085,0.0044287729769356115,-0.039706240482871004,0.15778,0.22190000000000004,-0.45276000000000005,7.5,0,9111,8625,13609,33087,13.1628125,154675,24.499141352494807,1027.4217952644847,0,40.689256,-73.991766,0.36,19:26:19,False
2024-03-25T15:26:22,-3.35054984565,1.5547364843499998,9.51924650845,0.03466660226773738,0.0027488935718910697,-0.03222314131494531,0.14882,0.22414,-0.43526000000000004,7.5,0,9111,8625,13609,33087,13.1628125,154675,24.499141352494807,1027.4217952644847,0,40.689256,-73.991766,0.36,19:26:19,False
2024-03-25T15:26:22,-3.3367911156999996,1.5505490447999999,9.522237536699999,0.03543018381548489,0.006108652381980154,-0.03695734691097993,0.1603,0.22526000000000002,-0.44982000000000005,7.5,0,9111,8625,13609,33087,13.1628125,154675,24.499141352494807,1027.4217952644847,0,40.689255,-73.991768,0.36,19:26:20,False
2024-03-25T15:26:22,-3.3445677891499996,1.54396878265,9.5150590689,0.03772092845872745,0.0016798794050445422,-0.03451388595818787,0.16142,0.22218000000000004,-0.44100000000000006,7.5,0,9111,8625,13609,33087,13.1628125,154675,24.499141352494807,1027.4217952644847,0,40.689255,-73.991768,0.36,19:26:20,False
2024-03-25T15:26:22,-3.3643085755999995,1.55354007305,9.5365944723,0.03481931857728687,0.0070249502392771765,-0.03604104905368291,0.16058,0.22834000000000004,-0.43260000000000004,7.5,0,9111,8625,13609,33087,13.6008984375,161948,24.553665225975116,1027.4155912124274,0,40.689255,-73.991768,0.36,19:26:20,False
2024-03-25T15:26:22,-3.34217496655,1.52961184705,9.556933464399998,0.03588833274413341,0.004886921905584123,-0.03604104905368291,0.16226000000000002,0.21910000000000002,-0.42588000000000004,7.5,0,9111,8625,13609,33087,13.6008984375,161948,24.553665225975116,1027.4155912124274,0,40.689255,-73.991768,0.94,19:26:20,False
2024-03-25T15:26:22,-3.32781803095,1.5702898312499998,9.5198447141,0.03802636107782646,0.002138028333693054,-0.03298672286269283,0.15750000000000003,0.22498,-0.43932000000000004,7.5,0,9109,8625,13608,33069,13.6008984375,161948,24.553665225975116,1027.4155912124274,0,40.689255,-73.991768,0.94,19:26:20,False
2024-03-25T15:26:22,-3.35174625695,1.5523436617499997,9.527621387549999,0.03466660226773738,0.005345070834232635,-0.03466660226773738,0.16646,0.21462000000000003,-0.43638000000000005,7.5,0,9109,8625,13608,33069,13.6008984375,161948,24.553665225975116,1027.4155912124274,0,40.689251,-73.99177,0.94,19:26:21,False
2024-03-25T15:26:22,-3.357728313449999,1.5816557385999996,9.490532637249999,0.03329215548179184,0.005192354524683131,-0.03466660226773738,0.15610000000000002,0.21994000000000002,-0.42938000000000004,7.5,0,9109,8625,13608,33069,14.022578125,167245,24.596805030508598,1027.4087489470858,0,40.689251,-73.99177,0.94,19:26:21,False
2024-03-25T15:26:22,-3.3720852490499995,1.5690934199499997,9.52881779885,0.039095375244672985,0.003054326190990077,-0.03741549583962844,0.16338000000000003,0.22358,-0.4466,7.5,0,9109,8625,13608,33069,14.022578125,167245,24.596805030508598,1027.4087489470858,0,40.689251,-73.99177,0.94,19:26:21,False
2024-03-25T15:26:22,-3.35054984565,1.5643077747499998,9.5617191096,0.03313943917224234,0.003054326190990077,-0.030390545600351267,0.15946000000000002,0.21854,-0.43960000000000005,7.5,0,9109,8625,13608,33069,14.022578125,167245,24.596805030508598,1027.4087489470858,0,40.689251,-73.99177,1.2,19:26:21,False
2024-03-25T15:26:22,-3.30388980495,1.5517454561000001,9.551549613549998,0.03756821214917795,0.0056505034533316425,-0.03543018381548489,0.16058,0.21742,-0.44338000000000005,7.5,0,9109,8625,13608,33069,14.022578125,167245,24.596805030508598,1027.4087489470858,0,40.689251,-73.99177,1.2,19:26:21,False
2024-03-25T15:26:22,-3.33619291005,1.5559328956499998,9.54197832315,0.031764992386296806,0.0038179077387375964,-0.03604104905368291,0.16086,0.22666000000000003,-0.43918000000000007,7.5,0,9109,8625,13608,33069,14.4044140625,175598,24.642779986084726,1027.4124942235212,0,40.689249,-73.991768,1.2,19:26:22,False
2024-03-25T15:26:22,-3.3499516399999996,1.5720844482,9.5509514079,0.03741549583962844,0.004886921905584123,-0.03527746750593539,0.16142,0.21546,-0.43218000000000006,7.5,0,9109,8625,13608,33069,14.4044140625,175598,24.642779986084726,1027.4124942235212,0,40.689249,-73.991768,1.2,19:26:22,False
2024-03-25T15:26:22,-3.3481570230499993,1.5589239239,9.551549613549998,0.0355829001250344,0.0033597588100890844,-0.037110063220529434,0.15946000000000002,0.21742,-0.4459,7.5,0,9109,8625,13608,33069,14.4044140625,175598,24.642779986084726,1027.4124942235212,0,40.689249,-73.991768,1.2,19:26:22,False
2024-03-25T15:26:23,-3.3457642004499997,1.56071854085,9.549156790949999,0.0355829001250344,0.005345070834232635,-0.03527746750593539,0.15806,0.21658000000000002,-0.4478600000000001,7.5,0,9109,8625,13608,33069,14.4044140625,175598,24.642779986084726,1027.4124942235212,0,40.689249,-73.991768,1.46,19:26:22,False
2024-03-25T15:26:23,-3.34217496655,1.56071854085,9.51685368585,0.038789942625573975,0.005192354524683131,-0.03695734691097993,0.16562000000000002,0.21910000000000002,-0.44534,7.5,0,9109,8625,13608,33069,14.7415234375,182828,24.670151068953608,1027.4117743114457,0,40.689249,-73.991768,1.46,19:26:22,False
2024-03-25T15:26:23,-3.3170503292499998,1.5451651939499997,9.5150590689,0.039400807863771994,0.005039638215133627,-0.03741549583962844,0.15750000000000003,0.22582000000000002,-0.42308000000000007,7.5,0,9109,8625,13608,33069,14.7415234375,182828,24.670151068953608,1027.4117743114457,0,40.689248,-73.991766,1.46,19:26:23,False
2024-03-25T15:26:23,-3.3595229304,1.5601203352,9.48933622595,0.03756821214917795,0.0038179077387375964,-0.03222314131494531,0.15666000000000002,0.22218000000000004,-0.4496800000000001,7.5,0,9109,8625,13608,33069,15.0317578125,187195,24.689252582881238,1027.413673607319,0,40.689248,-73.991766,1.46,19:26:23,False
2024-03-25T15:26:23,-3.3116664784,1.5625131578,9.514460863249997,0.0357356164345839,0.004581489286485115,-0.03512475119638588,0.15274000000000001,0.22274000000000002,-0.43610000000000004,7.5,0,9109,8625,13608,33069,15.0317578125,187195,24.689252582881238,1027.413673607319,0,40.689248,-73.991766,1.46,19:26:23,False
2024-03-25T15:26:23,-3.3559336964999993,1.5738790651499999,9.509077012399999,0.03405573702953936,0.0027488935718910697,-0.037110063220529434,0.15666000000000002,0.22806000000000004,-0.43988000000000005,7.5,0,9104,8623,13605,33062,15.0317578125,187195,24.689252582881238,1027.413673607319,0,40.689248,-73.991766,1.46,19:26:23,False
2024-03-25T15:26:23,-3.3284162366,1.5762718877499997,9.53479985535,0.03588833274413341,0.006261368691529657,-0.03481931857728687,0.15358000000000002,0.22022000000000003,-0.43932000000000004,7.5,0,9104,8623,13605,33062,15.0317578125,187195,24.689252582881238,1027.413673607319,0,40.689248,-73.991766,1.46,19:26:23,False
2024-03-25T15:26:23,-3.3457642004499997,1.5595221295499997,9.5485585853,0.03665191429188092,0.002901609881440573,-0.03787364476827696,0.15414000000000003,0.22246000000000002,-0.43568000000000007,7.5,0,9104,8623,13605,33062,15.281171875,192964,24.689884554526284,1027.42335586036,0,40.689248,-73.991766,1.46,19:26:23,False
2024-03-25T15:26:23,-3.3314072648499997,1.5780665047,9.562915520899999,0.038789942625573975,0.0068722339297276735,-0.03497203488683638,0.16310000000000002,0.22862000000000005,-0.43316000000000004,7.5,0,9104,8623,13605,33062,15.281171875,192964,24.689884554526284,1027.42335586036,0,40.689248,-73.991766,1.46,19:26:23,False
2024-03-25T15:26:23,-3.3547372851999993,1.5595221295499997,9.527621387549999,0.038484510006474966,0.007483099167925688,-0.0357356164345839,0.16226000000000002,0.22302000000000002,-0.44114000000000003,7.5,0,9104,8623,13605,33062,15.281171875,192964,24.689884554526284,1027.42335586036,0,40.689248,-73.991766,1.46,19:26:23,False
2024-03-25T15:26:23,-3.3284162366,1.5696916255999998,9.51685368585,0.03588833274413341,0.003054326190990077,-0.0357356164345839,0.15554,0.21966000000000002,-0.43442000000000003,7.5,0,9104,8623,13605,33062,15.281171875,192964,24.689884554526284,1027.42335586036,0,40.689248,-73.991766,1.46,19:26:23,False
2024-03-25T15:26:23,-3.3445677891499996,1.5690934199499997,9.527621387549999,0.03329215548179184,0.005345070834232635,-0.03527746750593539,0.14938,0.21854,-0.44086000000000003,7.5,0,9104,8623,13605,33062,15.495625,199460,24.693514458802582,1027.4298128091862,0,40.689248,-73.991766,1.79,19:26:23,False
2024-03-25T15:26:23,-3.3445677891499996,1.54875442785,9.507282395449998,0.039553524173321496,0.0024434609527920616,-0.03497203488683638,0.15694000000000002,0.22134000000000004,-0.44464000000000004,7.5,0,9104,8623,13605,33062,15.495625,199460,24.693514458802582,1027.4298128091862,0,40.689248,-73.991766,1.79,19:26:23,False
2024-03-25T15:26:23,-3.3176485348999996,1.54875442785,9.61974505765,0.03741549583962844,0.004123340357836604,-0.038484510006474966,0.15750000000000003,0.22190000000000004,-0.43918000000000007,7.5,0,9104,8623,13605,33062,15.495625,199460,24.693514458802582,1027.4298128091862,0,40.689243,-73.991768,1.79,19:26:24,False
2024-03-25T15:26:24,-3.3224341800999997,1.543370577,9.52044291975,0.038942658935123484,0.0019853120241435504,-0.039706240482871004,0.15134,0.22274000000000002,-0.4389,7.5,0,9098,8617,13597,33045,15.6794140625,203998,24.684571779082468,1027.4263611510466,0,40.689243,-73.991768,1.79,19:26:24,False
2024-03-25T15:26:24,-3.3308090591999995,1.54875442785,9.530014210149998,0.03344487179134134,0.004123340357836604,-0.036804630601430424,0.14826000000000003,0.21406000000000003,-0.43246,7.5,0,9098,8617,13597,33045,15.6794140625,203998,24.684571779082468,1027.4263611510466,0,40.689243,-73.991768,1.79,19:26:24,False
2024-03-25T15:26:24,-3.3487552287,1.3920245475499997,9.507282395449998,0.03695734691097993,0.0036651914291880926,-0.031459559767197796,0.15554,0.21910000000000002,-0.4389,7.5,0,9098,8617,13597,33045,15.6794140625,203998,24.684571779082468,1027.4263611510466,0,40.689243,-73.991768,1.44,19:26:24,False
2024-03-25T15:26:24,-3.3906296242,1.6247265453999997,9.619146851999998,0.02932153143350474,0.0054977871437821395,-0.03375030441044035,0.15666000000000002,0.21602000000000002,-0.43820000000000003,7.5,0,9098,8617,13597,33045,15.6794140625,203998,24.684571779082468,1027.4263611510466,0,40.689243,-73.991768,1.44,19:26:24,False
2024-03-25T15:26:24,-3.357728313449999,1.5744772707999999,9.55035320225,0.03756821214917795,0.005192354524683131,-0.03497203488683638,0.15862,0.22134000000000004,-0.43918000000000007,7.5,0,9098,8617,13597,33045,15.3274609375,188900,24.492503120316687,1027.447255632184,0,40.68924,-73.991766,1.44,19:26:25,False
2024-03-25T15:26:25,-3.3260234139999993,1.5493526335,9.540781911849999,0.03390302071998985,0.00595593607243065,-0.03451388595818787,0.16198,0.22246000000000002,-0.44212000000000007,7.5,1,9108,8623,13607,33076,15.206953125,198863,24.489864433454425,1027.4206267427794,0,40.68924,-73.991766,1.44,19:26:25,False
2024-03-25T15:26:25,-3.3547372851999993,1.5690934199499997,9.534201649699998,0.038484510006474966,0.00045814892864851157,-0.03756821214917795,0.16198,0.21378000000000003,-0.43820000000000003,7.5,1,9108,8623,13607,33076,15.206953125,198863,24.489864433454425,1027.4206267427794,0,40.68924,-73.991766,1.44,19:26:25,False
2024-03-25T15:26:25,-3.3457642004499997,1.5661023916999999,9.47497929035,0.03634648167278191,0.007177666548826681,-0.03405573702953936,0.15778,0.21994000000000002,-0.44156000000000006,7.5,1,9108,8623,13607,33076,15.206953125,198863,24.489864433454425,1027.4206267427794,0,40.68924,-73.991766,0.25,19:26:25,False
2024-03-25T15:26:25,-3.3523444625999996,1.5696916255999998,9.5557370531,0.03207042500539581,0.008857545953871223,-0.03268129024359383,0.16058,0.21630000000000002,-0.44744000000000006,7.5,1,9108,8623,13607,33076,15.206953125,198863,24.489864433454425,1027.4206267427794,0,40.68924,-73.991766,0.25,19:26:25,False
2024-03-25T15:26:25,-3.3254252083499996,1.5613167465000002,9.56829937175,0.0355829001250344,0.0054977871437821395,-0.0355829001250344,0.15750000000000003,0.21854,-0.43806000000000006,7.5,1,9108,8623,13607,33076,14.792109375,186353,24.26809623713216,1027.4395307178038,0,40.68924,-73.991766,0.25,19:26:26,False
2024-03-25T15:26:26,-3.3541390795499995,1.5326028753,9.526424976249999,0.03726277953007894,0.0003054326190990077,-0.03405573702953936,0.15246,0.23058,-0.44100000000000006,7.5,1,9150,8657,13673,33261,14.6837109375,196740,24.287351633895586,1027.422613792582,0,40.68924,-73.991766,0.25,19:26:26,False
2024-03-25T15:26:26,-3.3248270026999998,1.5655041860499999,9.53240703275,0.03726277953007894,0.005345070834232635,-0.03741549583962844,0.14546,0.22134000000000004,-0.44100000000000006,7.5,1,9150,8657,13673,33261,14.6837109375,196740,24.287351633895586,1027.422613792582,0,40.68924,-73.991766,0.25,19:26:26,False
2024-03-25T15:26:26,-3.34217496655,1.5529418674,9.55035320225,0.037110063220529434,0.006108652381980154,-0.03802636107782646,0.16002000000000002,0.22050000000000003,-0.44828,7.5,1,9150,8657,13673,33261,14.6837109375,196740,24.287351633895586,1027.422613792582,0,40.68924,-73.991766,0.66,19:26:26,False
2024-03-25T15:26:26,-3.2955149258499996,1.5613167465000002,9.504889572849999,0.03405573702953936,0.005192354524683131,-0.03695734691097993,0.15358000000000002,0.22302000000000002,-0.44450000000000006,7.5,1,9150,8657,13673,33261,14.6837109375,196740,24.287351633895586,1027.422613792582,0,40.68924,-73.991766,0.66,19:26:26,False
2024-03-25T15:26:26,-3.3415767608999998,1.5559328956499998,9.5066841898,0.03375030441044035,0.0018325957145940463,-0.036804630601430424,0.15498,0.22778000000000004,-0.44408000000000003,7.5,1,9150,8657,13673,33261,14.369453125,185728,24.104319556575426,1027.4303948459433,0,40.689241,-73.991766,0.66,19:26:27,False
2024-03-25T15:26:27,-3.33499649875,1.5619149521499998,9.512666246299998,0.03772092845872745,0.002138028333693054,-0.03375030441044035,0.15582000000000001,0.21574000000000002,-0.43778,7.5,0,9145,8653,13672,33245,14.3458203125,196159,24.144769984277946,1027.4096541230524,0,40.689241,-73.991766,0.66,19:26:27,False
2024-03-25T15:26:27,-3.3373893213500003,1.543370577,9.521041125399998,0.03451388595818787,0.005039638215133627,-0.038789942625573975,0.16422000000000003,0.2177,-0.45738000000000006,7.5,0,9145,8653,13672,33245,14.3458203125,196159,24.144769984277946,1027.4096541230524,0,40.689241,-73.991766,0.66,19:26:27,False
2024-03-25T15:26:27,-3.3511480512999996,1.5756736821,9.52881779885,0.03344487179134134,-0.001069014166846527,-0.036804630601430424,0.15526,0.22414,-0.43302,7.5,0,9145,8653,13672,33245,14.3458203125,196159,24.144769984277946,1027.4096541230524,0,40.689241,-73.991766,0.34,19:26:27,False
2024-03-25T15:26:27,-3.3272198252999994,1.5583257182499999,9.5162554802,0.03420845333908886,0.007635815477475193,-0.03481931857728687,0.16114,0.21966000000000002,-0.45066,7.5,0,9145,8653,13672,33245,14.3458203125,196159,24.144769984277946,1027.4096541230524,0,40.689241,-73.991766,0.34,19:26:27,False
2024-03-25T15:26:27,-3.33858573265,1.54875442785,9.4743810847,0.03222314131494531,0.0006108652381980154,-0.03634648167278191,0.15302000000000002,0.21938000000000002,-0.44982000000000005,7.5,0,9145,8653,13672,33245,14.1258984375,188257,23.99438651317654,1027.4278757344232,0,40.689245,-73.991768,0.34,19:26:28,False
2024-03-25T15:26:28,-3.3918260355,1.5589239239,9.495916488099999,0.03527746750593539,0.007483099167925688,-0.037110063220529434,0.15918000000000002,0.22218000000000004,-0.43806000000000006,7.5,1,9151,8657,13680,33267,14.1680859375,198625,24.023274491739336,1027.4012400563327,0,40.689245,-73.991768,0.34,19:26:28,False
2024-03-25T15:26:28,-3.2476584738499996,1.55114725045,9.560522698299998,0.039400807863771994,0.003970624048287101,-0.0355829001250344,0.16226000000000002,0.21574000000000002,-0.44800000000000006,7.5,1,9151,8657,13680,33267,14.1680859375,198625,24.023274491739336,1027.4012400563327,0,40.689245,-73.991768,0.34,19:26:28,False
2024-03-25T15:26:28,-3.36012113605,1.6031911419999998,9.514460863249997,0.03512475119638588,0.0022907446432425577,-0.038789942625573975,0.1617,0.22022000000000003,-0.43666000000000005,7.5,1,9151,8657,13680,33267,14.1680859375,198625,24.023274491739336,1027.4012400563327,0,40.689245,-73.991768,0.34,19:26:28,False
2024-03-25T15:26:28,-3.3553354908499995,1.55114725045,9.51565727455,0.038484510006474966,0.004276056667386108,-0.03726277953007894,0.15134,0.21966000000000002,-0.43638000000000005,7.5,1,9151,8657,13680,33267,14.1680859375,198625,24.023274491739336,1027.4012400563327,0,40.689245,-73.991768,0.34,19:26:28,False
2024-03-25T15:26:28,-3.3792637168499997,1.543370577,9.537790883599998,0.03405573702953936,0.001069014166846527,-0.03466660226773738,0.15610000000000002,0.21826,-0.43988000000000005,7.5,1,9151,8657,13680,33267,13.9758984375,190090,23.859216648619256,1027.4172359609056,0,40.689245,-73.991768,0.34,19:26:28,False
2024-03-25T15:26:28,-3.3314072648499997,1.5655041860499999,9.50130033895,0.038179077387375956,0.005039638215133627,-0.038179077387375956,0.16198,0.21798,-0.44114000000000003,7.5,1,9151,8657,13680,33267,13.9758984375,190090,23.859216648619256,1027.4172359609056,0,40.689245,-73.991768,0.34,19:26:28,False
2024-03-25T15:26:28,-3.361915753,1.5601203352,9.4743810847,0.03726277953007894,-0.0007635815477475193,-0.03481931857728687,0.15918000000000002,0.22358,-0.4466,7.5,1,9151,8657,13680,33267,13.9758984375,190090,23.859216648619256,1027.4172359609056,0,40.689245,-73.991768,0.34,19:26:28,False
2024-03-25T15:26:28,-3.357728313449999,1.54396878265,9.526424976249999,0.03207042500539581,0.0033597588100890844,-0.03451388595818787,0.15806,0.22134000000000004,-0.43512000000000006,7.5,1,9151,8657,13680,33267,13.9758984375,190090,23.859216648619256,1027.4172359609056,0,40.689245,-73.991768,0.34,19:26:28,False
2024-03-25T15:26:28,-3.3930224468,1.3896317249499999,9.43190848355,0.03359758810089085,0.0018325957145940463,-0.03344487179134134,0.15022000000000002,0.2177,-0.44366,7.5,1,9151,8657,13680,33267,14.0469921875,202999,23.910821177772235,1027.4045695232232,0,40.689245,-73.991768,0.36,19:26:28,False
2024-03-25T15:26:28,-3.385843979,1.5643077747499998,9.530612415799999,0.03512475119638588,0.0018325957145940463,-0.03543018381548489,0.1603,0.22302000000000002,-0.44464000000000004,7.5,1,9151,8657,13680,33267,14.0469921875,202999,23.910821177772235,1027.4045695232232,0,40.689245,-73.991768,0.36,19:26:28,False
2024-03-25T15:26:28,-3.3690942208,1.5667005973499997,9.509675218049999,0.03451388595818787,0.0033597588100890844,-0.03512475119638588,0.15274000000000001,0.21994000000000002,-0.44198000000000004,7.5,1,9151,8657,13680,33267,14.0469921875,202999,23.910821177772235,1027.4045695232232,0,40.689248,-73.99177,0.36,19:26:29,False
2024-03-25T15:26:29,-3.3547372851999993,1.5601203352,9.49412187115,0.031459559767197796,0.0033597588100890844,-0.03787364476827696,0.15582000000000001,0.22274000000000002,-0.42840000000000006,7.5,1,9160,8665,13696,33305,14.303828125,209802,23.94811399094563,1027.3928649058967,0,40.689248,-73.99177,0.36,19:26:29,False
2024-03-25T15:26:29,-3.3403803495999997,1.55114725045,9.5330052384,0.036193765363232405,0.0025961772623415654,-0.03390302071998985,0.16366000000000003,0.22134000000000004,-0.4467400000000001,7.5,1,9160,8665,13696,33305,14.303828125,209802,23.94811399094563,1027.3928649058967,0,40.689248,-73.99177,0.36,19:26:29,False
2024-03-25T15:26:29,-3.3367911156999996,1.5619149521499998,9.530612415799999,0.03451388595818787,0.0016798794050445422,-0.03543018381548489,0.1491,0.21966000000000002,-0.43778,7.5,1,9160,8665,13696,33305,14.303828125,209802,23.94811399094563,1027.3928649058967,0,40.689248,-73.99177,0.61,19:26:29,False
2024-03-25T15:26:29,-3.3284162366,1.5481562222,9.5042913672,0.03390302071998985,0.00473420559603462,-0.036193765363232405,0.15862,0.22078000000000003,-0.44688000000000005,7.5,1,9160,8665,13696,33305,14.303828125,209802,23.94811399094563,1027.3928649058967,0,40.689248,-73.99177,0.61,19:26:29,False
2024-03-25T15:26:29,-3.3750762772999994,1.56071854085,9.514460863249997,0.03543018381548489,0.0036651914291880926,-0.0751364242983559,0.15862,0.22022000000000003,-0.44072,7.5,1,9160,8665,13696,33305,14.232734375,199821,23.823186093188742,1027.4196327444818,0,40.689246,-73.991773,0.61,19:26:30,False
2024-03-25T15:26:30,-3.3649067812499998,1.5583257182499999,9.5282195932,0.039095375244672985,0.0,-0.0357356164345839,0.15274000000000001,0.21742,-0.43526000000000004,7.5,1,9162,8666,13695,33301,14.3446484375,211406,23.85646131326917,1027.4059180700974,0,40.689246,-73.991773,0.61,19:26:30,False
2024-03-25T15:26:30,-3.3451659947999994,1.5655041860499999,9.4911308429,0.03451388595818787,0.003054326190990077,-0.03466660226773738,0.15442000000000003,0.21826,-0.43260000000000004,7.5,1,9162,8666,13695,33301,14.3446484375,211406,23.85646131326917,1027.4059180700974,0,40.689246,-73.991773,0.61,19:26:30,False
2024-03-25T15:26:30,-3.361915753,1.5337992865999999,9.580263484749999,0.03588833274413341,0.005192354524683131,-0.03451388595818787,0.15750000000000003,0.21714000000000003,-0.44002,7.5,0,9147,8653,13672,33245,14.3446484375,211406,23.85646131326917,1027.4059180700974,0,40.689246,-73.991773,0.52,19:26:30,False
2024-03-25T15:26:30,-3.3224341800999997,1.5529418674,9.512666246299998,0.03466660226773738,0.00045814892864851157,-0.038637226316024474,0.15106,0.21518,-0.44338000000000005,7.5,0,9147,8653,13672,33245,14.3446484375,211406,23.85646131326917,1027.4059180700974,0,40.689246,-73.991773,0.52,19:26:30,False
2024-03-25T15:26:30,-3.3643085755999995,1.5720844482,9.518648302799999,0.036193765363232405,-0.0007635815477475193,-0.03588833274413341,0.15918000000000002,0.22246000000000002,-0.44282000000000005,7.5,0,9147,8653,13672,33245,14.1516796875,198269,23.687338812403308,1027.4189946529812,0,40.689249,-73.991771,0.52,19:26:31,False
2024-03-25T15:26:31,-3.3607193417,1.5571293069499996,9.51805009715,0.039706240482871004,0.0012217304763960308,-0.03451388595818787,0.16086,0.21966000000000002,-0.43652,7.5,0,9152,8659,13684,33278,14.2169140625,208353,23.728045321993413,1027.403353530136,0,40.689249,-73.991771,0.52,19:26:31,False
2024-03-25T15:26:31,-3.3481570230499993,1.5589239239,9.4935236655,0.03634648167278191,0.0025961772623415654,-0.03268129024359383,0.15862,0.21630000000000002,-0.42826000000000003,7.5,0,9152,8659,13684,33278,14.2169140625,208353,23.728045321993413,1027.403353530136,0,40.689249,-73.991771,0.52,19:26:31,False
2024-03-25T15:26:31,-3.3451659947999994,1.567298803,9.503094955899998,0.03695734691097993,0.003207042500539581,-0.03634648167278191,0.1603,0.21350000000000002,-0.44128,7.5,0,9152,8659,13684,33278,14.2169140625,208353,23.728045321993413,1027.403353530136,0,40.689249,-73.991771,0.1,19:26:31,False
2024-03-25T15:26:31,-3.36131754735,1.5415759600499999,9.53240703275,0.03359758810089085,0.0035124751196385882,-0.03390302071998985,0.16310000000000002,0.22386,-0.43148000000000003,7.5,0,9152,8659,13684,33278,14.2169140625,208353,23.728045321993413,1027.403353530136,0,40.689249,-73.991771,0.1,19:26:31,False
2024-03-25T15:26:31,-3.3535408738999997,1.5780665047,9.4923272542,0.03252857393404432,0.003054326190990077,-0.03543018381548489,0.15694000000000002,0.22218000000000004,-0.44016000000000005,7.5,0,9152,8659,13684,33278,14.0477734375,199221,23.57112742981824,1027.425155283239,0,40.689246,-73.991771,0.1,19:26:32,False
2024-03-25T15:26:32,-3.329014442249999,1.543370577,9.5007021333,0.031764992386296806,0.0036651914291880926,-0.040622538340168025,0.1547,0.21546,-0.4478600000000001,7.5,0,9142,8648,13664,33220,14.1317578125,209935,23.62861776422298,1027.4115282087298,0,40.689246,-73.991771,0.1,19:26:32,False
2024-03-25T15:26:32,-3.3128628897,1.5667005973499997,9.4791667299,0.036804630601430424,0.0022907446432425577,-0.03772092845872745,0.15666000000000002,0.2177,-0.4467400000000001,7.5,0,9142,8648,13664,33220,14.1317578125,209935,23.62861776422298,1027.4115282087298,0,40.689246,-73.991771,0.1,19:26:32,False
2024-03-25T15:26:32,-3.3607193417,1.5625131578,9.5042913672,0.0316122760767473,0.003207042500539581,-0.03772092845872745,0.1463,0.21434000000000003,-0.44506000000000007,7.5,0,9142,8648,13664,33220,14.1317578125,209935,23.62861776422298,1027.4115282087298,0,40.689246,-73.991771,0.3,19:26:32,False
2024-03-25T15:26:32,-3.3625139586499997,1.5637095691,9.503693161549998,0.03466660226773738,0.003970624048287101,-0.03481931857728687,0.15498,0.22414,-0.43624000000000007,7.5,0,9142,8648,13664,33220,14.1317578125,209935,23.62861776422298,1027.4115282087298,0,40.689246,-73.991771,0.3,19:26:32,False
2024-03-25T15:26:32,-3.357728313449999,1.5403795487499998,9.513862657599999,0.036499197982331415,0.005192354524683131,-0.036499197982331415,0.15022000000000002,0.22582000000000002,-0.44604000000000005,7.5,0,9142,8648,13664,33220,13.9909375,201888,23.494518942176477,1027.437456224022,0,40.689246,-73.991773,0.3,19:26:33,False
2024-03-25T15:26:33,-3.3463624060999995,1.56789700865,9.55035320225,0.03344487179134134,0.0016798794050445422,-0.03298672286269283,0.1603,0.22582000000000002,-0.43904000000000004,7.5,1,9131,8639,13636,33163,14.0940625,211947,23.542716477422605,1027.415991298448,0,40.689246,-73.991773,0.3,19:26:33,False
2024-03-25T15:26:33,-3.3487552287,1.5463616052499998,9.537790883599998,0.03420845333908886,-0.00015271630954950385,-0.037110063220529434,0.15610000000000002,0.23002,-0.42630000000000007,7.5,1,9131,8639,13636,33163,14.0940625,211947,23.542716477422605,1027.415991298448,0,40.689246,-73.991773,0.3,19:26:33,False
2024-03-25T15:26:33,-3.3649067812499998,1.60139652505,9.61256658985,0.03390302071998985,-0.0003054326190990077,-0.03497203488683638,0.15778,0.22498,-0.44898000000000005,7.5,1,9131,8639,13636,33163,14.0940625,211947,23.542716477422605,1027.415991298448,0,40.689246,-73.991773,0.3,19:26:33,False
2024-03-25T15:26:33,-3.3894332128999998,1.59182523465,9.5509514079,0.03329215548179184,0.004276056667386108,-0.03588833274413341,0.15750000000000003,0.22302000000000002,-0.44310000000000005,7.5,1,9131,8639,13636,33163,14.0940625,211947,23.542716477422605,1027.415991298448,0,40.689246,-73.991773,0.3,19:26:33,False
2024-03-25T15:26:33,-3.2751759337499995,1.5852449725,9.583254513,0.03588833274413341,0.006566801310628666,-0.036804630601430424,0.15750000000000003,0.22134000000000004,-0.43022000000000005,7.5,1,9131,8639,13636,33163,13.953828125,203872,23.41920539183452,1027.425376629597,0,40.689246,-73.991773,0.3,19:26:33,False
2024-03-25T15:26:33,-3.33978214395,1.5804593272999998,9.5521478192,0.03634648167278191,0.0007635815477475193,-0.03344487179134134,0.15862,0.22218000000000004,-0.43988000000000005,7.5,1,9131,8639,13636,33163,13.953828125,203872,23.41920539183452,1027.425376629597,0,40.689246,-73.991773,0.3,19:26:33,False
2024-03-25T15:26:33,-3.2195428083000004,1.56789700865,9.558728081349999,0.03329215548179184,0.0027488935718910697,-0.03375030441044035,0.1547,0.22218000000000004,-0.44170000000000004,7.5,1,9131,8639,13636,33163,13.953828125,203872,23.41920539183452,1027.425376629597,0,40.689246,-73.991773,0.3,19:26:33,False
2024-03-25T15:26:33,-3.3780673055499997,1.55354007305,9.55992449265,0.038331793696925465,0.006108652381980154,-0.03588833274413341,0.14602,0.22638000000000003,-0.44450000000000006,7.5,1,9131,8639,13636,33163,14.0602734375,213584,23.46756194047019,1027.413053904604,0,40.689246,-73.991773,0.3,19:26:33,False
2024-03-25T15:26:33,-3.3595229304,1.567298803,9.57188860565,0.03466660226773738,0.0038179077387375964,-0.03344487179134134,0.15862,0.22582000000000002,-0.43988000000000005,7.5,1,9131,8639,13636,33163,14.0602734375,213584,23.46756194047019,1027.413053904604,0,40.689246,-73.991773,0.97,19:26:33,False
2024-03-25T15:26:33,-3.337987527,1.5762718877499997,9.5066841898,0.03512475119638588,0.00473420559603462,-0.03466660226773738,0.15554,0.22358,-0.45332000000000006,7.5,1,9131,8639,13636,33163,14.0602734375,213584,23.46756194047019,1027.413053904604,0,40.689246,-73.991773,0.97,19:26:33,False
2024-03-25T15:26:33,-3.3445677891499996,1.57746829905,9.4660062056,0.036804630601430424,0.0035124751196385882,-0.03695734691097993,0.16226000000000002,0.2177,-0.43652,7.5,1,9131,8639,13636,33163,14.0602734375,213584,23.46756194047019,1027.413053904604,0,40.689245,-73.991775,0.97,19:26:34,False
2024-03-25T15:26:34,-3.3750762772999994,1.5684952143,9.530014210149998,0.039095375244672985,0.0006108652381980154,-0.041386119887915546,0.15862,0.22134000000000004,-0.4491200000000001,7.5,1,9129,8634,13633,33157,14.339765625,222313,23.516383841025963,1027.3994029471023,0,40.689245,-73.991775,0.97,19:26:34,False
2024-03-25T15:26:34,-3.3792637168499997,1.5637095691,9.53719267795,0.03481931857728687,0.0016798794050445422,-0.03298672286269283,0.15638000000000002,0.21798,-0.4513600000000001,7.5,1,9129,8634,13633,33157,14.339765625,222313,23.516383841025963,1027.3994029471023,0,40.689245,-73.991775,0.97,19:26:34,False
2024-03-25T15:26:34,-3.33978214395,1.5397813431,9.521041125399998,0.038179077387375956,0.008093964406123704,-0.038179077387375956,0.15134,0.22218000000000004,-0.44870000000000004,7.5,1,9129,8634,13633,33157,14.339765625,222313,23.516383841025963,1027.3994029471023,0,40.689245,-73.991775,0.83,19:26:34,False
2024-03-25T15:26:34,-3.3367911156999996,1.5493526335,9.52403215365,0.03665191429188092,0.00045814892864851157,-0.03405573702953936,0.15134,0.22106000000000003,-0.4473000000000001,7.5,1,9129,8634,13633,33157,14.339765625,222313,23.516383841025963,1027.3994029471023,0,40.689245,-73.991775,0.83,19:26:34,False
2024-03-25T15:26:34,-3.361915753,1.5523436617499997,9.406783846249999,0.03405573702953936,0.005345070834232635,-0.03543018381548489,0.15162,0.21742,-0.44814000000000004,7.5,1,9129,8634,13633,33157,14.2395703125,211947,23.369268990193234,1027.4224498989204,0,40.689251,-73.991775,0.83,19:26:35,False
2024-03-25T15:26:35,-3.357728313449999,1.543370577,9.52522856495,0.031764992386296806,0.007177666548826681,-0.03436116964863837,0.15974000000000002,0.22078000000000003,-0.43624000000000007,7.5,0,9127,8633,13629,33139,14.3446484375,222611,23.42798269029073,1027.4006622148916,0,40.689251,-73.991775,0.83,19:26:35,False
2024-03-25T15:26:35,-3.3176485348999996,1.5230315848999996,9.544371145749999,0.03787364476827696,-0.00015271630954950385,-0.03497203488683638,0.15666000000000002,0.22610000000000002,-0.43358,7.5,0,9127,8633,13629,33139,14.3446484375,222611,23.42798269029073,1027.4006622148916,0,40.689251,-73.991775,0.83,19:26:35,False
2024-03-25T15:26:35,-3.3355947043999996,1.5714862425499996,9.522835742349999,0.03466660226773738,0.0038179077387375964,-0.03527746750593539,0.16506,0.21910000000000002,-0.43736,7.5,0,9127,8633,13629,33139,14.3446484375,222611,23.42798269029073,1027.4006622148916,0,40.689251,-73.991775,0.85,19:26:35,False
2024-03-25T15:26:35,-3.3308090591999995,1.5643077747499998,9.46181876605,0.03420845333908886,0.0022907446432425577,-0.03787364476827696,0.15246,0.21826,-0.4473000000000001,7.5,0,9127,8633,13629,33139,14.3446484375,222611,23.42798269029073,1027.4006622148916,0,40.689251,-73.991775,0.85,19:26:35,False
2024-03-25T15:26:35,-3.3720852490499995,1.5601203352,9.5330052384,0.036804630601430424,0.0015271630954950385,-0.03726277953007894,0.15722000000000003,0.21826,-0.43932000000000004,7.5,0,9127,8633,13629,33139,14.176875,209405,23.266369833366557,1027.4213781224498,0,40.689256,-73.991771,0.85,19:26:36,False
2024-03-25T15:26:36,-3.4013973258999997,1.5649059803999998,9.562915520899999,0.03772092845872745,-0.001069014166846527,-0.036499197982331415,0.15638000000000002,0.22442,-0.43036,7.5,0,9125,8628,13619,33119,14.255,220540,23.328535915268077,1027.4100397598058,0,40.689256,-73.991771,0.85,19:26:36,False
2024-03-25T15:26:36,-3.3355947043999996,1.5655041860499999,9.6059863277,0.036804630601430424,0.006566801310628666,-0.036804630601430424,0.16086,0.22638000000000003,-0.43218000000000006,7.5,0,9125,8628,13619,33119,14.255,220540,23.328535915268077,1027.4100397598058,0,40.689256,-73.991771,0.85,19:26:36,False
2024-03-25T15:26:36,-3.3565319021499995,1.5493526335,9.49890751635,0.036499197982331415,0.0035124751196385882,-0.0357356164345839,0.16114,0.22890000000000005,-0.44576000000000005,7.5,0,9125,8628,13619,33119,14.255,220540,23.328535915268077,1027.4100397598058,0,40.689256,-73.991771,0.85,19:26:36,False
2024-03-25T15:26:36,-3.3415767608999998,1.5373885205000002,9.5449693514,0.03130684345764829,0.0054977871437821395,-0.03695734691097993,0.1603,0.21994000000000002,-0.43666000000000005,7.5,0,9125,8628,13619,33119,14.255,220540,23.328535915268077,1027.4100397598058,0,40.689256,-73.991771,0.85,19:26:36,False
2024-03-25T15:26:36,-3.3541390795499995,1.57268265385,9.607780944649999,0.03481931857728687,0.004581489286485115,-0.03359758810089085,0.15358000000000002,0.22498,-0.4443600000000001,7.5,0,9125,8628,13619,33119,14.0852734375,209670,23.1982169310467,1027.427375081338,0,40.689258,-73.99177,0.85,19:26:37,False
2024-03-25T15:26:37,-3.3786655112,1.5601203352,9.53240703275,0.039400807863771994,0.0013744467859455349,-0.03405573702953936,0.15302000000000002,0.21574000000000002,-0.43596,7.5,1,9127,8629,13620,33127,14.1700390625,221128,23.255530163938264,1027.4203108098054,0,40.689258,-73.99177,0.85,19:26:37,False
2024-03-25T15:26:37,-3.3667013982,1.5655041860499999,9.527023181899999,0.0355829001250344,0.0036651914291880926,-0.03405573702953936,0.15246,0.22358,-0.43358,7.5,1,9127,8629,13620,33127,14.1700390625,221128,23.255530163938264,1027.4203108098054,0,40.689258,-73.99177,0.85,19:26:37,False
2024-03-25T15:26:37,-3.218346397,1.54875442785,9.530014210149998,0.03130684345764829,0.006414085001079162,-0.03252857393404432,0.16058,0.22246000000000002,-0.43582000000000004,7.5,0,9136,8635,13632,33156,14.1700390625,221128,23.255530163938264,1027.4203108098054,0,40.689258,-73.99177,0.42,19:26:37,False
2024-03-25T15:26:37,-3.3762726885999994,1.5696916255999998,9.5294160045,0.039553524173321496,0.0024434609527920616,-0.039400807863771994,0.16142,0.22666000000000003,-0.43302,7.5,0,9136,8635,13632,33156,14.1700390625,221128,23.255530163938264,1027.4203108098054,0,40.689258,-73.99177,0.42,19:26:37,False
2024-03-25T15:26:37,-3.3451659947999994,1.5667005973499997,9.549156790949999,0.03527746750593539,0.005345070834232635,-0.03466660226773738,0.15386000000000002,0.23338000000000003,-0.43750000000000006,7.5,0,9136,8635,13632,33156,14.0176953125,209405,23.131611520128963,1027.4372512842126,0,40.689258,-73.991771,0.42,19:26:38,False
2024-03-25T15:26:38,-3.3655049868999996,1.5373885205000002,9.5282195932,0.037110063220529434,0.00045814892864851157,-0.03588833274413341,0.15862,0.22162000000000004,-0.43344000000000005,7.5,0,9138,8637,13632,33165,14.1145703125,220687,23.189623341767234,1027.417447819074,0,40.689258,-73.991771,0.42,19:26:38,False
2024-03-25T15:26:38,-3.3493534343499998,1.5780665047,9.5413801175,0.036193765363232405,0.0006108652381980154,-0.03466660226773738,0.16254000000000002,0.2233,-0.42266000000000004,7.5,0,9138,8637,13632,33165,14.1145703125,220687,23.189623341767234,1027.417447819074,0,40.689258,-73.991771,0.42,19:26:38,False
2024-03-25T15:26:38,-3.38404936205,1.5702898312499998,9.540781911849999,0.03543018381548489,0.0025961772623415654,-0.03756821214917795,0.15386000000000002,0.22190000000000004,-0.43274000000000007,7.5,0,9138,8637,13632,33165,14.1145703125,220687,23.189623341767234,1027.417447819074,0,40.689258,-73.991771,0.42,19:26:38,False
2024-03-25T15:26:38,-3.357728313449999,1.5667005973499997,9.523433948,0.03634648167278191,0.0022907446432425577,-0.03772092845872745,0.14938,0.22498,-0.43302,7.5,0,9138,8637,13632,33165,14.1145703125,220687,23.189623341767234,1027.417447819074,0,40.689258,-73.991771,0.42,19:26:38,False
2024-03-25T15:26:38,-3.3457642004499997,1.5529418674,9.5198447141,0.03634648167278191,0.003054326190990077,-0.036499197982331415,0.15246,0.21966000000000002,-0.43372000000000005,7.5,0,9138,8637,13632,33165,13.976484375,211003,23.056289639884493,1027.428734132891,0,40.689258,-73.991771,0.42,19:26:38,False
2024-03-25T15:26:38,-3.36969242645,1.5732808595,9.56471013785,0.03634648167278191,0.002138028333693054,-0.039095375244672985,0.15330000000000002,0.22582000000000002,-0.43344000000000005,7.5,0,9138,8637,13632,33165,13.976484375,211003,23.056289639884493,1027.428734132891,0,40.689258,-73.991771,0.42,19:26:38,False
2024-03-25T15:26:38,-3.32303238575,1.5547364843499998,9.5904329808,0.03634648167278191,0.00015271630954950385,-0.03497203488683638,0.1519,0.22302000000000002,-0.43134000000000006,7.5,0,9138,8637,13632,33165,13.976484375,211003,23.056289639884493,1027.428734132891,0,40.689258,-73.991771,0.42,19:26:38,False
2024-03-25T15:26:38,-3.3487552287,1.5816557385999996,9.500103927649999,0.03726277953007894,0.005345070834232635,-0.036193765363232405,0.1589,0.22358,-0.43806000000000006,7.5,0,9138,8637,13632,33165,13.976484375,211003,23.056289639884493,1027.428734132891,0,40.689258,-73.991771,0.42,19:26:38,False
2024-03-25T15:26:38,-3.38883500725,1.57746829905,9.4504528587,0.03741549583962844,0.004276056667386108,-0.03695734691097993,0.15442000000000003,0.21266000000000002,-0.43232000000000004,7.5,0,9138,8637,13632,33165,14.0844921875,222164,23.120133964960345,1027.4155444746636,0,40.689258,-73.991771,0.47,19:26:38,False
2024-03-25T15:26:38,-3.3427731722,1.5373885205000002,9.534201649699998,0.03772092845872745,0.003970624048287101,-0.03802636107782646,0.14686000000000002,0.2177,-0.42532000000000003,7.5,0,9138,8637,13632,33165,14.0844921875,222164,23.120133964960345,1027.4155444746636,0,40.689258,-73.991771,0.47,19:26:38,False
2024-03-25T15:26:38,-3.3373893213500003,1.5529418674,9.495318282449999,0.03268129024359383,0.0054977871437821395,-0.03237585762449482,0.15162,0.22722000000000003,-0.4424,7.5,0,9138,8637,13632,33165,14.0844921875,222164,23.120133964960345,1027.4155444746636,0,40.68926,-73.99177,0.47,19:26:39,False
2024-03-25T15:26:39,-3.3032915992999996,1.5547364843499998,9.547960379649998,0.03344487179134134,0.00473420559603462,-0.03527746750593539,0.14266000000000004,0.22610000000000002,-0.43064,7.5,0,9131,8636,13619,33139,14.3653515625,229701,23.163529164195168,1027.4059304546356,0,40.68926,-73.99177,0.47,19:26:39,False
2024-03-25T15:26:39,-3.22014101395,1.5625131578,9.481559552499998,0.038331793696925465,0.005345070834232635,-0.03588833274413341,0.15274000000000001,0.22134000000000004,-0.43764000000000003,7.5,0,9131,8636,13619,33139,14.3653515625,229701,23.163529164195168,1027.4059304546356,0,40.68926,-73.99177,0.47,19:26:39,False
2024-03-25T15:26:39,-3.36849601515,1.56311136345,9.53479985535,0.03344487179134134,0.0036651914291880926,-0.03665191429188092,0.16002000000000002,0.21574000000000002,-0.44100000000000006,7.5,0,9131,8636,13619,33139,14.3653515625,229701,23.163529164195168,1027.4059304546356,0,40.68926,-73.99177,0.6,19:26:39,False
2024-03-25T15:26:39,-3.3164521235999995,1.5397813431,9.518648302799999,0.031154127148098783,0.004276056667386108,-0.03344487179134134,0.1491,0.21490000000000004,-0.43050000000000005,7.5,0,9131,8636,13619,33139,14.3653515625,229701,23.163529164195168,1027.4059304546356,0,40.68926,-73.99177,0.6,19:26:39,False
2024-03-25T15:26:39,-3.32303238575,1.5559328956499998,9.522835742349999,0.03802636107782646,0.0044287729769356115,-0.03634648167278191,0.15330000000000002,0.22106000000000003,-0.44534,7.5,0,9131,8636,13619,33139,14.286640625,216793,23.059810945952073,1027.433835749614,0,40.689261,-73.99177,0.6,19:26:40,False
2024-03-25T15:26:40,-3.3571301077999993,1.5577275125999999,9.53121062145,0.03497203488683638,0.005039638215133627,-0.03588833274413341,0.15218,0.22246000000000002,-0.43652,7.5,1,9124,8627,13614,33106,14.3981640625,226873,23.097911956967746,1027.4106735038931,0,40.689261,-73.99177,0.6,19:26:40,False
2024-03-25T15:26:40,-3.3451659947999994,1.5732808595,9.521041125399998,0.03497203488683638,0.0027488935718910697,-0.03420845333908886,0.1547,0.22442,-0.42882000000000003,7.5,1,9124,8627,13614,33106,14.3981640625,226873,23.097911956967746,1027.4106735038931,0,40.689261,-73.99177,0.6,19:26:40,False
2024-03-25T15:26:40,-3.3906296242,1.5655041860499999,9.53240703275,0.03802636107782646,-0.0003054326190990077,-0.036804630601430424,0.15386000000000002,0.22414,-0.43722000000000005,7.5,1,9124,8627,13614,33106,14.3981640625,226873,23.097911956967746,1027.4106735038931,0,40.689261,-73.99177,0.35,19:26:40,False
2024-03-25T15:26:40,-3.3643085755999995,1.5481562222,9.5413801175,0.038637226316024474,0.0044287729769356115,-0.03787364476827696,0.15162,0.22246000000000002,-0.4438000000000001,7.5,1,9124,8627,13614,33106,14.3981640625,226873,23.097911956967746,1027.4106735038931,0,40.689261,-73.99177,0.35,19:26:40,False
2024-03-25T15:26:40,-3.3649067812499998,1.5457633995999998,9.567102960449999,0.03695734691097993,0.0009162978572970231,-0.03481931857728687,0.15134,0.22778000000000004,-0.4312,7.5,1,9124,8627,13614,33106,14.221015625,215947,22.97260347001989,1027.4383247013916,0,40.689258,-73.991768,0.35,19:26:41,False
2024-03-25T15:26:41,-3.3643085755999995,1.5343974922499999,9.60419171075,0.03481931857728687,0.038331793696925465,-0.03329215548179184,0.1463,0.21938000000000002,-0.44044000000000005,7.5,1,9120,8626,13611,33103,14.2940625,226100,23.01347799265023,1027.420125616384,0,40.689258,-73.991768,0.35,19:26:41,False
2024-03-25T15:26:41,-3.33978214395,1.5762718877499997,9.557531670049999,0.03543018381548489,0.006261368691529657,-0.03695734691097993,0.15918000000000002,0.22414,-0.43638000000000005,7.5,1,9120,8626,13611,33103,14.2940625,226100,23.01347799265023,1027.420125616384,0,40.689258,-73.991768,0.35,19:26:41,False
2024-03-25T15:26:41,-3.3499516399999996,1.5577275125999999,9.55633525875,0.03405573702953936,0.0044287729769356115,-0.03588833274413341,0.15022000000000002,0.22582000000000002,-0.44282000000000005,7.5,1,9120,8626,13611,33103,14.2940625,226100,23.01347799265023,1027.420125616384,0,40.689258,-73.991768,0.56,19:26:41,False
2024-03-25T15:26:41,-3.3266216196499996,1.5583257182499999,9.534201649699998,0.03604104905368291,0.00595593607243065,-0.03695734691097993,0.15498,0.22022000000000003,-0.4513600000000001,7.5,1,9120,8626,13611,33103,14.2940625,226100,23.01347799265023,1027.420125616384,0,40.689258,-73.991768,0.56,19:26:41,False
2024-03-25T15:26:41,-3.3332018817999995,1.56789700865,9.560522698299998,0.03451388595818787,0.006719517620178169,-0.03772092845872745,0.15666000000000002,0.2247,-0.45122,7.5,1,9120,8626,13611,33103,14.13,214689,22.904691837697882,1027.433070521763,0,40.68926,-73.991764,0.56,19:26:42,False
2024-03-25T15:26:42,-3.3744780716499996,1.56311136345,9.540781911849999,0.037110063220529434,0.003054326190990077,-0.03466660226773738,0.15806,0.21966000000000002,-0.43778,7.5,0,9119,8625,13609,33098,14.21671875,225333,22.96194863336468,1027.4240420556393,0,40.68926,-73.991764,0.56,19:26:42,False
2024-03-25T15:26:42,-3.3607193417,1.5637095691,9.56351372655,0.039095375244672985,0.0009162978572970231,-0.03512475119638588,0.15666000000000002,0.2247,-0.43694000000000005,7.5,0,9119,8625,13609,33098,14.21671875,225333,22.96194863336468,1027.4240420556393,0,40.68926,-73.991764,0.56,19:26:42,False
2024-03-25T15:26:42,-3.3481570230499993,1.567298803,9.53838908925,0.03527746750593539,0.0015271630954950385,-0.038331793696925465,0.15106,0.22246000000000002,-0.43568000000000007,7.5,0,9119,8625,13609,33098,14.21671875,225333,22.96194863336468,1027.4240420556393,0,40.68926,-73.991764,0.76,19:26:42,False
2024-03-25T15:26:42,-3.3714870433999997,1.5696916255999998,9.53360344405,0.03772092845872745,0.0027488935718910697,-0.03527746750593539,0.15302000000000002,0.22162000000000004,-0.4389,7.5,0,9119,8625,13609,33098,14.21671875,225333,22.96194863336468,1027.4240420556393,0,40.68926,-73.991764,0.76,19:26:42,False
2024-03-25T15:26:42,-3.3487552287,1.53918313745,9.558129875699999,0.0319177086958463,0.0003054326190990077,-0.03283400655314333,0.15330000000000002,0.22358,-0.43498000000000003,7.5,0,9119,8625,13609,33098,14.0587109375,214412,22.85880438267527,1027.429670528575,0,40.68926,-73.991768,0.76,19:26:43,False
2024-03-25T15:26:43,-3.3266216196499996,1.5583257182499999,9.4791667299,0.03802636107782646,0.0009162978572970231,-0.036499197982331415,0.1519,0.22106000000000003,-0.44058,7.5,1,9118,8628,13608,33100,14.1520703125,224418,22.91642914240336,1027.4144018801064,0,40.68926,-73.991768,0.76,19:26:43,False
2024-03-25T15:26:43,-3.357728313449999,1.57268265385,9.5449693514,0.0357356164345839,0.006108652381980154,-0.03451388595818787,0.15274000000000001,0.22050000000000003,-0.45220000000000005,7.5,1,9118,8628,13608,33100,14.1520703125,224418,22.91642914240336,1027.4144018801064,0,40.68926,-73.991768,0.76,19:26:43,False
2024-03-25T15:26:43,-3.3547372851999993,1.567298803,9.5246303593,0.03741549583962844,-0.0015271630954950385,-0.03512475119638588,0.16114,0.22666000000000003,-0.4443600000000001,7.5,1,9118,8628,13608,33100,14.1520703125,224418,22.91642914240336,1027.4144018801064,0,40.68926,-73.991768,0.76,19:26:43,False
2024-03-25T15:26:43,-3.3343982930999996,1.5625131578,9.53121062145,0.03512475119638588,0.0019853120241435504,-0.03313943917224234,0.15302000000000002,0.22358,-0.44352,7.5,1,9118,8628,13608,33100,14.1520703125,224418,22.91642914240336,1027.4144018801064,0,40.68926,-73.991768,0.76,19:26:43,False
2024-03-25T15:26:43,-3.36969242645,1.55114725045,9.526424976249999,0.03481931857728687,0.004886921905584123,-0.03695734691097993,0.15610000000000002,0.22022000000000003,-0.4536,7.5,1,9118,8628,13608,33100,14.0180859375,214551,22.814818971789254,1027.4344107751363,0,40.68926,-73.991768,0.76,19:26:43,False
2024-03-25T15:26:43,-3.34217496655,1.55114725045,9.549754996599999,0.03497203488683638,0.004886921905584123,-0.03756821214917795,0.15610000000000002,0.22246000000000002,-0.4537400000000001,7.5,1,9118,8628,13608,33100,14.0180859375,214551,22.814818971789254,1027.4344107751363,0,40.68926,-73.991768,0.76,19:26:43,False
2024-03-25T15:26:43,-3.3224341800999997,1.5762718877499997,9.556933464399998,0.036193765363232405,0.004581489286485115,-0.029932396671702752,0.14378,0.2247,-0.45248,7.5,1,9118,8628,13608,33100,14.0180859375,214551,22.814818971789254,1027.4344107751363,0,40.68926,-73.991768,0.76,19:26:43,False
2024-03-25T15:26:43,-3.3355947043999996,1.5798611216499998,9.5521478192,0.03375030441044035,0.0068722339297276735,-0.037110063220529434,0.15526,0.22862000000000005,-0.44800000000000006,7.5,1,9118,8628,13608,33100,14.1286328125,224875,22.873461237784255,1027.4167442136443,0,40.68926,-73.991768,0.76,19:26:43,False
2024-03-25T15:26:43,-3.3930224468,1.5577275125999999,9.530612415799999,0.038484510006474966,0.005345070834232635,-0.03344487179134134,0.14378,0.22162000000000004,-0.43792000000000003,7.5,1,9119,8625,13611,33102,14.1286328125,224875,22.873461237784255,1027.4167442136443,0,40.68926,-73.991768,0.39,19:26:43,False
2024-03-25T15:26:43,-3.3104700671,1.59661087985,9.5509514079,0.04123340357836604,-0.007941248096574201,-0.03436116964863837,0.1519,0.21630000000000002,-0.4501,7.5,1,9119,8625,13611,33102,14.1286328125,224875,22.873461237784255,1027.4167442136443,0,40.68926,-73.991768,0.39,19:26:43,False
2024-03-25T15:26:43,-3.3080772444999993,1.57268265385,9.43430130615,0.03420845333908886,0.008552113334772215,-0.03283400655314333,0.15078,0.22050000000000003,-0.44506000000000007,7.5,1,9119,8625,13611,33102,14.1286328125,224875,22.873461237784255,1027.4167442136443,0,40.689261,-73.99177,0.39,19:26:44,False
2024-03-25T15:26:44,-3.3439695835,1.5553346899999998,9.51685368585,0.036499197982331415,0.007483099167925688,-0.03787364476827696,0.15050000000000002,0.21798,-0.43904000000000004,7.5,1,9119,8625,13611,33102,14.4106640625,230819,22.92711609748564,1027.4020498829354,0,40.689261,-73.99177,0.39,19:26:44,False
2024-03-25T15:26:44,-3.3415767608999998,1.5684952143,9.552746024849998,0.03527746750593539,0.0025961772623415654,-0.0357356164345839,0.15610000000000002,0.21350000000000002,-0.4536,7.5,1,9119,8625,13611,33102,14.4106640625,230819,22.92711609748564,1027.4020498829354,0,40.689261,-73.99177,0.39,19:26:44,False
2024-03-25T15:26:44,-3.3571301077999993,1.56071854085,9.5401837062,0.036193765363232405,0.0035124751196385882,-0.03604104905368291,0.15918000000000002,0.21322000000000002,-0.45346000000000003,7.5,1,9117,8625,13617,33107,14.4106640625,230819,22.92711609748564,1027.4020498829354,0,40.689261,-73.99177,0.38,19:26:44,False
2024-03-25T15:26:44,-3.3499516399999996,1.5690934199499997,9.4887380203,0.03375030441044035,0.002901609881440573,-0.03787364476827696,0.16114,0.22750000000000004,-0.43148000000000003,7.5,1,9117,8625,13617,33107,14.4106640625,230819,22.92711609748564,1027.4020498829354,0,40.689261,-73.99177,0.38,19:26:44,False
2024-03-25T15:26:44,-3.32063956315,1.5457633995999998,9.530612415799999,0.03756821214917795,0.00045814892864851157,-0.03756821214917795,0.15498,0.22078000000000003,-0.44100000000000006,7.5,1,9117,8625,13617,33107,14.33078125,221867,22.833932067080017,1027.4227336917063,0,40.689261,-73.991771,0.38,19:26:45,False
2024-03-25T15:26:45,-3.3493534343499998,1.5475580165499996,9.5557370531,0.03512475119638588,0.0025961772623415654,-0.036804630601430424,0.16142,0.22246000000000002,-0.44100000000000006,7.5,1,9114,8623,13613,33107,14.44484375,230338,22.87727170848264,1027.4091009297676,0,40.689261,-73.991771,0.38,19:26:45,False
2024-03-25T15:26:45,-3.38644218465,1.5595221295499997,9.4492564474,0.036193765363232405,0.0044287729769356115,-0.03512475119638588,0.15218,0.21798,-0.44996,7.5,1,9114,8623,13613,33107,14.44484375,230338,22.87727170848264,1027.4091009297676,0,40.689261,-73.991771,0.38,19:26:45,False
2024-03-25T15:26:45,-3.35054984565,1.5523436617499997,9.5054877785,0.03756821214917795,0.005803219762881146,-0.03726277953007894,0.15974000000000002,0.22218000000000004,-0.43092,7.5,1,9114,8623,13613,33107,14.44484375,230338,22.87727170848264,1027.4091009297676,0,40.689261,-73.991771,1.73,19:26:45,False
2024-03-25T15:26:45,-3.35892472475,1.5601203352,9.5461657627,0.03130684345764829,0.0022907446432425577,-0.03802636107782646,0.16086,0.21994000000000002,-0.44898000000000005,7.5,1,9114,8623,13613,33107,14.44484375,230338,22.87727170848264,1027.4091009297676,0,40.689261,-73.991771,1.73,19:26:45,False
2024-03-25T15:26:45,-3.3499516399999996,1.5828521499,9.472586467749998,0.03329215548179184,0.006108652381980154,-0.03481931857728687,0.15582000000000001,0.21294000000000002,-0.43834,7.5,1,9114,8623,13613,33107,14.26828125,217219,22.757469117451,1027.4325285688615,0,40.689255,-73.991775,1.73,19:26:46,False
2024-03-25T15:26:46,-3.3607193417,1.5613167465000002,9.5688975774,0.03527746750593539,0.0012217304763960308,-0.03695734691097993,0.15666000000000002,0.22778000000000004,-0.44772,7.5,0,9117,8626,13618,33107,14.341328125,229066,22.82419687475979,1027.4073042371992,0,40.689255,-73.991775,1.73,19:26:46,False
2024-03-25T15:26:46,-3.2177481913499997,1.5816557385999996,9.5294160045,0.038179077387375956,0.003207042500539581,-0.03420845333908886,0.16002000000000002,0.21798,-0.44338000000000005,7.5,0,9117,8626,13618,33107,14.341328125,229066,22.82419687475979,1027.4073042371992,0,40.689255,-73.991775,1.73,19:26:46,False
2024-03-25T15:26:46,-3.2524441190499997,1.5553346899999998,9.52522856495,0.03222314131494531,0.00045814892864851157,-0.037110063220529434,0.14994000000000002,0.22190000000000004,-0.43988000000000005,7.5,0,9117,8626,13618,33107,14.341328125,229066,22.82419687475979,1027.4073042371992,0,40.689255,-73.991775,1.74,19:26:46,False
2024-03-25T15:26:46,-3.314059301,1.5493526335,9.556933464399998,0.040317105721069016,0.003970624048287101,-0.03695734691097993,0.1589,0.22190000000000004,-0.43526000000000004,7.5,0,9117,8626,13618,33107,14.341328125,229066,22.82419687475979,1027.4073042371992,0,40.689255,-73.991775,1.74,19:26:46,False
2024-03-25T15:26:46,-3.3822547450999996,1.5565311012999998,9.383453825899998,0.03481931857728687,0.002901609881440573,-0.036499197982331415,0.15386000000000002,0.21938000000000002,-0.43484,7.5,0,9117,8626,13618,33107,14.177265625,217362,22.73117684920845,1027.4272941131026,0,40.689251,-73.991773,1.74,19:26:47,False
2024-03-25T15:26:47,-3.357728313449999,1.5565311012999998,9.523433948,0.036193765363232405,0.0038179077387375964,-0.03252857393404432,0.15246,0.21994000000000002,-0.43470000000000003,7.5,0,9115,8622,13613,33094,14.2630078125,227965,22.79345986539458,1027.407833596558,0,40.689251,-73.991773,1.74,19:26:47,False
2024-03-25T15:26:47,-3.3930224468,1.5577275125999999,9.530612415799999,0.03344487179134134,0.0033597588100890844,-0.03222314131494531,0.15862,0.22750000000000004,-0.44954,7.5,0,9115,8622,13613,33094,14.2630078125,227965,22.79345986539458,1027.407833596558,0,40.689251,-73.991773,1.74,19:26:47,False
2024-03-25T15:26:47,-3.3314072648499997,1.5475580165499996,9.35892739425,0.036193765363232405,0.0022907446432425577,-0.03344487179134134,0.15666000000000002,0.22246000000000002,-0.44492000000000004,7.5,0,9115,8622,13613,33094,14.2630078125,227965,22.79345986539458,1027.407833596558,0,40.689251,-73.991773,0.93,19:26:47,False
2024-03-25T15:26:47,-3.3625139586499997,1.5541382787,9.500103927649999,0.03207042500539581,-0.0009162978572970231,-0.03375030441044035,0.14826000000000003,0.22386,-0.4473000000000001,7.5,0,9115,8622,13613,33094,14.2630078125,227965,22.79345986539458,1027.407833596558,0,40.689251,-73.991773,0.93,19:26:47,False
2024-03-25T15:26:47,-3.3565319021499995,1.55354007305,9.5258267706,0.037110063220529434,0.003207042500539581,-0.03451388595818787,0.15582000000000001,0.22890000000000005,-0.4467400000000001,7.5,0,9115,8622,13613,33094,14.1176953125,217362,22.701631987676812,1027.431496821493,0,40.689249,-73.991775,0.93,19:26:48,False
2024-03-25T15:26:48,-3.31944315185,1.5619149521499998,9.539585500549999,0.038789942625573975,0.0007635815477475193,-0.036499197982331415,0.15022000000000002,0.22890000000000005,-0.43820000000000003,7.5,0,9113,8621,13611,33094,14.2184765625,227652,22.769990248499457,1027.4182606225318,0,40.689249,-73.991775,0.93,19:26:48,False
2024-03-25T15:26:48,-3.3702906320999997,1.5337992865999999,9.468997233849999,0.030237829290801762,0.0038179077387375964,-0.0355829001250344,0.16058,0.22134000000000004,-0.45402000000000003,7.5,0,9113,8621,13611,33094,14.2184765625,227652,22.769990248499457,1027.4182606225318,0,40.689249,-73.991775,0.93,19:26:48,False
2024-03-25T15:26:48,-3.3451659947999994,1.58464676685,9.518648302799999,0.036804630601430424,0.0027488935718910697,-0.036193765363232405,0.16142,0.2233,-0.43218000000000006,7.5,0,9113,8621,13611,33094,14.2184765625,227652,22.769990248499457,1027.4182606225318,0,40.689249,-73.991775,0.93,19:26:48,False
2024-03-25T15:26:48,-3.3732816603499995,1.5619149521499998,9.598209654249999,0.036193765363232405,0.007177666548826681,-0.03512475119638588,0.16002000000000002,0.22162000000000004,-0.43862000000000007,7.5,0,9113,8621,13611,33094,14.2184765625,227652,22.769990248499457,1027.4182606225318,0,40.689249,-73.991775,0.93,19:26:48,False
2024-03-25T15:26:48,-3.3493534343499998,1.5756736821,9.59462042035,0.03588833274413341,0.005803219762881146,-0.03298672286269283,0.15414000000000003,0.22106000000000003,-0.43708,7.5,0,9113,8621,13611,33094,14.08703125,216511,22.704950483990917,1027.4426109073388,0,40.689249,-73.991775,0.93,19:26:48,False
2024-03-25T15:26:48,-3.3182467405500002,1.58703958945,9.531808827099999,0.03588833274413341,0.007941248096574201,-0.03466660226773738,0.16058,0.21434000000000003,-0.43904000000000004,7.5,0,9113,8621,13611,33094,14.08703125,216511,22.704950483990917,1027.4426109073388,0,40.689249,-73.991775,0.93,19:26:48,False
2024-03-25T15:26:48,-3.3511480512999996,1.5864413838,9.507282395449998,0.03695734691097993,0.006261368691529657,-0.03726277953007894,0.16086,0.21714000000000003,-0.44632000000000005,7.5,0,9113,8621,13611,33094,14.08703125,216511,22.704950483990917,1027.4426109073388,0,40.689249,-73.991775,0.93,19:26:48,False
2024-03-25T15:26:48,-3.3655049868999996,1.6091731985,9.646066106249998,0.028863382504856226,0.004581489286485115,-0.03420845333908886,0.14686000000000002,0.21798,-0.4466,7.5,0,9106,8617,13610,33071,14.08703125,216511,22.704950483990917,1027.4426109073388,0,40.689249,-73.991775,0.93,19:26:48,False
2024-03-25T15:26:48,-3.3188449462,1.51884414535,9.4145605197,0.03588833274413341,0.004276056667386108,-0.03359758810089085,0.15498,0.22442,-0.43456000000000006,7.5,0,9106,8617,13610,33071,14.19796875,226100,22.763552410798436,1027.420316503642,0,40.689249,-73.991775,1.38,19:26:48,False
2024-03-25T15:26:48,-3.3547372851999993,1.5804593272999998,9.522835742349999,0.03924809155422249,0.008399397025222712,-0.039095375244672985,0.15638000000000002,0.22610000000000002,-0.4513600000000001,7.5,0,9106,8617,13610,33071,14.19796875,226100,22.763552410798436,1027.420316503642,0,40.689249,-73.991775,1.38,19:26:48,False
2024-03-25T15:26:48,-3.2877382523999996,1.5649059803999998,9.551549613549998,0.038484510006474966,0.0016798794050445422,-0.03604104905368291,0.15498,0.22050000000000003,-0.4403000000000001,7.5,0,9106,8617,13610,33071,14.19796875,226100,22.763552410798436,1027.420316503642,0,40.689253,-73.991773,1.38,19:26:49,False
2024-03-25T15:26:49,-3.376870894249999,1.5589239239,9.556933464399998,0.03604104905368291,0.004123340357836604,-0.03772092845872745,0.16226000000000002,0.22386,-0.4531800000000001,7.5,0,9111,8620,13614,33101,14.48,234738,22.83269402924607,1027.4090390707681,0,40.689253,-73.991773,1.38,19:26:49,False
2024-03-25T15:26:49,-3.3415767608999998,1.5547364843499998,9.530612415799999,0.038331793696925465,0.003207042500539581,-0.03405573702953936,0.15694000000000002,0.22722000000000003,-0.4389,7.5,0,9111,8620,13614,33101,14.48,234738,22.83269402924607,1027.4090390707681,0,40.689253,-73.991773,1.38,19:26:49,False
2024-03-25T15:26:49,-3.337987527,1.5720844482,9.535996266649999,0.03756821214917795,0.006414085001079162,-0.0357356164345839,0.15078,0.21518,-0.44184,7.5,0,9111,8620,13614,33101,14.48,234738,22.83269402924607,1027.4090390707681,0,40.689253,-73.991773,2.79,19:26:49,False
2024-03-25T15:26:49,-3.36849601515,1.5720844482,9.544371145749999,0.03588833274413341,0.004276056667386108,-0.0355829001250344,0.16310000000000002,0.22274000000000002,-0.44562000000000007,7.5,0,9111,8620,13614,33101,14.48,234738,22.83269402924607,1027.4090390707681,0,40.689253,-73.991773,2.79,19:26:49,False
2024-03-25T15:26:49,-3.3427731722,1.59182523465,9.5509514079,0.036804630601430424,0.0035124751196385882,-0.03420845333908886,0.15834,0.22218000000000004,-0.43988000000000005,7.5,0,9111,8620,13614,33101,14.405390625,221571,22.73471670972853,1027.4246602466549,0,40.689261,-73.991771,2.79,19:26:50,False
2024-03-25T15:26:50,-3.3750762772999994,1.5828521499,9.53360344405,0.038331793696925465,0.0027488935718910697,-0.041080687268816536,0.15946000000000002,0.2247,-0.4459,7.5,1,9113,8621,13617,33117,14.5190625,231625,22.793557533403906,1027.4068219731932,0,40.689261,-73.991771,2.79,19:26:50,False
2024-03-25T15:26:50,-3.33858573265,1.5864413838,9.503693161549998,0.036499197982331415,0.005803219762881146,-0.03298672286269283,0.15386000000000002,0.2233,-0.43386,7.5,1,9113,8621,13617,33117,14.5190625,231625,22.793557533403906,1027.4068219731932,0,40.689261,-73.991771,2.79,19:26:50,False
2024-03-25T15:26:50,-3.38763859595,1.5589239239,9.5425765288,0.03329215548179184,0.007177666548826681,-0.03405573702953936,0.16058,0.22050000000000003,-0.4496800000000001,7.5,1,9113,8621,13617,33117,14.5190625,231625,22.793557533403906,1027.4068219731932,0,40.689261,-73.991771,3.34,19:26:50,False
2024-03-25T15:26:50,-3.33619291005,1.68394890475,9.468399028199999,0.04092797095926703,0.0012217304763960308,-0.0357356164345839,0.15918000000000002,0.22134000000000004,-0.44114000000000003,7.5,1,9113,8621,13617,33117,14.5190625,231625,22.793557533403906,1027.4068219731932,0,40.689261,-73.991771,3.34,19:26:50,False
2024-03-25T15:26:50,-3.3535408738999997,1.5714862425499996,9.521041125399998,0.03466660226773738,0.003054326190990077,-0.03543018381548489,0.16114,0.22218000000000004,-0.43358,7.5,1,9113,8621,13617,33117,14.34015625,220393,22.694436614233318,1027.4263434132722,0,40.689265,-73.991773,3.34,19:26:51,False
2024-03-25T15:26:51,-3.3499516399999996,1.5864413838,9.521041125399998,0.03695734691097993,0.003970624048287101,-0.03527746750593539,0.15246,0.22078000000000003,-0.44226000000000004,7.5,0,9117,8625,13624,33132,14.4106640625,229860,22.750601176918664,1027.4038020141377,0,40.689265,-73.991773,3.34,19:26:51,False
2024-03-25T15:26:51,-3.3092736557999998,1.5445669883,9.558129875699999,0.037110063220529434,0.003970624048287101,-0.036499197982331415,0.15750000000000003,0.22134000000000004,-0.4501,7.5,0,9117,8625,13624,33132,14.4106640625,229860,22.750601176918664,1027.4038020141377,0,40.689265,-73.991773,3.34,19:26:51,False
2024-03-25T15:26:51,-3.3786655112,1.5601203352,9.5461657627,0.04001167310197001,0.00473420559603462,-0.031764992386296806,0.15218,0.2177,-0.44478,7.5,0,9113,8622,13617,33122,14.4106640625,229860,22.750601176918664,1027.4038020141377,0,40.689265,-73.991773,2.63,19:26:51,False
2024-03-25T15:26:51,-3.3457642004499997,1.5762718877499997,9.53121062145,0.03481931857728687,0.0036651914291880926,-0.0357356164345839,0.15778,0.21938000000000002,-0.43498000000000003,7.5,0,9113,8622,13617,33122,14.4106640625,229860,22.750601176918664,1027.4038020141377,0,40.689265,-73.991773,2.63,19:26:51,False
2024-03-25T15:26:51,-3.2434710343,1.5547364843499998,9.598807859899999,0.03787364476827696,0.0035124751196385882,-0.03481931857728687,0.15638000000000002,0.22106000000000003,-0.44072,7.5,0,9113,8622,13617,33122,14.237421875,218219,22.662266743270305,1027.424066896893,0,40.689275,-73.991771,2.63,19:26:52,False
2024-03-25T15:26:52,-3.3571301077999993,1.5786647103499998,9.5509514079,0.03436116964863837,0.0036651914291880926,-0.03420845333908886,0.16142,0.22050000000000003,-0.43316000000000004,7.5,1,9113,8620,13617,33128,14.318671875,228121,22.729424833461646,1027.4109901853733,0,40.689275,-73.991771,2.63,19:26:52,False
2024-03-25T15:26:52,-3.51445819375,1.5619149521499998,9.54556755705,0.0357356164345839,0.004276056667386108,-0.03604104905368291,0.16702,0.22302000000000002,-0.43708,7.5,1,9113,8620,13617,33128,14.318671875,228121,22.729424833461646,1027.4109901853733,0,40.689275,-73.991771,2.63,19:26:52,False
2024-03-25T15:26:52,-3.3690942208,1.5637095691,9.5389872949,0.031154127148098783,0.008246680715673207,-0.03298672286269283,0.14994000000000002,0.22638000000000003,-0.45276000000000005,7.5,1,9113,8620,13617,33128,14.318671875,228121,22.729424833461646,1027.4109901853733,0,40.689275,-73.991771,0.05,19:26:52,False
2024-03-25T15:26:52,-3.36969242645,1.5475580165499996,9.5389872949,0.03512475119638588,0.0003054326190990077,-0.03543018381548489,0.15946000000000002,0.23002,-0.4438000000000001,7.5,1,9113,8620,13617,33128,14.318671875,228121,22.729424833461646,1027.4109901853733,0,40.689275,-73.991771,0.05,19:26:52,False
2024-03-25T15:26:52,-3.3068808331999993,1.5822539442499999,9.57547783955,0.03802636107782646,0.0044287729769356115,-0.03405573702953936,0.15694000000000002,0.22526000000000002,-0.43652,7.5,1,9113,8620,13617,33128,14.175703125,218076,22.653334851385754,1027.4299025933522,0,40.68927,-73.991773,0.05,19:26:53,False
2024-03-25T15:26:53,-3.3631121643,1.5649059803999998,9.5617191096,0.03466660226773738,0.0022907446432425577,-0.03451388595818787,0.15610000000000002,0.21294000000000002,-0.43624000000000007,7.5,0,9106,8617,13611,33109,14.274921875,227340,22.71638654670294,1027.4087377619774,0,40.68927,-73.991773,0.05,19:26:53,False
2024-03-25T15:26:53,-3.3511480512999996,1.5469598108999998,9.531808827099999,0.0007635815477475193,0.004123340357836604,-0.03420845333908886,0.15386000000000002,0.21658000000000002,-0.44254000000000004,7.5,0,9106,8617,13611,33109,14.274921875,227340,22.71638654670294,1027.4087377619774,0,40.68927,-73.991773,0.05,19:26:53,False
2024-03-25T15:26:53,-3.3637103699499997,1.56071854085,9.558129875699999,0.03726277953007894,0.005803219762881146,-0.038179077387375956,0.15862,0.21882000000000001,-0.4508000000000001,7.5,0,9106,8617,13611,33109,14.274921875,227340,22.71638654670294,1027.4087377619774,0,40.68927,-73.991773,0.05,19:26:53,False
2024-03-25T15:26:53,-3.3493534343499998,1.5403795487499998,9.50130033895,0.0355829001250344,0.0038179077387375964,-0.03604104905368291,0.15666000000000002,0.21630000000000002,-0.44170000000000004,7.5,0,9106,8617,13611,33109,14.274921875,227340,22.71638654670294,1027.4087377619774,0,40.68927,-73.991773,0.05,19:26:53,False
2024-03-25T15:26:53,-3.3296126479,1.5409777543999998,9.544371145749999,0.03466660226773738,0.0003054326190990077,-0.03375030441044035,0.14994000000000002,0.21882000000000001,-0.43820000000000003,7.5,0,9106,8617,13611,33109,14.133125,216369,22.650749747573556,1027.4278545631696,0,40.68927,-73.991773,0.05,19:26:53,False
2024-03-25T15:26:53,-3.3475588174,1.57746829905,9.50608598415,0.031459559767197796,0.0022907446432425577,-0.03359758810089085,0.15554,0.21742,-0.43750000000000006,7.5,0,9104,8615,13608,33095,14.133125,216369,22.650749747573556,1027.4278545631696,0,40.68927,-73.991773,0.05,19:26:53,False
2024-03-25T15:26:53,-3.33858573265,1.5655041860499999,9.512666246299998,0.03741549583962844,0.0036651914291880926,-0.0355829001250344,0.16310000000000002,0.21938000000000002,-0.43512000000000006,7.5,0,9104,8615,13608,33095,14.133125,216369,22.650749747573556,1027.4278545631696,0,40.68927,-73.991773,0.05,19:26:53,False
2024-03-25T15:26:53,-3.3541390795499995,1.56071854085,9.5066841898,0.03543018381548489,0.0027488935718910697,-0.03604104905368291,0.15834,0.21490000000000004,-0.43722000000000005,7.5,0,9104,8615,13608,33095,14.133125,216369,22.650749747573556,1027.4278545631696,0,40.68927,-73.991773,0.05,19:26:53,False
2024-03-25T15:26:53,-3.3224341800999997,1.567298803,9.52044291975,0.03802636107782646,0.0019853120241435504,-0.039553524173321496,0.1589,0.21266000000000002,-0.44072,7.5,0,9104,8615,13608,33095,14.2364453125,226718,22.719227262691533,1027.41715828476,0,40.68927,-73.991773,0.07,19:26:53,False
2024-03-25T15:26:53,-3.3403803495999997,1.5451651939499997,9.539585500549999,0.03695734691097993,0.0027488935718910697,-0.03543018381548489,0.15554,0.21826,-0.42910000000000004,7.5,0,9104,8615,13608,33095,14.2364453125,226718,22.719227262691533,1027.41715828476,0,40.68927,-73.991773,0.07,19:26:53,False
2024-03-25T15:26:53,-3.3607193417,1.56311136345,9.490532637249999,0.03604104905368291,0.002901609881440573,-0.037110063220529434,0.15974000000000002,0.22582000000000002,-0.45220000000000005,7.5,0,9104,8615,13608,33095,14.2364453125,226718,22.719227262691533,1027.41715828476,0,40.68926,-73.991773,0.07,19:26:54,False
2024-03-25T15:26:54,-3.34097855525,1.5409777543999998,9.489934431599998,0.039858956792420505,0.003970624048287101,-0.03665191429188092,0.15834,0.22050000000000003,-0.4432400000000001,7.5,0,9102,8612,13599,33069,14.5133984375,235404,22.762070851066294,1027.4077484750396,0,40.68926,-73.991773,0.07,19:26:54,False
2024-03-25T15:26:54,-3.31106827275,1.5583257182499999,9.537790883599998,0.03375030441044035,0.008093964406123704,-0.03772092845872745,0.15498,0.21910000000000002,-0.43022000000000005,7.5,0,9102,8612,13599,33069,14.5133984375,235404,22.762070851066294,1027.4077484750396,0,40.68926,-73.991773,0.07,19:26:54,False
2024-03-25T15:26:54,-3.3487552287,1.5732808595,9.5545406418,0.03344487179134134,0.0056505034533316425,-0.03207042500539581,0.15358000000000002,0.21686000000000002,-0.44506000000000007,7.5,0,9102,8612,13599,33069,14.5133984375,235404,22.762070851066294,1027.4077484750396,0,40.68926,-73.991773,0.08,19:26:54,False
2024-03-25T15:26:54,-3.3661031925500002,1.5547364843499998,9.53479985535,0.030085112981252257,0.0018325957145940463,-0.03344487179134134,0.15274000000000001,0.21854,-0.4354,7.5,0,9102,8612,13599,33069,14.5133984375,235404,22.762070851066294,1027.4077484750396,0,40.68926,-73.991773,0.08,19:26:54,False
2024-03-25T15:26:54,-3.3595229304,1.5732808595,9.47737211295,0.037110063220529434,0.0024434609527920616,-0.036193765363232405,0.16282000000000002,0.22134000000000004,-0.44044000000000005,7.5,0,9102,8612,13599,33069,14.4274609375,223662,22.684201918174253,1027.430486565222,0,40.689256,-73.991776,0.08,19:26:55,False
2024-03-25T15:26:55,-3.3254252083499996,1.5619149521499998,9.6215396746,0.03466660226773738,0.0035124751196385882,-0.03512475119638588,0.15078,0.22358,-0.4438000000000001,7.5,1,9104,8612,13598,33062,14.535859375,231787,22.73231195736198,1027.4124732532,0,40.689256,-73.991776,0.08,19:26:55,False
2024-03-25T15:26:55,-3.3487552287,1.5571293069499996,9.560522698299998,0.0355829001250344,0.003207042500539581,-0.031459559767197796,0.1519,0.22806000000000004,-0.43176000000000003,7.5,1,9104,8612,13598,33062,14.535859375,231787,22.73231195736198,1027.4124732532,0,40.689256,-73.991776,0.08,19:26:55,False
2024-03-25T15:26:55,-3.34696061175,1.5595221295499997,9.551549613549998,0.0355829001250344,0.0009162978572970231,-0.031459559767197796,0.15666000000000002,0.22050000000000003,-0.43876000000000004,7.5,1,9104,8612,13598,33062,14.535859375,231787,22.73231195736198,1027.4124732532,0,40.689256,-73.991776,0.1,19:26:55,False
2024-03-25T15:26:55,-3.3326036761499997,1.5798611216499998,9.5485585853,0.03543018381548489,0.004276056667386108,-0.03634648167278191,0.16114,0.21126000000000003,-0.4424,7.5,1,9104,8612,13598,33062,14.535859375,231787,22.73231195736198,1027.4124732532,0,40.689256,-73.991776,0.1,19:26:55,False
2024-03-25T15:26:55,-3.36729960385,1.5499508391499999,9.551549613549998,0.03313943917224234,0.004581489286485115,-0.03375030441044035,0.15918000000000002,0.22134000000000004,-0.44352,7.5,1,9104,8612,13598,33062,14.3534375,221128,22.63822522348454,1027.4278067389646,0,40.689263,-73.991776,0.1,19:26:56,False
2024-03-25T15:26:56,-3.3541390795499995,1.5517454561000001,9.534201649699998,0.03420845333908886,-0.03466660226773738,-0.038331793696925465,0.15246,0.22246000000000002,-0.43316000000000004,7.5,1,9098,8605,13587,33035,14.4223828125,232762,22.704634484454132,1027.4096242568544,0,40.689263,-73.991776,0.1,19:26:56,False
2024-03-25T15:26:56,-3.3320054704999995,1.5643077747499998,9.49651469375,0.03405573702953936,0.0018325957145940463,-0.038331793696925465,0.15694000000000002,0.22778000000000004,-0.4312,7.5,1,9098,8605,13587,33035,14.4223828125,232762,22.704634484454132,1027.4096242568544,0,40.689263,-73.991776,0.1,19:26:56,False
2024-03-25T15:26:56,-3.3439695835,1.5559328956499998,9.52044291975,0.03787364476827696,0.0070249502392771765,-0.03665191429188092,0.16226000000000002,0.21994000000000002,-0.44534,7.5,1,9098,8605,13587,33035,14.4223828125,232762,22.704634484454132,1027.4096242568544,0,40.689263,-73.991776,0.1,19:26:56,False
2024-03-25T15:26:56,-3.3457642004499997,1.57746829905,9.558129875699999,0.039095375244672985,0.0016798794050445422,-0.03634648167278191,0.1547,0.22162000000000004,-0.45248,7.5,1,9098,8605,13587,33035,14.4223828125,232762,22.704634484454132,1027.4096242568544,0,40.689263,-73.991776,0.1,19:26:56,False
2024-03-25T15:26:56,-3.3493534343499998,1.5529418674,9.549754996599999,0.036804630601430424,0.0056505034533316425,-0.036804630601430424,0.15414000000000003,0.21938000000000002,-0.43260000000000004,7.5,1,9098,8605,13587,33035,14.2606640625,218076,22.627406404959803,1027.4231340056444,0,40.689263,-73.991776,0.1,19:26:57,False
2024-03-25T15:26:57,-3.35054984565,1.5619149521499998,9.526424976249999,0.0357356164345839,0.0018325957145940463,-0.03543018381548489,0.15274000000000001,0.22386,-0.44408000000000003,7.5,1,9099,8606,13582,33025,14.346796875,228908,22.684471973519337,1027.4095555835122,0,40.689263,-73.991776,0.1,19:26:57,False
2024-03-25T15:26:57,-3.36131754735,1.5373885205000002,9.486345197699999,0.03405573702953936,0.008704829644321718,-0.036499197982331415,0.15302000000000002,0.22554000000000002,-0.43932000000000004,7.5,1,9099,8606,13582,33025,14.346796875,228908,22.684471973519337,1027.4095555835122,0,40.689263,-73.991776,0.1,19:26:57,False
2024-03-25T15:26:57,-3.3463624060999995,1.5523436617499997,9.54197832315,0.03604104905368291,0.005039638215133627,-0.036499197982331415,0.1547,0.21938000000000002,-0.4354,7.5,1,9099,8606,13582,33025,14.346796875,228908,22.684471973519337,1027.4095555835122,0,40.689263,-73.991776,0.19,19:26:57,False
2024-03-25T15:26:57,-3.3248270026999998,1.5505490447999999,9.4504528587,0.03665191429188092,-0.00015271630954950385,-0.036499197982331415,0.16310000000000002,0.23086,-0.4526200000000001,7.5,1,9099,8606,13582,33025,14.346796875,228908,22.684471973519337,1027.4095555835122,0,40.689263,-73.991776,0.19,19:26:57,False
2024-03-25T15:26:57,-3.3487552287,1.55114725045,9.544371145749999,0.039706240482871004,0.004886921905584123,-0.038331793696925465,0.15498,0.22498,-0.44072,7.5,1,9099,8606,13582,33025,14.1891796875,216369,22.612707582994872,1027.429954629609,0,40.689266,-73.991778,0.19,19:26:58,False
2024-03-25T15:26:58,-3.36131754735,1.5254244074999999,9.580263484749999,0.03436116964863837,0.003054326190990077,-0.03375030441044035,0.15498,0.22302000000000002,-0.43582000000000004,7.5,1,9099,8607,13574,33019,14.2821484375,228121,22.680536148259282,1027.4174704532684,0,40.689266,-73.991778,0.19,19:26:58,False
2024-03-25T15:26:58,-3.3457642004499997,1.5714862425499996,9.503693161549998,0.03741549583962844,0.006414085001079162,-0.03436116964863837,0.15218,0.21742,-0.43638000000000005,7.5,1,9099,8607,13574,33019,14.2821484375,228121,22.680536148259282,1027.4174704532684,0,40.689266,-73.991778,0.19,19:26:58,False
2024-03-25T15:26:58,-3.3332018817999995,1.5649059803999998,9.50249675025,0.03726277953007894,0.0024434609527920616,-0.03390302071998985,0.15302000000000002,0.22666000000000003,-0.4443600000000001,7.5,1,9099,8607,13574,33019,14.2821484375,228121,22.680536148259282,1027.4174704532684,0,40.689266,-73.991778,0.19,19:26:58,False
2024-03-25T15:26:58,-3.3433713778499996,1.5337992865999999,9.549754996599999,0.0357356164345839,0.0044287729769356115,-0.03466660226773738,0.15834,0.22834000000000004,-0.42630000000000007,7.5,0,9095,8601,13568,33006,14.2821484375,228121,22.680536148259282,1027.4174704532684,0,40.689266,-73.991778,0.19,19:26:58,False
2024-03-25T15:26:58,-3.3846475676999996,1.5577275125999999,9.549156790949999,0.03466660226773738,-0.0024434609527920616,-0.03130684345764829,0.15274000000000001,0.21882000000000001,-0.42112000000000005,7.5,0,9095,8601,13568,33006,14.1497265625,214828,22.615495017707307,1027.440207009524,0,40.689266,-73.991778,0.19,19:26:58,False
2024-03-25T15:26:58,-3.34097855525,1.5684952143,9.567102960449999,0.03787364476827696,0.004123340357836604,-0.03802636107782646,0.15610000000000002,0.21994000000000002,-0.42784000000000005,7.5,0,9095,8601,13568,33006,14.1497265625,214828,22.615495017707307,1027.440207009524,0,40.689266,-73.991778,0.19,19:26:58,False
2024-03-25T15:26:58,-3.3236305913999997,1.5583257182499999,9.517451891499999,0.04123340357836604,0.003207042500539581,-0.036193765363232405,0.14602,0.22414,-0.43288000000000004,7.5,0,9095,8601,13568,33006,14.1497265625,214828,22.615495017707307,1027.440207009524,0,40.689266,-73.991778,0.19,19:26:58,False
2024-03-25T15:26:58,-3.3314072648499997,1.5523436617499997,9.5162554802,0.03436116964863837,0.005039638215133627,-0.037110063220529434,0.15218,0.21518,-0.43162000000000006,7.5,0,9095,8601,13568,33006,14.1497265625,214828,22.615495017707307,1027.440207009524,0,40.689266,-73.991778,0.19,19:26:58,False
2024-03-25T15:26:58,-3.3487552287,1.5397813431,9.570093988699998,0.03772092845872745,0.0068722339297276735,-0.03634648167278191,0.15722000000000003,0.21406000000000003,-0.43078000000000005,7.5,0,9095,8601,13568,33006,14.2579296875,226409,22.668696288639087,1027.4202556637097,0,40.689266,-73.991778,0.19,19:26:58,False
2024-03-25T15:26:58,-3.3643085755999995,1.5469598108999998,9.535996266649999,0.036804630601430424,0.0022907446432425577,-0.03268129024359383,0.14994000000000002,0.21686000000000002,-0.4459,7.5,0,9095,8601,13568,33006,14.2579296875,226409,22.668696288639087,1027.4202556637097,0,40.689266,-73.991778,0.19,19:26:58,False
2024-03-25T15:26:58,-3.3391839383,1.5828521499,9.55992449265,0.03375030441044035,0.00595593607243065,-0.03344487179134134,0.15806,0.21742,-0.43778,7.5,0,9095,8601,13568,33006,14.2579296875,226409,22.668696288639087,1027.4202556637097,0,40.689271,-73.991778,0.19,19:26:59,False
2024-03-25T15:26:59,-3.3427731722,1.5559328956499998,9.54197832315,0.03787364476827696,0.003207042500539581,-0.03604104905368291,0.1519,0.21938000000000002,-0.45500000000000007,7.5,1,9089,8598,13563,32985,14.537421875,234904,22.737595818827895,1027.4168706547684,0,40.689271,-73.991778,0.19,19:26:59,False
2024-03-25T15:26:59,-3.36012113605,1.5619149521499998,9.507282395449998,0.03588833274413341,0.0007635815477475193,-0.03344487179134134,0.14994000000000002,0.22078000000000003,-0.43736,7.5,1,9089,8598,13563,32985,14.537421875,234904,22.737595818827895,1027.4168706547684,0,40.689271,-73.991778,0.19,19:26:59,False
2024-03-25T15:26:59,-3.3248270026999998,1.5696916255999998,9.522835742349999,0.038331793696925465,0.0036651914291880926,-0.038331793696925465,0.15610000000000002,0.21966000000000002,-0.4443600000000001,7.5,1,9089,8598,13563,32985,14.537421875,234904,22.737595818827895,1027.4168706547684,0,40.689271,-73.991778,0.11,19:26:59,False
2024-03-25T15:26:59,-3.3702906320999997,1.56311136345,9.537790883599998,0.03772092845872745,0.005803219762881146,-0.03329215548179184,0.16226000000000002,0.22162000000000004,-0.43848000000000004,7.5,1,9089,8598,13563,32985,14.537421875,234904,22.737595818827895,1027.4168706547684,0,40.689271,-73.991778,0.11,19:26:59,False
2024-03-25T15:26:59,-3.3481570230499993,1.57746829905,9.53360344405,0.03726277953007894,0.0016798794050445422,-0.03436116964863837,0.15246,0.22442,-0.44170000000000004,7.5,1,9089,8598,13563,32985,14.452265625,222164,22.649421465500737,1027.4426925089385,0,40.689276,-73.991776,0.11,19:27:0,False
2024-03-25T15:27:00,-3.32303238575,1.5565311012999998,9.495916488099999,0.036804630601430424,0.0006108652381980154,-0.036499197982331415,0.15582000000000001,0.22162000000000004,-0.44562000000000007,7.5,0,9088,8598,13561,32989,14.5594921875,233253,22.70781706280959,1027.4209322882248,0,40.689276,-73.991776,0.11,19:27:0,False
2024-03-25T15:27:00,-3.3481570230499993,1.5714862425499996,9.53121062145,0.04214970143566306,0.0027488935718910697,-0.036804630601430424,0.15442000000000003,0.22246000000000002,-0.44310000000000005,7.5,0,9088,8598,13561,32989,14.5594921875,233253,22.70781706280959,1027.4209322882248,0,40.689276,-73.991776,0.11,19:27:0,False
2024-03-25T15:27:00,-3.3367911156999996,1.5523436617499997,9.5688975774,0.03588833274413341,0.0019853120241435504,-0.03588833274413341,0.15302000000000002,0.22162000000000004,-0.43596,7.5,0,9088,8598,13561,32989,14.5594921875,233253,22.70781706280959,1027.4209322882248,0,40.689276,-73.991776,0.06,19:27:0,False
2024-03-25T15:27:00,-3.35892472475,1.56311136345,9.53719267795,0.04306599929296009,0.0019853120241435504,-0.03756821214917795,0.15162,0.21406000000000003,-0.44870000000000004,7.5,0,9088,8598,13561,32989,14.367890625,221128,22.602831056373248,1027.4400135109202,0,40.689276,-73.991776,0.06,19:27:0,False
2024-03-25T15:27:00,-3.3338000874499993,1.5481562222,9.513862657599999,0.03772092845872745,0.0009162978572970231,-0.038179077387375956,0.15246,0.21658000000000002,-0.44478,7.5,1,9085,8598,13562,32988,14.367890625,221128,22.602831056373248,1027.4400135109202,0,40.689268,-73.99178,0.06,19:27:1,False
2024-03-25T15:27:01,-3.3511480512999996,1.5649059803999998,9.514460863249997,0.0355829001250344,0.004276056667386108,-0.037110063220529434,0.15274000000000001,0.22750000000000004,-0.44926000000000005,7.5,1,9079,8596,13559,32977,14.4301953125,230819,22.663629696924474,1027.4246027008335,0,40.689268,-73.99178,0.06,19:27:1,False
2024-03-25T15:27:01,-3.4049865597999993,1.5756736821,9.4923272542,0.0355829001250344,0.004123340357836604,-0.03436116964863837,0.16562000000000002,0.22414,-0.44898000000000005,7.5,1,9079,8596,13559,32977,14.4301953125,230819,22.663629696924474,1027.4246027008335,0,40.689268,-73.99178,0.06,19:27:1,False
2024-03-25T15:27:01,-3.3260234139999993,1.5517454561000001,9.527621387549999,0.03329215548179184,0.00045814892864851157,-0.03695734691097993,0.15386000000000002,0.22666000000000003,-0.43288000000000004,7.5,1,9079,8596,13559,32977,14.4301953125,230819,22.663629696924474,1027.4246027008335,0,40.689268,-73.99178,0.04,19:27:1,False
2024-03-25T15:27:01,-3.3780673055499997,1.5649059803999998,9.49412187115,0.03405573702953936,0.004276056667386108,-0.028405233576207715,0.15274000000000001,0.22050000000000003,-0.4461800000000001,7.5,1,9079,8596,13559,32977,14.4301953125,230819,22.663629696924474,1027.4246027008335,0,40.689268,-73.99178,0.04,19:27:1,False
2024-03-25T15:27:01,-3.3565319021499995,1.5732808595,9.556933464399998,0.03787364476827696,0.0007635815477475193,-0.03451388595818787,0.15246,0.22890000000000005,-0.44800000000000006,7.5,1,9079,8596,13559,32977,14.2503125,220834,22.564621840873645,1027.4371364923238,0,40.689271,-73.991781,0.04,19:27:2,False
2024-03-25T15:27:02,-3.3792637168499997,1.5684952143,9.53479985535,0.03451388595818787,0.005039638215133627,-0.03634648167278191,0.15582000000000001,0.21994000000000002,-0.43862000000000007,7.5,0,9080,8595,13560,32966,14.324140625,230659,22.63126224806421,1027.4149939363224,0,40.689271,-73.991781,0.04,19:27:2,False
2024-03-25T15:27:02,-3.3565319021499995,1.5583257182499999,9.530612415799999,0.038179077387375956,0.0024434609527920616,-0.03741549583962844,0.15162,0.21854,-0.44576000000000005,7.5,0,9080,8595,13560,32966,14.324140625,230659,22.63126224806421,1027.4149939363224,0,40.689271,-73.991781,0.04,19:27:2,False
2024-03-25T15:27:02,-3.3475588174,1.5619149521499998,9.5401837062,0.03512475119638588,0.0036651914291880926,-0.03405573702953936,0.15386000000000002,0.22610000000000002,-0.45052000000000003,7.5,0,9080,8595,13560,32966,14.324140625,230659,22.63126224806421,1027.4149939363224,0,40.689271,-73.991781,0.04,19:27:2,False
2024-03-25T15:27:02,-3.3678978095,1.5583257182499999,9.51924650845,0.037110063220529434,0.0035124751196385882,-0.03497203488683638,0.15022000000000002,0.22526000000000002,-0.44212000000000007,7.5,0,9080,8595,13560,32966,14.324140625,230659,22.63126224806421,1027.4149939363224,0,40.689271,-73.991781,0.04,19:27:2,False
2024-03-25T15:27:02,-3.3499516399999996,1.5702898312499998,9.539585500549999,0.039400807863771994,0.0033597588100890844,-0.0357356164345839,0.15610000000000002,0.22666000000000003,-0.43736,7.5,0,9080,8595,13560,32966,14.1676953125,217790,22.538912658264678,1027.4356079948202,0,40.68927,-73.991785,0.04,19:27:3,False
2024-03-25T15:27:03,-3.3415767608999998,1.5583257182499999,9.54676396835,0.03588833274413341,0.003970624048287101,-0.03695734691097993,0.14994000000000002,0.22834000000000004,-0.44212000000000007,7.5,1,9083,8595,13561,32978,14.2598828125,230338,22.60663626217065,1027.4148042426623,0,40.68927,-73.991785,0.04,19:27:3,False
2024-03-25T15:27:03,-3.3481570230499993,1.54396878265,9.567102960449999,0.03512475119638588,0.0036651914291880926,-0.03451388595818787,0.15022000000000002,0.22638000000000003,-0.43820000000000003,7.5,1,9083,8595,13561,32978,14.2598828125,230338,22.60663626217065,1027.4148042426623,0,40.68927,-73.991785,0.04,19:27:3,False
2024-03-25T15:27:03,-3.32063956315,1.57746829905,9.5365944723,0.03298672286269283,0.0009162978572970231,-0.030848694528999777,0.15722000000000003,0.22890000000000005,-0.43862000000000007,7.5,1,9083,8595,13561,32978,14.2598828125,230338,22.60663626217065,1027.4148042426623,0,40.68927,-73.991785,0.04,19:27:3,False
2024-03-25T15:27:03,-3.3475588174,1.55114725045,9.539585500549999,0.03726277953007894,0.0068722339297276735,-0.03283400655314333,0.14574,0.23114,-0.44002,7.5,1,9083,8595,13561,32978,14.2598828125,230338,22.60663626217065,1027.4148042426623,0,40.68927,-73.991785,0.04,19:27:3,False
2024-03-25T15:27:03,-3.3308090591999995,1.5708880368999998,9.35892739425,0.03405573702953936,0.0025961772623415654,-0.03420845333908886,0.14826000000000003,0.22302000000000002,-0.4443600000000001,7.5,1,9083,8595,13561,32978,14.12140625,218076,22.52576340590361,1027.4342788241042,0,40.68927,-73.991785,0.04,19:27:3,False
2024-03-25T15:27:03,-3.3649067812499998,1.567298803,9.49412187115,0.03420845333908886,0.0016798794050445422,-0.03695734691097993,0.16310000000000002,0.22526000000000002,-0.43988000000000005,7.5,1,9083,8595,13561,32978,14.12140625,218076,22.52576340590361,1027.4342788241042,0,40.68927,-73.991785,0.04,19:27:3,False
2024-03-25T15:27:03,-3.3786655112,1.5475580165499996,9.5437729401,0.03665191429188092,0.0024434609527920616,-0.03466660226773738,0.16002000000000002,0.22274000000000002,-0.43820000000000003,7.5,1,9083,8595,13561,32978,14.12140625,218076,22.52576340590361,1027.4342788241042,0,40.68927,-73.991785,0.04,19:27:3,False
2024-03-25T15:27:03,-3.33619291005,1.5445669883,9.48335416945,0.038331793696925465,0.0018325957145940463,-0.03405573702953936,0.15330000000000002,0.22218000000000004,-0.4432400000000001,7.5,1,9083,8595,13561,32978,14.12140625,218076,22.52576340590361,1027.4342788241042,0,40.68927,-73.991785,0.04,19:27:3,False
2024-03-25T15:27:03,-3.3780673055499997,1.5517454561000001,9.54676396835,0.039706240482871004,0.0033597588100890844,-0.03756821214917795,0.15274000000000001,0.2247,-0.44156000000000006,7.5,1,9083,8595,13561,32978,14.227265625,228278,22.583940109398007,1027.4156272799496,0,40.68927,-73.991785,1.14,19:27:3,False
2024-03-25T15:27:03,-3.3332018817999995,1.5625131578,9.5042913672,0.0355829001250344,0.0007635815477475193,-0.03787364476827696,0.15974000000000002,0.22582000000000002,-0.43666000000000005,7.5,1,9083,8595,13561,32978,14.227265625,228278,22.583940109398007,1027.4156272799496,0,40.68927,-73.991785,1.14,19:27:3,False
2024-03-25T15:27:03,-3.3750762772999994,1.5529418674,9.4983093107,0.03588833274413341,0.0022907446432425577,-0.03420845333908886,0.15246,0.21938000000000002,-0.45332000000000006,7.5,1,9083,8595,13561,32978,14.227265625,228278,22.583940109398007,1027.4156272799496,0,40.689273,-73.991781,1.14,19:27:4,False
2024-03-25T15:27:04,-3.3451659947999994,1.56071854085,9.503693161549998,0.03665191429188092,0.004123340357836604,-0.03344487179134134,0.15638000000000002,0.21938000000000002,-0.44478,7.5,1,9084,8596,13564,32983,14.507734375,235906,22.64243124380217,1027.412179607787,0,40.689273,-73.991781,1.14,19:27:4,False
2024-03-25T15:27:04,-3.3810583337999995,1.5469598108999998,9.481559552499998,0.03497203488683638,0.006108652381980154,-0.0355829001250344,0.14938,0.22414,-0.43806000000000006,7.5,1,9084,8596,13564,32983,14.507734375,235906,22.64243124380217,1027.412179607787,0,40.689273,-73.991781,1.14,19:27:4,False
2024-03-25T15:27:04,-3.3523444625999996,1.5457633995999998,9.560522698299998,0.03207042500539581,0.0009162978572970231,-0.03222314131494531,0.15078,0.22638000000000003,-0.44604000000000005,7.5,1,9084,8596,13564,32983,14.507734375,235906,22.64243124380217,1027.412179607787,0,40.689273,-73.991781,0.5,19:27:4,False
2024-03-25T15:27:04,-3.3152557123,1.5625131578,9.5389872949,0.03329215548179184,0.006566801310628666,-0.039095375244672985,0.15498,0.22610000000000002,-0.45150000000000007,7.5,1,9084,8596,13564,32983,14.507734375,235906,22.64243124380217,1027.412179607787,0,40.689273,-73.991781,0.5,19:27:4,False
2024-03-25T15:27:04,-3.3780673055499997,1.5661023916999999,9.5066841898,0.036193765363232405,0.0056505034533316425,-0.03359758810089085,0.15638000000000002,0.22554000000000002,-0.44758000000000003,7.5,1,9084,8596,13564,32983,14.4227734375,223662,22.55953847034083,1027.4348158812745,0,40.689266,-73.99178,0.5,19:27:5,False
2024-03-25T15:27:05,-3.3702906320999997,1.5894324120499999,9.558728081349999,0.039400807863771994,0.002901609881440573,-0.03512475119638588,0.15806,0.22442,-0.4461800000000001,7.5,0,9079,8590,13557,32968,14.5344921875,232762,22.59741041711562,1027.415416350814,0,40.689266,-73.99178,0.5,19:27:5,False
2024-03-25T15:27:05,-3.3535408738999997,1.5625131578,9.4971128994,0.03375030441044035,0.005192354524683131,-0.03405573702953936,0.15666000000000002,0.22554000000000002,-0.45682000000000006,7.5,0,9079,8590,13557,32968,14.5344921875,232762,22.59741041711562,1027.415416350814,0,40.689266,-73.99178,0.5,19:27:5,False
2024-03-25T15:27:05,-3.3260234139999993,1.5601203352,9.508478806749999,0.03924809155422249,0.004581489286485115,-0.03405573702953936,0.15134,0.22358,-0.4478600000000001,7.5,0,9079,8590,13557,32968,14.5344921875,232762,22.59741041711562,1027.415416350814,0,40.689266,-73.99178,0.57,19:27:5,False
2024-03-25T15:27:05,-3.34696061175,1.5720844482,9.53719267795,0.03252857393404432,0.0027488935718910697,-0.03466660226773738,0.15358000000000002,0.21686000000000002,-0.4354,7.5,1,9077,8588,13555,32962,14.5344921875,232762,22.59741041711562,1027.415416350814,0,40.689266,-73.99178,0.57,19:27:5,False
2024-03-25T15:27:05,-3.3894332128999998,1.5427723713499997,9.552746024849998,0.03787364476827696,0.0025961772623415654,-0.03665191429188092,0.16002000000000002,0.2233,-0.4555600000000001,7.5,1,9077,8588,13555,32962,14.360859375,221571,22.49882872518875,1027.4351168576286,0,40.689256,-73.99178,0.57,19:27:6,False
2024-03-25T15:27:06,-3.3631121643,1.54875442785,9.509077012399999,0.031001410838549282,0.00015271630954950385,-0.03741549583962844,0.15274000000000001,0.21714000000000003,-0.44576000000000005,7.5,0,9078,8586,13559,32973,14.434296875,233089,22.565417518583295,1027.4157767497634,0,40.689256,-73.99178,0.57,19:27:6,False
2024-03-25T15:27:06,-3.3535408738999997,1.5601203352,9.514460863249997,0.0018325957145940463,0.0070249502392771765,-0.03512475119638588,0.15610000000000002,0.2177,-0.44100000000000006,7.5,0,9078,8586,13559,32973,14.434296875,233089,22.565417518583295,1027.4157767497634,0,40.689256,-73.99178,0.57,19:27:6,False
2024-03-25T15:27:06,-3.34097855525,1.5571293069499996,9.5282195932,0.0319177086958463,0.0036651914291880926,-0.03390302071998985,0.15078,0.22582000000000002,-0.43778,7.5,0,9078,8586,13559,32973,14.434296875,233089,22.565417518583295,1027.4157767497634,0,40.689256,-73.99178,0.12,19:27:6,False
2024-03-25T15:27:06,-3.3403803495999997,1.5385849318,9.5102734237,0.037110063220529434,0.004276056667386108,-0.03466660226773738,0.16142,0.22414,-0.43428000000000005,7.5,0,9078,8586,13559,32973,14.434296875,233089,22.565417518583295,1027.4157767497634,0,40.689256,-73.99178,0.12,19:27:6,False
2024-03-25T15:27:06,-3.33858573265,1.5714862425499996,9.53719267795,0.03588833274413341,0.0007635815477475193,-0.036499197982331415,0.15834,0.21518,-0.43806000000000006,7.5,0,9078,8586,13559,32973,14.263984375,221128,22.45675067572471,1027.4340114304086,0,40.689246,-73.991783,0.12,19:27:7,False
2024-03-25T15:27:07,-3.33858573265,1.5577275125999999,9.527023181899999,0.0357356164345839,0.004886921905584123,-0.03512475119638588,0.15302000000000002,0.22974,-0.44128,7.5,0,9082,8592,13566,32989,14.3454296875,232273,22.518602781609644,1027.4177525279547,0,40.689246,-73.991783,0.12,19:27:7,False
2024-03-25T15:27:07,-3.3583265191,1.5469598108999998,9.535996266649999,0.03375030441044035,0.006566801310628666,-0.03130684345764829,0.15918000000000002,0.22246000000000002,-0.44254000000000004,7.5,0,9082,8592,13566,32989,14.3454296875,232273,22.518602781609644,1027.4177525279547,0,40.689246,-73.991783,0.12,19:27:7,False
2024-03-25T15:27:07,-3.329014442249999,1.5834503555499997,9.490532637249999,0.03527746750593539,0.0018325957145940463,-0.03543018381548489,0.15218,0.22022000000000003,-0.45038000000000006,7.5,0,9082,8592,13566,32989,14.3454296875,232273,22.518602781609644,1027.4177525279547,0,40.689246,-73.991783,0.94,19:27:7,False
2024-03-25T15:27:07,-3.3583265191,1.5565311012999998,9.5461657627,0.038179077387375956,0.0035124751196385882,-0.03329215548179184,0.15274000000000001,0.22106000000000003,-0.44478,7.5,0,9082,8592,13566,32989,14.3454296875,232273,22.518602781609644,1027.4177525279547,0,40.689246,-73.991783,0.94,19:27:7,False
2024-03-25T15:27:07,-3.3164521235999995,1.5786647103499998,9.51805009715,0.03802636107782646,0.004886921905584123,-0.036193765363232405,0.1603,0.22050000000000003,-0.44058,7.5,0,9082,8592,13566,32989,14.196796875,220247,22.42683673976932,1027.4375991231382,0,40.689245,-73.991785,0.94,19:27:8,False
2024-03-25T15:27:08,-3.3296126479,1.5559328956499998,9.642476872349999,0.03527746750593539,0.005803219762881146,-0.03329215548179184,0.17010000000000003,0.2247,-0.44800000000000006,7.5,0,9083,8591,13567,32989,14.2940625,231787,22.489614655517478,1027.414870171451,0,40.689245,-73.991785,0.94,19:27:8,False
2024-03-25T15:27:08,-3.3475588174,1.5314064639999998,9.5162554802,0.03665191429188092,0.004276056667386108,-0.03390302071998985,0.16478000000000004,0.22218000000000004,-0.44338000000000005,7.5,0,9083,8591,13567,32989,14.2940625,231787,22.489614655517478,1027.414870171451,0,40.689245,-73.991785,0.94,19:27:8,False
2024-03-25T15:27:08,-3.3338000874499993,1.56071854085,9.55633525875,0.0355829001250344,0.003207042500539581,-0.03390302071998985,0.15498,0.22302000000000002,-0.43988000000000005,7.5,0,9083,8591,13567,32989,14.2940625,231787,22.489614655517478,1027.414870171451,0,40.689245,-73.991785,0.94,19:27:8,False
2024-03-25T15:27:08,-3.361915753,1.5565311012999998,9.56471013785,0.037110063220529434,0.0038179077387375964,-0.03451388595818787,0.16506,0.21854,-0.44450000000000006,7.5,0,9083,8591,13567,32989,14.2940625,231787,22.489614655517478,1027.414870171451,0,40.689245,-73.991785,0.94,19:27:8,False
2024-03-25T15:27:08,-3.3373893213500003,1.5619149521499998,9.5557370531,0.03924809155422249,0.00473420559603462,-0.03466660226773738,0.15554,0.2303,-0.44422,7.5,0,9083,8591,13567,32989,14.157734375,221719,22.39863060532652,1027.4345024687088,0,40.689245,-73.991785,0.94,19:27:8,False
2024-03-25T15:27:08,-3.3439695835,1.57746829905,9.486345197699999,0.03604104905368291,0.0068722339297276735,-0.03420845333908886,0.15610000000000002,0.22526000000000002,-0.43988000000000005,7.5,0,9083,8591,13567,32989,14.157734375,221719,22.39863060532652,1027.4345024687088,0,40.689245,-73.991785,0.94,19:27:8,False
2024-03-25T15:27:08,-3.3643085755999995,1.5583257182499999,9.5102734237,0.03359758810089085,0.003054326190990077,-0.03802636107782646,0.16002000000000002,0.22722000000000003,-0.44716,7.5,0,9083,8591,13567,32989,14.157734375,221719,22.39863060532652,1027.4345024687088,0,40.689245,-73.991785,0.94,19:27:8,False
2024-03-25T15:27:08,-3.3607193417,1.56071854085,9.527023181899999,0.030237829290801762,0.007330382858376185,-0.03359758810089085,0.16002000000000002,0.22302000000000002,-0.44534,7.5,0,9083,8591,13567,32989,14.157734375,221719,22.39863060532652,1027.4345024687088,0,40.689245,-73.991785,0.94,19:27:8,False
2024-03-25T15:27:08,-3.373879866,1.55354007305,9.5545406418,0.03802636107782646,0.004581489286485115,-0.03634648167278191,0.15722000000000003,0.22610000000000002,-0.43428000000000005,7.5,0,9083,8591,13567,32989,14.263203125,230819,22.451529845484046,1027.4169229636934,0,40.689245,-73.991785,0.69,19:27:8,False
2024-03-25T15:27:08,-3.3475588174,1.5625131578,9.4576313265,0.0355829001250344,0.0012217304763960308,-0.038637226316024474,0.16646,0.2247,-0.44184,7.5,0,9083,8591,13567,32989,14.263203125,230819,22.451529845484046,1027.4169229636934,0,40.689245,-73.991785,0.69,19:27:8,False
2024-03-25T15:27:08,-3.329014442249999,1.5499508391499999,9.517451891499999,0.03375030441044035,-0.001069014166846527,-0.0357356164345839,0.16226000000000002,0.22526000000000002,-0.44478,7.5,0,9083,8591,13567,32989,14.263203125,230819,22.451529845484046,1027.4169229636934,0,40.689243,-73.991785,0.69,19:27:9,False
2024-03-25T15:27:09,-3.36131754735,1.5625131578,9.49771110505,0.038637226316024474,0.0024434609527920616,-0.03588833274413341,0.15806,0.22666000000000003,-0.4494,7.5,1,9080,8588,13562,32982,14.5415234375,240524,22.520125654859516,1027.4062887276916,0,40.689243,-73.991785,0.69,19:27:9,False
2024-03-25T15:27:09,-3.29431851455,1.5595221295499997,9.5545406418,0.03588833274413341,0.0070249502392771765,-0.03466660226773738,0.15078,0.21518,-0.4432400000000001,7.5,1,9080,8588,13562,32982,14.5415234375,240524,22.520125654859516,1027.4062887276916,0,40.689243,-73.991785,0.69,19:27:9,False
2024-03-25T15:27:09,-3.3296126479,1.5559328956499998,9.49412187115,0.03741549583962844,0.006261368691529657,-0.038942658935123484,0.15050000000000002,0.22386,-0.45332000000000006,7.5,1,9080,8588,13562,32982,14.5415234375,240524,22.520125654859516,1027.4062887276916,0,40.689243,-73.991785,0.53,19:27:9,False
2024-03-25T15:27:09,-3.3553354908499995,1.5696916255999998,9.527023181899999,0.03298672286269283,0.005039638215133627,-0.038484510006474966,0.15386000000000002,0.22302000000000002,-0.4459,7.5,1,9080,8588,13562,32982,14.5415234375,240524,22.520125654859516,1027.4062887276916,0,40.689243,-73.991785,0.53,19:27:9,False
2024-03-25T15:27:09,-3.35892472475,1.56071854085,9.52522856495,0.03726277953007894,0.0015271630954950385,-0.03543018381548489,0.1547,0.2247,-0.43834,7.5,1,9080,8588,13562,32982,14.4387890625,228278,22.415559471847466,1027.4216295781569,0,40.689246,-73.991785,0.53,19:27:10,False
2024-03-25T15:27:10,-3.3667013982,1.5445669883,9.5449693514,0.03726277953007894,0.003970624048287101,-0.03665191429188092,0.15386000000000002,0.22806000000000004,-0.4502400000000001,7.5,0,9079,8587,13552,32966,14.5383984375,238793,22.462979339508507,1027.406256383523,0,40.689246,-73.991785,0.53,19:27:10,False
2024-03-25T15:27:10,-3.36969242645,1.56071854085,9.549156790949999,0.03695734691097993,0.0036651914291880926,-0.03359758810089085,0.15694000000000002,0.23058,-0.4494,7.5,0,9079,8587,13552,32966,14.5383984375,238793,22.462979339508507,1027.406256383523,0,40.689246,-73.991785,0.53,19:27:10,False
2024-03-25T15:27:10,-3.36012113605,1.5463616052499998,9.5413801175,0.039706240482871004,0.004276056667386108,-0.036499197982331415,0.15554,0.22414,-0.43666000000000005,7.5,0,9079,8587,13552,32966,14.5383984375,238793,22.462979339508507,1027.406256383523,0,40.689246,-73.991785,0.64,19:27:10,False
2024-03-25T15:27:10,-3.31346109535,1.5361921092,9.522835742349999,0.03756821214917795,0.004276056667386108,-0.03359758810089085,0.14714000000000002,0.22358,-0.4368000000000001,7.5,0,9079,8587,13552,32966,14.5383984375,238793,22.462979339508507,1027.406256383523,0,40.689246,-73.991785,0.64,19:27:10,False
2024-03-25T15:27:10,-3.3481570230499993,1.5804593272999998,9.5485585853,0.03283400655314333,0.0070249502392771765,-0.03451388595818787,0.15610000000000002,0.23086,-0.4491200000000001,7.5,0,9079,8587,13552,32966,14.3567578125,226100,22.353726216862896,1027.4281724562063,0,40.689243,-73.991783,0.64,19:27:11,False
2024-03-25T15:27:11,-3.385843979,1.5595221295499997,9.55513884745,0.038179077387375956,0.003970624048287101,-0.03436116964863837,0.15638000000000002,0.22274000000000002,-0.42966000000000004,7.5,1,9082,8589,13558,32981,14.4243359375,235906,22.425034981441787,1027.4181873237708,0,40.689243,-73.991783,0.64,19:27:11,False
2024-03-25T15:27:11,-3.3164521235999995,1.5457633995999998,9.526424976249999,0.03588833274413341,0.004123340357836604,-0.036193765363232405,0.15554,0.2233,-0.43834,7.5,1,9082,8589,13558,32981,14.4243359375,235906,22.425034981441787,1027.4181873237708,0,40.689243,-73.991783,0.64,19:27:11,False
2024-03-25T15:27:11,-3.3667013982,1.5565311012999998,9.547362174,0.0355829001250344,0.006261368691529657,-0.031459559767197796,0.15274000000000001,0.2247,-0.44044000000000005,7.5,1,9082,8589,13558,32981,14.4243359375,235906,22.425034981441787,1027.4181873237708,0,40.689243,-73.991783,0.97,19:27:11,False
2024-03-25T15:27:11,-3.33858573265,1.5469598108999998,9.530014210149998,0.03405573702953936,0.002901609881440573,-0.039553524173321496,0.15582000000000001,0.22162000000000004,-0.44954,7.5,1,9082,8589,13558,32981,14.4243359375,235906,22.425034981441787,1027.4181873237708,0,40.689243,-73.991783,0.97,19:27:11,False
2024-03-25T15:27:11,-3.3445677891499996,1.5786647103499998,9.58624554125,0.037110063220529434,0.0056505034533316425,-0.03588833274413341,0.15246,0.22358,-0.43036,7.5,1,9082,8589,13558,32981,14.2477734375,224722,22.3265017677567,1027.441595496997,0,40.689243,-73.99178,0.97,19:27:12,False
2024-03-25T15:27:12,-3.38763859595,1.59182523465,9.53360344405,0.03665191429188092,0.00473420559603462,-0.038637226316024474,0.1589,0.22526000000000002,-0.43596,7.5,1,9076,8582,13548,32960,14.32375,235071,22.393107384226774,1027.4213401329416,0,40.689243,-73.99178,0.97,19:27:12,False
2024-03-25T15:27:12,-3.3332018817999995,1.5559328956499998,9.601798888149998,0.03481931857728687,0.004123340357836604,-0.036193765363232405,0.16366000000000003,0.22750000000000004,-0.44044000000000005,7.5,1,9076,8582,13548,32960,14.32375,235071,22.393107384226774,1027.4213401329416,0,40.689243,-73.99178,0.97,19:27:12,False
2024-03-25T15:27:12,-3.33619291005,1.56311136345,9.557531670049999,0.03375030441044035,0.004886921905584123,-0.03726277953007894,0.1603,0.22610000000000002,-0.4312,7.5,0,9077,8583,13548,32962,14.32375,235071,22.393107384226774,1027.4213401329416,0,40.689243,-73.99178,0.94,19:27:12,False
2024-03-25T15:27:12,-3.3332018817999995,1.5780665047,9.52403215365,0.03787364476827696,0.003970624048287101,-0.03634648167278191,0.1519,0.22050000000000003,-0.4312,7.5,0,9077,8583,13548,32962,14.32375,235071,22.393107384226774,1027.4213401329416,0,40.689243,-73.99178,0.94,19:27:12,False
2024-03-25T15:27:12,-3.35054984565,1.5451651939499997,9.5078806011,0.04077525464971753,0.004276056667386108,-0.03543018381548489,0.15694000000000002,0.21994000000000002,-0.44492000000000004,7.5,0,9077,8583,13548,32962,14.168671875,221867,22.31142285512532,1027.4425162027628,0,40.689233,-73.991781,0.94,19:27:13,False
2024-03-25T15:27:13,-3.3643085755999995,1.5798611216499998,9.54197832315,0.031764992386296806,0.007177666548826681,-0.03604104905368291,0.16450000000000004,0.22218000000000004,-0.44688000000000005,7.5,1,9078,8584,13549,32967,14.2598828125,233253,22.37375142400871,1027.4270662983436,0,40.689233,-73.991781,0.94,19:27:13,False
2024-03-25T15:27:13,-3.3529426682499994,1.54396878265,9.5389872949,0.03405573702953936,0.0054977871437821395,-0.03298672286269283,0.1603,0.22946,-0.45416,7.5,1,9078,8584,13549,32967,14.2598828125,233253,22.37375142400871,1027.4270662983436,0,40.689233,-73.991781,0.94,19:27:13,False
2024-03-25T15:27:13,-3.3553354908499995,1.5900306176999999,9.531808827099999,0.03390302071998985,0.003054326190990077,-0.03512475119638588,0.15778,0.23002,-0.44702000000000003,7.5,1,9078,8584,13549,32967,14.2598828125,233253,22.37375142400871,1027.4270662983436,0,40.689233,-73.991781,0.94,19:27:13,False
2024-03-25T15:27:13,-3.30867545015,1.5517454561000001,9.530014210149998,0.03054326190990077,0.005345070834232635,-0.0357356164345839,0.16198,0.22806000000000004,-0.44744000000000006,7.5,1,9078,8584,13549,32967,14.2598828125,233253,22.37375142400871,1027.4270662983436,0,40.689233,-73.991781,0.94,19:27:13,False
2024-03-25T15:27:13,-3.521636661549999,1.5559328956499998,9.55035320225,0.03466660226773738,0.0056505034533316425,-0.04001167310197001,0.15918000000000002,0.22190000000000004,-0.44170000000000004,7.5,1,9078,8584,13549,32967,14.1188671875,223662,22.29810701588166,1027.4439895000648,0,40.689233,-73.991781,0.94,19:27:13,False
2024-03-25T15:27:13,-3.3391839383,1.5577275125999999,9.5365944723,0.031459559767197796,0.0068722339297276735,-0.03237585762449482,0.1603,0.22106000000000003,-0.4424,7.5,1,9078,8584,13549,32967,14.1188671875,223662,22.29810701588166,1027.4439895000648,0,40.689233,-73.991781,0.94,19:27:13,False
2024-03-25T15:27:13,-3.3499516399999996,1.5499508391499999,9.47737211295,0.029474247743054245,0.0033597588100890844,-0.0355829001250344,0.16142,0.22638000000000003,-0.43904000000000004,7.5,1,9078,8584,13549,32967,14.1188671875,223662,22.29810701588166,1027.4439895000648,0,40.689233,-73.991781,0.94,19:27:13,False
2024-03-25T15:27:13,-3.3678978095,1.56071854085,9.5294160045,0.03512475119638588,0.0022907446432425577,-0.030390545600351267,0.16086,0.22274000000000002,-0.43428000000000005,7.5,1,9078,8584,13549,32967,14.1188671875,223662,22.29810701588166,1027.4439895000648,0,40.689233,-73.991781,0.94,19:27:13,False
2024-03-25T15:27:13,-3.3373893213500003,1.5421741657,9.553344230499999,0.037110063220529434,0.006566801310628666,-0.0355829001250344,0.15722000000000003,0.22022000000000003,-0.44212000000000007,7.5,1,9078,8584,13549,32967,14.22140625,233746,22.361099190819832,1027.421469995742,0,40.689233,-73.991781,1.23,19:27:13,False
2024-03-25T15:27:13,-3.3427731722,1.567298803,9.526424976249999,0.0,0.0024434609527920616,-0.03772092845872745,0.15498,0.21826,-0.44520000000000004,7.5,1,9078,8584,13549,32967,14.22140625,233746,22.361099190819832,1027.421469995742,0,40.689233,-73.991781,1.23,19:27:13,False
2024-03-25T15:27:13,-3.3451659947999994,1.55354007305,9.6227360859,0.03512475119638588,0.0033597588100890844,-0.03741549583962844,0.15414000000000003,0.21910000000000002,-0.4572400000000001,7.5,1,9078,8584,13549,32967,14.22140625,233746,22.361099190819832,1027.421469995742,0,40.68923,-73.991783,1.23,19:27:14,False
2024-03-25T15:27:14,-3.3583265191,1.5421741657,9.513862657599999,0.036804630601430424,0.006719517620178169,-0.03451388595818787,0.1673,0.22554000000000002,-0.43526000000000004,7.5,1,9075,8584,13545,32965,14.4969921875,241223,22.413898173934022,1027.4097665409552,0,40.68923,-73.991783,1.23,19:27:14,False
2024-03-25T15:27:14,-3.3296126479,1.5625131578,9.57547783955,0.03772092845872745,0.003207042500539581,-0.03665191429188092,0.15694000000000002,0.22498,-0.43456000000000006,7.5,1,9075,8584,13545,32965,14.4969921875,241223,22.413898173934022,1027.4097665409552,0,40.68923,-73.991783,1.23,19:27:14,False
2024-03-25T15:27:14,-3.4540394230999993,1.5445669883,9.5018985446,0.0355829001250344,-0.001069014166846527,-0.03543018381548489,0.15918000000000002,0.22638000000000003,-0.43652,7.5,1,9075,8584,13545,32965,14.4969921875,241223,22.413898173934022,1027.4097665409552,0,40.68923,-73.991783,0.72,19:27:14,False
2024-03-25T15:27:14,-3.36849601515,1.56311136345,9.52522856495,0.038942658935123484,0.0022907446432425577,-0.03359758810089085,0.15974000000000002,0.21938000000000002,-0.43078000000000005,7.5,1,9075,8584,13545,32965,14.4969921875,241223,22.413898173934022,1027.4097665409552,0,40.68923,-73.991783,0.72,19:27:14,False
2024-03-25T15:27:14,-3.3702906320999997,1.5613167465000002,9.5007021333,0.038637226316024474,0.004886921905584123,-0.037110063220529434,0.14882,0.22134000000000004,-0.44464000000000004,7.5,1,9075,8584,13545,32965,14.4114453125,227808,22.336334575458302,1027.4296545249517,0,40.689231,-73.991783,0.72,19:27:15,False
2024-03-25T15:27:15,-3.3750762772999994,1.55114725045,9.509077012399999,0.0316122760767473,0.006108652381980154,-0.03543018381548489,0.15694000000000002,0.21882000000000001,-0.43218000000000006,7.5,0,9071,8581,13535,32936,14.517890625,237766,22.399637648867888,1027.4100955238132,0,40.689231,-73.991783,0.72,19:27:15,False
2024-03-25T15:27:15,-3.3535408738999997,1.5702898312499998,9.53121062145,0.03298672286269283,0.005345070834232635,-0.03543018381548489,0.15918000000000002,0.22190000000000004,-0.44646,7.5,0,9071,8581,13535,32936,14.517890625,237766,22.399637648867888,1027.4100955238132,0,40.689231,-73.991783,0.72,19:27:15,False
2024-03-25T15:27:15,-3.3200413575,1.5625131578,9.527023181899999,0.03329215548179184,0.003970624048287101,-0.036499197982331415,0.15050000000000002,0.22190000000000004,-0.43988000000000005,7.5,0,9071,8581,13535,32936,14.517890625,237766,22.399637648867888,1027.4100955238132,0,40.689231,-73.991783,0.85,19:27:15,False
2024-03-25T15:27:15,-3.3541390795499995,1.5583257182499999,9.526424976249999,0.03451388595818787,0.003970624048287101,-0.03512475119638588,0.16002000000000002,0.21574000000000002,-0.4354,7.5,0,9071,8581,13535,32936,14.517890625,237766,22.399637648867888,1027.4100955238132,0,40.689231,-73.991783,0.85,19:27:15,False
2024-03-25T15:27:15,-3.29192569195,1.5547364843499998,9.51685368585,0.0357356164345839,-0.00045814892864851157,-0.031459559767197796,0.15806,0.22162000000000004,-0.43638000000000005,7.5,0,9071,8581,13535,32936,14.320234375,225027,22.29467552952621,1027.427650827818,0,40.689228,-73.991786,0.85,19:27:16,False
2024-03-25T15:27:16,-3.3493534343499998,1.5696916255999998,9.37208791855,0.03252857393404432,0.004886921905584123,-0.03512475119638588,0.1617,0.22638000000000003,-0.44002,7.5,1,9065,8578,13530,32917,14.3786328125,235404,22.355042043602037,1027.409143959394,0,40.689228,-73.991786,0.85,19:27:16,False
2024-03-25T15:27:16,-3.35174625695,1.5445669883,9.540781911849999,0.03252857393404432,0.004123340357836604,-0.03329215548179184,0.16282000000000002,0.23226000000000002,-0.43652,7.5,1,9065,8578,13530,32917,14.3786328125,235404,22.355042043602037,1027.409143959394,0,40.689228,-73.991786,0.85,19:27:16,False
2024-03-25T15:27:16,-3.337987527,1.5553346899999998,9.4923272542,0.03375030441044035,0.0024434609527920616,-0.03634648167278191,0.15694000000000002,0.22750000000000004,-0.43078000000000005,7.5,1,9065,8578,13530,32917,14.3786328125,235404,22.355042043602037,1027.409143959394,0,40.689228,-73.991786,0.93,19:27:16,False
2024-03-25T15:27:16,-3.3146575066499997,1.567298803,9.51805009715,0.03207042500539581,0.004276056667386108,-0.03298672286269283,0.15498,0.22834000000000004,-0.44114000000000003,7.5,1,9065,8578,13530,32917,14.3786328125,235404,22.355042043602037,1027.409143959394,0,40.689228,-73.991786,0.93,19:27:16,False
2024-03-25T15:27:16,-3.3559336964999993,1.5445669883,9.504889572849999,0.03695734691097993,0.0013744467859455349,-0.03481931857728687,0.15246,0.22218000000000004,-0.4397400000000001,7.5,1,9065,8578,13530,32917,14.2040234375,222911,22.272212545365996,1027.4305694767845,0,40.689236,-73.991786,0.93,19:27:17,False
2024-03-25T15:27:17,-3.34097855525,1.5720844482,9.518648302799999,0.031764992386296806,0.0019853120241435504,-0.03466660226773738,0.1547,0.22946,-0.43554000000000004,7.5,1,9062,8575,13527,32906,14.2805859375,234572,22.338808804836148,1027.4113212249367,0,40.689236,-73.991786,0.93,19:27:17,False
2024-03-25T15:27:17,-3.3553354908499995,1.5619149521499998,9.534201649699998,0.03497203488683638,0.003207042500539581,-0.03527746750593539,0.15750000000000003,0.23114,-0.44828,7.5,1,9062,8575,13527,32906,14.2805859375,234572,22.338808804836148,1027.4113212249367,0,40.689236,-73.991786,0.93,19:27:17,False
2024-03-25T15:27:17,-3.3373893213500003,1.5589239239,9.570093988699998,0.03497203488683638,0.002138028333693054,-0.03252857393404432,0.15526,0.22582000000000002,-0.43260000000000004,7.5,1,9062,8575,13527,32906,14.2805859375,234572,22.338808804836148,1027.4113212249367,0,40.689236,-73.991786,0.99,19:27:17,False
2024-03-25T15:27:17,-3.3158539179499997,1.5547364843499998,9.54197832315,0.03283400655314333,0.0016798794050445422,-0.038179077387375956,0.15330000000000002,0.22722000000000003,-0.43820000000000003,7.5,1,9062,8575,13527,32906,14.2805859375,234572,22.338808804836148,1027.4113212249367,0,40.689236,-73.991786,0.99,19:27:17,False
2024-03-25T15:27:17,-3.38763859595,1.5637095691,9.483952375099998,0.038484510006474966,0.0070249502392771765,-0.03512475119638588,0.14826000000000003,0.2247,-0.4242,7.5,1,9062,8575,13527,32906,14.126875,223662,22.25726789311479,1027.420772775681,0,40.689243,-73.991786,0.99,19:27:18,False
2024-03-25T15:27:18,-3.3523444625999996,1.5565311012999998,9.3475614869,0.03604104905368291,0.0054977871437821395,-0.03924809155422249,0.15694000000000002,0.22750000000000004,-0.43778,7.5,1,9057,8570,13520,32888,14.2190625,233581,22.32994675481468,1027.4052399338022,0,40.689243,-73.991786,0.99,19:27:18,False
2024-03-25T15:27:18,-3.32183597445,1.5571293069499996,9.500103927649999,0.03665191429188092,0.001069014166846527,-0.03695734691097993,0.15582000000000001,0.22022000000000003,-0.44842000000000004,7.5,1,9057,8570,13520,32888,14.2190625,233581,22.32994675481468,1027.4052399338022,0,40.689243,-73.991786,0.99,19:27:18,False
2024-03-25T15:27:18,-3.3296126479,1.5816557385999996,9.4911308429,0.03802636107782646,0.007941248096574201,-0.036193765363232405,0.1603,0.22526000000000002,-0.44170000000000004,7.5,1,9057,8570,13520,32888,14.2190625,233581,22.32994675481468,1027.4052399338022,0,40.689243,-73.991786,0.99,19:27:18,False
2024-03-25T15:27:18,-3.36969242645,1.5786647103499998,9.4719882621,0.03772092845872745,0.005345070834232635,-0.03222314131494531,0.15946000000000002,0.22442,-0.4478600000000001,7.5,1,9057,8570,13520,32888,14.2190625,233581,22.32994675481468,1027.4052399338022,0,40.689243,-73.991786,0.99,19:27:18,False
2024-03-25T15:27:18,-3.3487552287,1.5637095691,9.55035320225,0.03497203488683638,0.0024434609527920616,-0.03634648167278191,0.15414000000000003,0.23254000000000002,-0.45192,7.5,1,9057,8570,13520,32888,14.07296875,223361,22.254046160285395,1027.418794275346,0,40.689243,-73.991786,0.99,19:27:18,False
2024-03-25T15:27:18,-3.3367911156999996,1.5523436617499997,9.5437729401,0.03695734691097993,0.0024434609527920616,-0.04001167310197001,0.15918000000000002,0.22610000000000002,-0.43428000000000005,7.5,1,9057,8570,13520,32888,14.07296875,223361,22.254046160285395,1027.418794275346,0,40.689243,-73.991786,0.99,19:27:18,False
2024-03-25T15:27:18,-3.3529426682499994,1.5714862425499996,9.523433948,0.036804630601430424,0.0006108652381980154,-0.03237585762449482,0.16870000000000002,0.22694000000000003,-0.44058,7.5,1,9057,8570,13520,32888,14.07296875,223361,22.254046160285395,1027.418794275346,0,40.689243,-73.991786,0.99,19:27:18,False
2024-03-25T15:27:18,-3.3266216196499996,1.5613167465000002,9.38165920895,0.038331793696925465,0.004581489286485115,-0.03497203488683638,0.15750000000000003,0.22778000000000004,-0.43988000000000005,7.5,1,9057,8570,13520,32888,14.07296875,223361,22.254046160285395,1027.418794275346,0,40.689243,-73.991786,0.99,19:27:18,False
2024-03-25T15:27:18,-3.34696061175,1.5601203352,9.51924650845,0.03466660226773738,0.003207042500539581,-0.03222314131494531,0.16226000000000002,0.22526000000000002,-0.44898000000000005,7.5,1,9057,8570,13520,32888,14.17375,231141,22.322061117317197,1027.4020742506152,0,40.689243,-73.991786,0.5,19:27:18,False
2024-03-25T15:27:18,-3.3649067812499998,1.5469598108999998,9.53838908925,0.03588833274413341,0.00045814892864851157,-0.03268129024359383,0.15666000000000002,0.22414,-0.44072,7.5,0,9057,8570,13519,32888,14.17375,231141,22.322061117317197,1027.4020742506152,0,40.689243,-73.991786,0.5,19:27:18,False
2024-03-25T15:27:18,-3.3152557123,1.5403795487499998,9.5330052384,0.03420845333908886,0.001069014166846527,-0.03634648167278191,0.16646,0.22302000000000002,-0.44954,7.5,0,9057,8570,13519,32888,14.17375,231141,22.322061117317197,1027.4020742506152,0,40.689255,-73.991785,0.5,19:27:19,False
2024-03-25T15:27:19,-3.3403803495999997,1.5397813431,9.5102734237,0.036193765363232405,0.0033597588100890844,-0.03375030441044035,0.16338000000000003,0.22386,-0.43470000000000003,7.5,0,9057,8570,13519,32888,14.44796875,240349,22.385074579929576,1027.386355573952,0,40.689255,-73.991785,0.5,19:27:19,False
2024-03-25T15:27:19,-3.337987527,1.5696916255999998,9.553344230499999,0.03252857393404432,0.0035124751196385882,-0.03726277953007894,0.16086,0.21882000000000001,-0.4494,7.5,0,9057,8570,13519,32888,14.44796875,240349,22.385074579929576,1027.386355573952,0,40.689255,-73.991785,0.5,19:27:19,False
2024-03-25T15:27:19,-3.3547372851999993,1.57746829905,9.562915520899999,0.038179077387375956,0.0022907446432425577,-0.036804630601430424,0.1617,0.22274000000000002,-0.4312,7.5,0,9057,8570,13519,32888,14.44796875,240349,22.385074579929576,1027.386355573952,0,40.689255,-73.991785,0.44,19:27:19,False
2024-03-25T15:27:19,-3.3451659947999994,1.56071854085,9.511469835,0.03313943917224234,0.0044287729769356115,-0.03481931857728687,0.16226000000000002,0.22162000000000004,-0.4403000000000001,7.5,0,9060,8570,13526,32907,14.44796875,240349,22.385074579929576,1027.386355573952,0,40.689255,-73.991785,0.44,19:27:19,False
2024-03-25T15:27:19,-3.3326036761499997,1.5595221295499997,9.499505721999999,0.03802636107782646,0.0025961772623415654,-0.03466660226773738,0.16478000000000004,0.22442,-0.43372000000000005,7.5,0,9060,8570,13526,32907,14.35109375,229066,22.296526992438977,1027.4098227430138,0,40.689261,-73.991781,0.44,19:27:20,False
