Timestamp,Accel_X,Accel_Y,Accel_Z,Gyro_X,Gyro_Y,Gyro_Z,Mag_X,Mag_Y,Mag_Z,LSM9DS1_Temp,Proximity,Color_R,Color_G,Color_B,Color_C,BME680_Temp,Gas,Humidity,Pressure,Switch_Pressed,GPS_Latitude,GPS_Longitude,GPS_Speed,GPS_Timestamp,Pad_press
2024-04-02T10:21:46,1.3190434582499997,-0.14416756165,9.749555683699999,0.020463985479633514,0.020922134408282028,0.08918632477691024,0.038500000000000006,0.29722000000000004,-0.1904,22.5,1,850,503,699,2323,33.574921875,22111,100,695.662002676745,0,,,,N/A,False
2024-04-02T10:21:46,1.3375878333999998,-0.29611179675,9.841679353799998,0.0238237442897226,0.021532999646480044,0.08689558013366769,0.03458000000000001,0.28742,-0.20034000000000002,22.5,1,850,503,699,2323,33.574921875,22111,100,695.662002676745,0,,,,N/A,False
2024-04-02T10:21:46,1.29750805485,-0.17766707805,9.7435736272,0.019242255003237483,0.019547687622336492,0.08872817584826173,0.03962,0.29722000000000004,-0.20552,22.5,1,850,503,699,2323,33.574921875,22111,100,695.662002676745,0,,,,N/A,False
2024-04-02T10:21:46,1.2622139215000001,-0.14117653339999997,9.628718142399999,0.02061670178918302,0.020922134408282028,0.08552113334772216,0.03178,0.29386,-0.21028000000000002,22.5,1,850,503,699,2323,30.19484375,5777,25.498693850684575,1013.7116948496706,0,,,,N/A,False
2024-04-02T10:21:46,1.28674035315,-0.1734796385,9.769894675799998,0.02168571595602955,0.020922134408282028,0.08552113334772216,0.0371,0.29022000000000003,-0.20160000000000003,23.5,1,850,503,699,2323,30.19484375,5777,25.498693850684575,1013.7116948496706,0,,,,N/A,False
2024-04-02T10:21:46,1.34656091815,-0.107677017,9.85902731765,0.018478673455489966,0.024129176908821607,0.08811731061006371,0.035980000000000005,0.29358000000000006,-0.21518,23.5,1,850,503,699,2323,30.19484375,5777,25.498693850684575,1013.7116948496706,0,,,,N/A,False
2024-04-02T10:21:46,1.2669995667,-0.17886348935000002,9.716056167299998,0.020769418098732523,0.019853120241435502,0.08888089215781124,0.032900000000000006,0.29190000000000005,-0.21252000000000001,23.5,1,850,503,699,2323,30.420625,6794,25.53243942433237,1013.6871811268188,0,,,,N/A,False
2024-04-02T10:21:46,1.2251251712,-0.11246266220000001,9.8153583052,0.020311269170084013,0.020005836550985007,0.09010262263420728,0.03458000000000001,0.29498,-0.20300000000000004,23.5,1,850,503,699,2323,30.420625,6794,25.53243942433237,1013.6871811268188,0,,,,N/A,False
2024-04-02T10:21:46,1.34656091815,-0.13100703735,9.70947590515,0.018784106074588976,0.020922134408282028,0.08765916168141522,0.03178,0.29302000000000006,-0.21336000000000002,23.5,1,850,503,699,2323,30.420625,6794,25.53243942433237,1013.6871811268188,0,,,,N/A,False
2024-04-02T10:21:46,1.3531411802999997,-0.15672988029999999,9.8201439504,0.02138028333693054,0.01786780821729195,0.08827002691961322,0.042140000000000004,0.29442,-0.22008000000000003,23.5,1,850,503,699,2323,30.8059765625,7824,25.573088841464553,1013.6833571799366,0,,,,N/A,False
2024-04-02T10:21:47,1.2957134379,-0.12502498085,9.732207719849999,0.018784106074588976,0.026878070480712675,0.08536841703817265,0.039060000000000004,0.29610000000000003,-0.19838000000000003,23.5,1,850,503,699,2323,30.8059765625,7824,25.573088841464553,1013.6833571799366,0,,,,N/A,False
2024-04-02T10:21:47,1.3328021881999996,-0.13938191645,9.77288570405,0.019089538693687978,0.019547687622336492,0.08994990632465777,0.03542,0.28518,-0.20188000000000003,23.5,1,850,503,699,2323,30.8059765625,7824,25.573088841464553,1013.6833571799366,0,,,,N/A,False
2024-04-02T10:21:47,1.3549357972499998,-0.15134602945,9.8668039911,0.015577063574049392,0.02260201381332657,0.08903360846736075,0.02926,0.29246000000000005,-0.20188000000000003,23.5,1,850,503,699,2323,31.2368359375,8963,25.59000056291282,1013.6725355863631,0,,,,N/A,False
2024-04-02T10:21:47,1.2831511192499998,-0.12263215824999998,9.7938229018,0.02138028333693054,0.023976460599272102,0.08888089215781124,0.03654,0.29358000000000006,-0.21070000000000003,23.5,0,859,511,711,2349,31.2368359375,8963,25.59000056291282,1013.6725355863631,0,,,,N/A,False
2024-04-02T10:21:47,1.4063814831500001,-0.1387837108,9.963713306399999,0.020005836550985007,0.020922134408282028,0.08567384965727166,0.03514,0.28938,-0.19418000000000002,23.5,0,859,511,711,2349,31.2368359375,8963,25.59000056291282,1013.6725355863631,0,,,,N/A,False
2024-04-02T10:21:47,1.2125628525499998,-0.15074782379999999,9.67477997745,0.017409659288643436,0.02229658119422756,0.08567384965727166,0.04354000000000001,0.28966000000000003,-0.20846,23.5,0,859,511,711,2349,31.65109375,9984,25.59475120010928,1013.6768348649613,0,,,,N/A,False
2024-04-02T10:21:47,1.2915259983499998,-0.15014961815,9.73101130855,0.01756237559819294,0.02306016274197508,0.08933904108645975,0.0315,0.29414000000000007,-0.20468,23.5,0,859,511,711,2349,31.65109375,9984,25.59475120010928,1013.6768348649613,0,,,,N/A,False
2024-04-02T10:21:47,1.3986048097,-0.1280160091,9.825527801249999,0.017715091907742446,0.020463985479633514,0.08994990632465777,0.0315,0.29694000000000004,-0.20958000000000002,23.5,0,859,511,711,2349,31.65109375,9984,25.59475120010928,1013.6768348649613,0,,,,N/A,False
2024-04-02T10:21:47,1.32143628085,-0.14057832774999998,9.796813930049998,0.01863138976503947,0.020311269170084013,0.08949175739600926,0.03878,0.29386,-0.20776000000000003,23.5,0,859,511,711,2349,32.027265625,11030,25.585626079932794,1013.675610520954,0,,,,N/A,False
2024-04-02T10:21:47,1.2981062605,-0.11425727914999999,9.800403163949998,0.020922134408282028,0.02351831167062359,0.08643743120501918,0.03458000000000001,0.29918,-0.2121,23.5,0,859,511,711,2349,32.027265625,11030,25.585626079932794,1013.675610520954,0,,,,N/A,False
2024-04-02T10:21:47,1.3674981158999997,-0.1387837108,9.9038927414,0.02168571595602955,0.023976460599272102,0.08949175739600926,0.04102,0.28994000000000003,-0.20636000000000002,23.5,0,859,511,711,2349,32.027265625,11030,25.585626079932794,1013.675610520954,0,,,,N/A,False
2024-04-02T10:21:47,1.3531411802999997,-0.14297115034999996,9.80877804305,0.021227567027381034,0.020158552860534508,0.08842274322916273,0.027860000000000003,0.2933,-0.20398000000000002,23.5,0,859,511,711,2349,32.358515625,12033,25.5510687948022,1013.6812703746496,0,,,,N/A,False
2024-04-02T10:21:47,1.399801221,-0.1447657673,9.8931250397,0.06276640322484608,-0.09651670763528643,-0.06078109120070253,0.03262,0.29498,-0.21336000000000002,23.5,0,859,511,711,2349,32.358515625,12033,25.5510687948022,1013.6812703746496,0,,,,N/A,False
2024-04-02T10:21:47,1.38484607975,-0.10648060570000001,9.864411168499998,0.04657847441259867,-0.049938233222687756,-0.05314527572322734,0.03458000000000001,0.30226000000000003,-0.21042000000000002,23.5,0,859,511,711,2349,32.358515625,12033,25.5510687948022,1013.6812703746496,0,,,,N/A,False
2024-04-02T10:21:47,1.30468652265,-0.16929219894999997,9.8093762487,0.04276056667386108,-0.017256942979093935,-0.05421428989007387,0.03318,0.29498,-0.19964,23.5,1,859,512,711,2350,32.64640625,13053,25.50214392634047,1013.6893777013012,0,,,,N/A,False
2024-04-02T10:21:47,1.3429716842499997,-0.18484554585,9.87577707585,0.041844268816564056,-0.0006108652381980154,-0.048716502746291725,0.030380000000000004,0.2975,-0.19978000000000004,23.5,1,859,512,711,2350,32.64640625,13053,25.50214392634047,1013.6893777013012,0,,,,N/A,False
2024-04-02T10:21:47,1.3268201317,-0.13818550515,9.777073143599997,0.03527746750593539,0.0070249502392771765,-0.048411070127192715,0.028700000000000003,0.29134000000000004,-0.21420000000000003,23.5,1,859,512,711,2350,32.64640625,13053,25.50214392634047,1013.6893777013012,0,,,,N/A,False
2024-04-02T10:21:48,1.3974083984,-0.10169496049999999,9.868598608049998,0.0007635815477475193,0.015118914645400881,-0.04948008429403925,0.030380000000000004,0.2947000000000001,-0.20958000000000002,23.5,1,859,512,711,2350,32.8938671875,14016,25.455544926633873,1013.703092683259,0,,,,N/A,False
2024-04-02T10:21:48,1.3770694062999997,-0.13998012209999997,9.910473003549999,0.04153883619746505,0.008704829644321718,-0.04657847441259867,0.030660000000000003,0.29806,-0.19572000000000003,23.5,1,859,512,711,2350,32.8938671875,14016,25.455544926633873,1013.703092683259,0,,,,N/A,False
2024-04-02T10:21:48,1.31186499045,-0.16630117069999997,9.834500885999999,0.04016438941151951,0.004276056667386108,-0.04077525464971753,0.02758,0.29302000000000006,-0.20804000000000003,23.5,1,859,512,711,2350,32.8938671875,14016,25.455544926633873,1013.703092683259,0,,,,N/A,False
2024-04-02T10:21:48,1.3710873497999998,-0.18305092890000002,9.984052298499998,0.04276056667386108,0.005039638215133627,-0.041844268816564056,0.03458000000000001,0.30002000000000006,-0.20734000000000002,23.5,1,859,512,711,2350,33.1067578125,14950,25.3952536665165,1013.7032945219628,0,,,,N/A,False
2024-04-02T10:21:48,1.2831511192499998,-0.11365907349999999,9.775278526649998,0.04734205596034619,0.002138028333693054,-0.039858956792420505,0.028140000000000005,0.29834000000000005,-0.21028000000000002,23.5,1,859,512,711,2350,33.1067578125,14950,25.3952536665165,1013.7032945219628,0,,,,N/A,False
2024-04-02T10:21:48,1.24008031245,-0.1363908882,9.932606612599997,0.04657847441259867,0.006719517620178169,-0.038637226316024474,0.028140000000000005,0.29694000000000004,-0.21490000000000004,23.5,1,859,512,711,2350,33.1067578125,14950,25.3952536665165,1013.7032945219628,0,,,,N/A,False
2024-04-02T10:21:48,1.2885349701,-0.14297115034999996,9.750752095,0.04016438941151951,-0.0054977871437821395,-0.03787364476827696,0.03374,0.28602000000000005,-0.20818,23.5,1,859,512,711,2350,33.2925,15848,25.3218530016249,1013.7112133211876,0,,,,N/A,False
2024-04-02T10:21:48,1.32981115995,-0.1531406464,9.9529456047,0.04306599929296009,-0.003970624048287101,-0.04016438941151951,0.029820000000000003,0.28938,-0.20846,23.5,1,859,512,711,2350,33.2925,15848,25.3218530016249,1013.7112133211876,0,,,,N/A,False
2024-04-02T10:21:48,1.3758729949999997,-0.13100703735,9.889535805799998,0.04734205596034619,0.00015271630954950385,-0.03924809155422249,0.03262,0.29414000000000007,-0.21252000000000001,23.5,1,859,512,711,2350,33.2925,15848,25.3218530016249,1013.7112133211876,0,,,,N/A,False
2024-04-02T10:21:48,1.3262219260499999,-0.10229316614999999,9.76092159105,0.04321871560250959,-0.003207042500539581,-0.04444044607890562,0.0371,0.29386,-0.19194000000000003,23.5,1,860,512,711,2349,33.45265625,16821,25.240967132515408,1013.7132461621779,0,,,,N/A,False
2024-04-02T10:21:48,1.3166506356499998,-0.13998012209999997,9.786644434,0.04321871560250959,0.0006108652381980154,-0.03741549583962844,0.029540000000000004,0.29554,-0.19964,23.5,1,860,512,711,2349,33.45265625,16821,25.240967132515408,1013.7132461621779,0,,,,N/A,False
2024-04-02T10:21:48,1.3950155758,-0.16271193679999998,9.961320483799998,0.043982297150257116,-0.006719517620178169,-0.03344487179134134,0.03402,0.29022000000000003,-0.21462000000000003,23.5,1,860,512,711,2349,33.45265625,16821,25.240967132515408,1013.7132461621779,0,,,,N/A,False
2024-04-02T10:21:48,1.2891331757499997,-0.11006983959999998,9.80159957525,0.04673119072214818,-0.005192354524683131,-0.03436116964863837,0.032900000000000006,0.29890000000000005,-0.22036,23.5,1,860,512,711,2349,33.5934765625,17666,25.158583276707432,1013.7214576318395,0,,,,N/A,False
2024-04-02T10:21:48,1.4997015645499998,-0.16151552549999998,9.877571692799998,0.04673119072214818,-0.0035124751196385882,-0.03695734691097993,0.028700000000000003,0.29806,-0.20328000000000002,23.5,1,860,512,711,2349,33.5934765625,17666,25.158583276707432,1013.7214576318395,0,,,,N/A,False
2024-04-02T10:21:48,1.3423734785999997,-0.12981062605,9.803394192199999,0.0433714319120591,0.002138028333693054,-0.03756821214917795,0.034300000000000004,0.28798,-0.21700000000000003,23.5,1,860,512,711,2349,33.5934765625,17666,25.158583276707432,1013.7214576318395,0,,,,N/A,False
2024-04-02T10:21:48,1.3896317249499999,-0.14297115034999996,9.8249295956,0.041691552507014555,-0.0019853120241435504,-0.04092797095926703,0.03234,0.30142,-0.20678000000000002,23.5,1,860,512,711,2349,33.716328125,18568,25.07481579460368,1013.7218844445441,0,,,,N/A,False
2024-04-02T10:21:49,1.3824532571500001,-0.13220344865,10.03848901265,0.04581489286485116,-0.0027488935718910697,-0.039858956792420505,0.030100000000000002,0.29498,-0.2093,23.5,1,860,512,711,2349,33.716328125,18568,25.07481579460368,1013.7218844445441,0,,,,N/A,False
2024-04-02T10:21:49,1.2687941836499999,-0.16689937635,9.821938567349997,0.04474587869800463,-0.007788531787024696,-0.038942658935123484,0.025340000000000005,0.30142,-0.20692000000000002,23.5,1,860,512,711,2349,33.716328125,18568,25.07481579460368,1013.7218844445441,0,,,,N/A,False
2024-04-02T10:21:49,1.38723890235,-0.14895320685,9.89970530185,0.04948008429403925,-0.0013744467859455349,-0.04276056667386108,0.026740000000000003,0.29806,-0.2023,23.5,1,860,512,711,2349,33.8231640625,19317,24.978856146857698,1013.7285681597515,0,,,,N/A,False
2024-04-02T10:21:49,1.3196416639,-0.19322042494999997,9.75135030065,0.04642575810304917,-0.008704829644321718,-0.04230241774521256,0.032060000000000005,0.29778000000000004,-0.20692000000000002,23.5,1,860,512,711,2349,33.8231640625,19317,24.978856146857698,1013.7285681597515,0,,,,N/A,False
2024-04-02T10:21:49,1.3842478741,-0.12263215824999998,9.883553749299999,0.04505131131710364,-0.003054326190990077,-0.03741549583962844,0.03318,0.29498,-0.20692000000000002,23.5,1,859,512,711,2347,33.8231640625,19317,24.978856146857698,1013.7285681597515,0,,,,N/A,False
2024-04-02T10:21:49,1.32263269215,-0.17288143285000002,9.839286531199999,0.04489859500755413,-0.007330382858376185,-0.03726277953007894,0.02058,0.29526,-0.20734000000000002,23.5,1,859,512,711,2347,33.917890625,20070,24.898435839905886,1013.7316713704716,0,,,,N/A,False
2024-04-02T10:21:49,1.30468652265,-0.10947163395000001,9.7567341515,0.04321871560250959,0.0,-0.04214970143566306,0.030380000000000004,0.29862,-0.21224,23.5,1,859,512,711,2347,33.917890625,20070,24.898435839905886,1013.7316713704716,0,,,,N/A,False
2024-04-02T10:21:49,1.3316057768999998,-0.1387837108,9.953543810349998,0.041691552507014555,-0.007788531787024696,-0.03802636107782646,0.03374,0.29918,-0.19992000000000001,23.5,1,859,512,711,2347,33.917890625,20070,24.898435839905886,1013.7316713704716,0,,,,N/A,False
2024-04-02T10:21:49,1.3794622288999998,-0.13339985995,9.888339394499999,0.04474587869800463,-0.0027488935718910697,-0.040622538340168025,0.030380000000000004,0.28574,-0.21602000000000002,23.5,1,859,512,711,2347,34.0016796875,20823,24.817192806345787,1013.724097003152,0,,,,N/A,False
2024-04-02T10:21:49,1.3351950108,-0.12562318649999998,9.85304526115,0.041080687268816536,0.0027488935718910697,-0.038179077387375956,0.035980000000000005,0.30226000000000003,-0.21112000000000003,23.5,1,859,512,711,2347,34.0016796875,20823,24.817192806345787,1013.724097003152,0,,,,N/A,False
2024-04-02T10:21:49,1.3842478741,-0.1280160091,9.890732217099998,0.04612032548395016,-0.004123340357836604,-0.0355829001250344,0.025900000000000003,0.29974,-0.2079,23.5,1,859,512,711,2347,34.0016796875,20823,24.817192806345787,1013.724097003152,0,,,,N/A,False
2024-04-02T10:21:49,1.25204442545,-0.11425727914999999,9.794421107449999,0.04291328298341058,0.002901609881440573,-0.038789942625573975,0.029820000000000003,0.29638000000000003,-0.21042000000000002,23.5,1,859,512,711,2347,34.0751171875,21701,24.73517771528554,1013.714030709866,0,,,,N/A,False
2024-04-02T10:21:49,1.3980066040499999,-0.1351944769,9.83509909165,0.043676864531158106,-0.0016798794050445422,-0.039858956792420505,0.04018000000000001,0.30226000000000003,-0.20174,23.5,1,859,512,711,2347,34.0751171875,21701,24.73517771528554,1013.714030709866,0,,,,N/A,False
2024-04-02T10:21:49,1.3962119870999998,-0.11724830739999999,9.850652438549998,0.04321871560250959,-0.0009162978572970231,-0.07620543846520243,0.034300000000000004,0.28742,-0.19362000000000001,23.5,1,859,512,711,2347,34.0751171875,21701,24.73517771528554,1013.714030709866,0,,,,N/A,False
2024-04-02T10:21:49,1.3220344865,-0.1734796385,9.825527801249999,0.04260785036431157,-0.00916297857297023,-0.038331793696925465,0.027860000000000003,0.29946000000000006,-0.21896000000000002,23.5,1,859,512,711,2347,34.141328125,22488,24.636212799910506,1013.7119993153185,0,,,,N/A,False
2024-04-02T10:21:49,1.3381860390499998,-0.12562318649999998,9.92841917305,0.0474947722698957,-0.0036651914291880926,-0.03588833274413341,0.01974,0.2947000000000001,-0.20804000000000003,23.5,1,859,512,711,2347,34.141328125,22488,24.636212799910506,1013.7119993153185,0,,,,N/A,False
2024-04-02T10:21:49,1.31545422435,-0.15373885204999999,9.8093762487,0.0435241482216086,0.0019853120241435504,-0.038637226316024474,0.03262,0.29638000000000003,-0.21700000000000003,23.5,0,858,511,710,2346,34.141328125,22488,24.636212799910506,1013.7119993153185,0,,,,N/A,False
2024-04-02T10:21:49,1.4129617452999998,-0.15553346899999998,9.95593663295,0.04382958084070761,0.007177666548826681,-0.03772092845872745,0.030380000000000004,0.29806,-0.20118,23.5,0,858,511,710,2346,34.1993359375,23180,24.55308039868021,1013.7128070764163,0,,,,N/A,False
2024-04-02T10:21:50,1.25683007065,-0.14117653339999997,9.732805925500001,0.04016438941151951,-0.001069014166846527,-0.039553524173321496,0.033460000000000004,0.30058,-0.20874,23.5,0,858,511,710,2346,34.1993359375,23180,24.55308039868021,1013.7128070764163,0,,,,N/A,False
2024-04-02T10:21:50,1.3507483577,-0.14775679555,9.846464998999998,0.04092797095926703,-0.007483099167925688,-0.03726277953007894,0.02758,0.29554,-0.21252000000000001,23.5,0,858,511,710,2346,34.1993359375,23180,24.55308039868021,1013.7128070764163,0,,,,N/A,False
2024-04-02T10:21:50,1.3549357972499998,-0.1328016543,9.84227755945,0.038331793696925465,-0.0007635815477475193,-0.04016438941151951,0.030380000000000004,0.29358000000000006,-0.20944000000000002,23.5,0,858,511,710,2346,34.252265625,23913,24.464124561092504,1013.7125338393837,0,,,,N/A,False
2024-04-02T10:21:50,1.3645070876499998,-0.09631110964999999,9.812965482600001,0.04489859500755413,-0.0003054326190990077,-0.04077525464971753,0.024220000000000002,0.30506,-0.19866000000000003,23.5,0,858,511,710,2346,34.252265625,23913,24.464124561092504,1013.7125338393837,0,,,,N/A,False
2024-04-02T10:21:50,1.3902299305999999,-0.15972090854999998,9.8739824589,0.04260785036431157,-0.007330382858376185,-0.038484510006474966,0.02926,0.29610000000000003,-0.20860000000000004,23.5,0,858,511,710,2346,34.252265625,23913,24.464124561092504,1013.7125338393837,0,,,,N/A,False
2024-04-02T10:21:50,1.3345968051500001,-0.12981062605,9.774680320999998,0.039706240482871004,-0.007788531787024696,-0.04092797095926703,0.025060000000000002,0.28966000000000003,-0.21336000000000002,23.5,0,858,511,710,2346,34.301484375,24725,24.3749260599309,1013.7134142878392,0,,,,N/A,False
2024-04-02T10:21:50,1.3220344865,-0.14955141249999998,9.90209812445,0.04413501345980661,-0.0003054326190990077,-0.038942658935123484,0.039900000000000005,0.29890000000000005,-0.20846,23.5,0,858,511,710,2346,34.301484375,24725,24.3749260599309,1013.7134142878392,0,,,,N/A,False
2024-04-02T10:21:50,1.3561322085499998,-0.15014961815,9.8500542329,0.04306599929296009,0.0056505034533316425,-0.03604104905368291,0.03234,0.30142,-0.21126000000000003,23.5,0,858,511,710,2346,34.301484375,24725,24.3749260599309,1013.7134142878392,0,,,,N/A,False
2024-04-02T10:21:50,1.33938245035,-0.16689937635,9.87697348715,0.041691552507014555,-0.0070249502392771765,-0.03481931857728687,0.02758,0.29554,-0.19782000000000002,23.5,0,858,511,710,2346,34.3458203125,25272,24.290860995778942,1013.7099271516967,0,,,,N/A,False
2024-04-02T10:21:50,1.4105689226999998,-0.11605189609999998,9.878169898449999,0.04428772976935611,0.0015271630954950385,-0.040622538340168025,0.02758,0.29862,-0.18844000000000002,23.5,0,858,511,710,2346,34.3458203125,25272,24.290860995778942,1013.7099271516967,0,,,,N/A,False
2024-04-02T10:21:50,1.3908281362499997,-0.15613167464999997,9.92004429395,0.043982297150257116,-0.008552113334772215,-0.04077525464971753,0.033460000000000004,0.30254000000000003,-0.20958000000000002,23.5,0,860,512,711,2348,34.3458203125,25272,24.290860995778942,1013.7099271516967,0,,,,N/A,False
2024-04-02T10:21:50,1.3591232368,-0.107677017,9.921240705249998,0.04489859500755413,-0.0035124751196385882,-0.03741549583962844,0.026740000000000003,0.29526,-0.19852,23.5,0,860,512,711,2348,34.38703125,25988,24.20113737013286,1013.7103607792939,0,,,,N/A,False
2024-04-02T10:21:50,1.3375878333999998,-0.1746760498,9.883553749299999,0.04016438941151951,0.0016798794050445422,-0.03634648167278191,0.03318,0.28994000000000003,-0.20888,23.5,0,860,512,711,2348,34.38703125,25988,24.20113737013286,1013.7103607792939,0,,,,N/A,False
2024-04-02T10:21:50,1.3740783780499999,-0.09511469834999998,9.898508890549998,0.04260785036431157,-0.00045814892864851157,-0.03527746750593539,0.023100000000000002,0.29862,-0.1974,23.5,0,860,512,711,2348,34.38703125,25988,24.20113737013286,1013.7103607792939,0,,,,N/A,False
2024-04-02T10:21:50,1.3232308977999998,-0.1639083481,9.8668039911,0.038484510006474966,-0.005039638215133627,-0.04046982203061852,0.03178,0.29442,-0.19446000000000002,23.5,0,860,512,711,2348,34.4258984375,26627,24.133107567648427,1013.7177984966518,0,,,,N/A,False
2024-04-02T10:21:50,1.3244273091,-0.17228322719999997,9.8189475391,0.043982297150257116,-0.006566801310628666,-0.038331793696925465,0.027860000000000003,0.29834000000000005,-0.20272000000000004,23.5,0,860,512,711,2348,34.4258984375,26627,24.133107567648427,1013.7177984966518,0,,,,N/A,False
2024-04-02T10:21:51,1.2346964615999998,-0.11665010174999998,9.9146604431,0.04627304179349966,-0.0009162978572970231,-0.036804630601430424,0.027860000000000003,0.2933,-0.20272000000000004,23.5,0,860,512,711,2348,34.4258984375,26627,24.133107567648427,1013.7177984966518,0,,,,N/A,False
2024-04-02T10:21:51,1.2604193045499996,-0.14237294469999998,9.7567341515,0.048716502746291725,-0.0070249502392771765,-0.039400807863771994,0.02842,0.29134000000000004,-0.19600000000000004,23.5,0,860,512,711,2348,34.462421875,27315,24.04310789341362,1013.7177936826786,0,,,,N/A,False
2024-04-02T10:21:51,1.36091785375,-0.11724830739999999,9.83150985775,0.04612032548395016,-0.005345070834232635,-0.041080687268816536,0.033460000000000004,0.29722000000000004,-0.19950000000000004,23.5,0,860,512,711,2348,34.462421875,27315,24.04310789341362,1013.7177936826786,0,,,,N/A,False
2024-04-02T10:21:51,1.43150612045,-0.13339985995,9.869196813699999,0.041080687268816536,-0.007635815477475193,-0.03802636107782646,0.023100000000000002,0.29442,-0.20636000000000002,23.5,0,860,512,711,2348,34.462421875,27315,24.04310789341362,1013.7177936826786,0,,,,N/A,False
2024-04-02T10:21:51,1.3328021881999996,-0.12382856954999999,9.76331441365,0.04474587869800463,-0.0012217304763960308,-0.03543018381548489,0.023660000000000004,0.29414000000000007,-0.20132000000000003,23.5,0,860,512,711,2348,34.4973828125,27967,23.969390033619835,1013.7098147304279,0,,,,N/A,False
2024-04-02T10:21:51,1.3100703735,-0.1112662509,9.91286582615,0.04444044607890562,-0.0007635815477475193,-0.038331793696925465,0.03374,0.29862,-0.19600000000000004,23.5,0,860,512,711,2348,34.4973828125,27967,23.969390033619835,1013.7098147304279,0,,,,N/A,False
2024-04-02T10:21:51,1.3423734785999997,-0.12981062605,9.9601240725,0.04917465167494024,-0.005345070834232635,-0.041844268816564056,0.032060000000000005,0.29974,-0.20482000000000003,23.5,0,860,512,711,2348,34.4973828125,27967,23.969390033619835,1013.7098147304279,0,,,,N/A,False
2024-04-02T10:21:51,1.3196416639,-0.1483550012,9.776474937949999,0.04413501345980661,0.001069014166846527,-0.038331793696925465,0.03514,0.29442,-0.19950000000000004,23.5,0,860,512,711,2348,34.5305859375,28534,23.890121626279832,1013.7134119932227,0,,,,N/A,False
2024-04-02T10:21:51,1.3746765837,-0.16749758199999998,9.984052298499998,0.049021935365390734,-0.006108652381980154,-0.03726277953007894,0.027020000000000002,0.2947000000000001,-0.20902,23.5,0,860,512,711,2348,34.5305859375,28534,23.890121626279832,1013.7134119932227,0,,,,N/A,False
2024-04-02T10:21:51,1.3052847283,-0.12861421474999998,9.89731247925,0.0435241482216086,-0.0027488935718910697,-0.036804630601430424,0.027860000000000003,0.29610000000000003,-0.1932,23.5,0,860,512,711,2348,34.5305859375,28534,23.890121626279832,1013.7134119932227,0,,,,N/A,False
2024-04-02T10:21:51,1.3770694062999997,-0.12741780345,9.948159959499998,0.04321871560250959,-0.0013744467859455349,-0.0006108652381980154,0.030380000000000004,0.2975,-0.20986000000000002,23.5,0,860,512,711,2348,34.56359375,29144,23.799982909899448,1013.7275243756644,0,,,,N/A,False
2024-04-02T10:21:51,1.3674981158999997,-0.15613167464999997,9.91286582615,0.04642575810304917,-0.0022907446432425577,-0.038331793696925465,0.030100000000000002,0.29890000000000005,-0.2121,23.5,0,860,512,711,2348,34.56359375,29144,23.799982909899448,1013.7275243756644,0,,,,N/A,False
2024-04-02T10:21:51,1.3764712006499997,-0.12741780345,9.8739824589,0.041844268816564056,-0.002138028333693054,-0.03588833274413341,0.03262,0.29582,-0.20608,23.5,0,860,512,711,2348,34.56359375,29144,23.799982909899448,1013.7275243756644,0,,,,N/A,False
2024-04-02T10:21:51,1.3082757565499998,-0.17288143285000002,9.9290173787,0.04413501345980661,-0.005803219762881146,-0.039858956792420505,0.026180000000000002,0.30002000000000006,-0.20482000000000003,23.5,0,860,512,711,2348,34.593671875,29718,23.71511641702366,1013.7314341493338,0,,,,N/A,False
2024-04-02T10:21:51,1.2813565023,-0.15373885204999999,9.8680004024,0.0433714319120591,-0.008704829644321718,-0.03726277953007894,0.025340000000000005,0.30422000000000005,-0.20132000000000003,23.5,0,860,512,711,2348,34.593671875,29718,23.71511641702366,1013.7314341493338,0,,,,N/A,False
2024-04-02T10:21:51,1.33698962775,-0.12622139215,9.95115098775,0.041996985126113565,0.0,-0.03741549583962844,0.0315,0.29806,-0.19642,23.5,0,860,512,711,2348,34.593671875,29718,23.71511641702366,1013.7314341493338,0,,,,N/A,False
2024-04-02T10:21:51,1.3764712006499997,-0.16331014244999997,9.898508890549998,0.0435241482216086,-0.002901609881440573,-0.04046982203061852,0.025340000000000005,0.29526,-0.19754000000000002,23.5,0,860,512,711,2348,34.6200390625,30207,23.64089655603132,1013.7328993794315,0,,,,N/A,False
2024-04-02T10:21:52,1.3920245475499997,-0.10408778309999998,9.913464031799998,0.043982297150257116,-0.005192354524683131,-0.03787364476827696,0.028700000000000003,0.29358000000000006,-0.20118,23.5,0,858,511,710,2345,34.6200390625,30207,23.64089655603132,1013.7328993794315,0,,,,N/A,False
2024-04-02T10:21:52,1.2927224096499998,-0.16450655374999998,9.7914300792,0.04612032548395016,-0.0033597588100890844,-0.03802636107782646,0.03178,0.29862,-0.18746000000000002,23.5,0,858,511,710,2345,34.6200390625,30207,23.64089655603132,1013.7328993794315,0,,,,N/A,False
2024-04-02T10:21:52,1.3651052932999999,-0.1447657673,9.963115100749999,0.04596760917440065,-0.006719517620178169,-0.043676864531158106,0.02562,0.30002000000000006,-0.21182,23.5,0,858,511,710,2345,34.6426953125,30847,23.571872263123325,1013.7319210885227,0,,,,N/A,False
2024-04-02T10:21:52,1.3076775508999998,-0.1304088317,9.843473970749999,0.04596760917440065,-0.0056505034533316425,-0.041386119887915546,0.026180000000000002,0.29946000000000006,-0.19628000000000004,23.5,0,858,511,710,2345,34.6426953125,30847,23.571872263123325,1013.7319210885227,0,,,,N/A,False
2024-04-02T10:21:52,1.38364966845,-0.12323036389999999,9.96670433465,0.04153883619746505,-0.0036651914291880926,-0.039095375244672985,0.020020000000000003,0.29610000000000003,-0.19684000000000004,23.5,0,858,511,710,2345,34.6426953125,30847,23.571872263123325,1013.7319210885227,0,,,,N/A,False
2024-04-02T10:21:52,1.3208380751999997,-0.12981062605,9.82911703515,0.040317105721069016,0.0024434609527920616,-0.036499197982331415,0.023940000000000003,0.28854,-0.20608,23.5,0,858,511,710,2345,34.6626171875,31374,23.491806720552056,1013.7337065920735,0,,,,N/A,False
2024-04-02T10:21:52,1.3722837611,-0.15852449724999998,9.880562721050001,0.041691552507014555,-0.0027488935718910697,-0.039400807863771994,0.025340000000000005,0.30310000000000004,-0.20468,23.5,0,858,511,710,2345,34.6626171875,31374,23.491806720552056,1013.7337065920735,0,,,,N/A,False
2024-04-02T10:21:52,1.3262219260499999,-0.1304088317,9.792626490499998,0.041386119887915546,-0.00473420559603462,-0.04092797095926703,0.0315,0.29974,-0.20692000000000002,23.5,0,858,511,710,2345,34.6626171875,31374,23.491806720552056,1013.7337065920735,0,,,,N/A,False
2024-04-02T10:21:52,1.37288196675,-0.1806581063,9.942177903,0.04642575810304917,-0.0009162978572970231,-0.03512475119638588,0.02758,0.29778000000000004,-0.20958000000000002,23.5,0,858,511,710,2345,34.6815625,31799,23.422572676289402,1013.7357041108385,0,,,,N/A,False
2024-04-02T10:21:52,1.3591232368,-0.11365907349999999,9.98704332675,0.04260785036431157,-0.004276056667386108,-0.03802636107782646,0.029540000000000004,0.30590000000000006,-0.2009,23.5,0,858,511,710,2345,34.6815625,31799,23.422572676289402,1013.7357041108385,0,,,,N/A,False
2024-04-02T10:21:52,1.37288196675,-0.11784651304999999,9.87577707585,0.04306599929296009,-0.0007635815477475193,-0.03726277953007894,0.023940000000000003,0.30394000000000004,-0.19712000000000002,23.5,0,858,511,710,2345,34.6815625,31799,23.422572676289402,1013.7357041108385,0,,,,N/A,False
2024-04-02T10:21:52,1.3645070876499998,-0.19441683624999997,9.905687358349997,0.039706240482871004,-0.007330382858376185,-0.04092797095926703,0.0315,0.29526,-0.20958000000000002,23.5,0,858,511,710,2345,34.7012890625,32335,23.337139828971264,1013.7407812706276,0,,,,N/A,False
2024-04-02T10:21:52,1.3004990831,-0.14297115034999996,9.873384253249998,0.04077525464971753,-0.0038179077387375964,-0.03726277953007894,0.033460000000000004,0.3003,-0.21196,23.5,1,859,511,710,2345,34.7012890625,32335,23.337139828971264,1013.7407812706276,0,,,,N/A,False
2024-04-02T10:21:52,1.3052847283,-0.09332008139999999,9.890732217099998,0.04245513405476207,0.0038179077387375964,-0.041386119887915546,0.025060000000000002,0.29890000000000005,-0.21238,23.5,1,859,511,710,2345,34.7012890625,32335,23.337139828971264,1013.7407812706276,0,,,,N/A,False
2024-04-02T10:21:52,1.3561322085499998,-0.15553346899999998,9.981061270249999,0.04428772976935611,-0.005192354524683131,-0.03665191429188092,0.034300000000000004,0.29890000000000005,-0.21000000000000002,23.5,1,859,511,710,2345,34.723359375,32941,23.26277546311841,1013.742452650476,0,,,,N/A,False
2024-04-02T10:21:52,1.3316057768999998,-0.14177473905,9.87218784195,0.0433714319120591,-0.010842857978014774,-0.04001167310197001,0.03234,0.30058,-0.21042000000000002,23.5,1,859,511,710,2345,34.723359375,32941,23.26277546311841,1013.742452650476,0,,,,N/A,False
2024-04-02T10:21:53,1.3016954943999999,-0.12741780345,9.780064171849999,0.04520402762665314,0.0018325957145940463,-0.038179077387375956,0.03262,0.29694000000000004,-0.21364000000000002,23.5,1,859,511,710,2345,34.723359375,32941,23.26277546311841,1013.742452650476,0,,,,N/A,False
2024-04-02T10:21:53,1.3028919057,-0.16749758199999998,9.809974454349998,0.04444044607890562,-0.01756237559819294,-0.04153883619746505,0.03262,0.30506,-0.20538000000000003,23.5,1,859,511,710,2345,34.7458203125,33436,23.193896455263516,1013.7375314485226,0,,,,N/A,False
2024-04-02T10:21:53,1.39441737015,-0.14536397295,9.96670433465,0.041080687268816536,0.0003054326190990077,-0.03665191429188092,0.02562,0.29610000000000003,-0.21322000000000002,23.5,1,859,511,710,2345,34.7458203125,33436,23.193896455263516,1013.7375314485226,0,,,,N/A,False
2024-04-02T10:21:53,1.32741833735,-0.12622139215,9.8380901199,0.04382958084070761,-0.0016798794050445422,-0.03588833274413341,0.02254,0.29834000000000005,-0.20146,23.5,1,859,511,710,2345,34.7458203125,33436,23.193896455263516,1013.7375314485226,0,,,,N/A,False
2024-04-02T10:21:53,1.4147563622499997,-0.13100703735,9.9828558872,0.04657847441259867,-0.0024434609527920616,-0.039095375244672985,0.03234,0.29246000000000005,-0.20104000000000002,23.5,1,859,511,710,2345,34.769453125,33947,23.12513113711752,1013.7399399167273,0,,,,N/A,False
2024-04-02T10:21:53,1.423729447,-0.11006983959999998,9.981659475899999,0.04505131131710364,-0.004123340357836604,-0.038942658935123484,0.0315,0.30142,-0.21966000000000002,23.5,1,859,511,710,2345,34.769453125,33947,23.12513113711752,1013.7399399167273,0,,,,N/A,False
2024-04-02T10:21:53,1.32023986955,-0.1268195978,9.8273224182,0.04260785036431157,0.0038179077387375964,-0.041080687268816536,0.028980000000000002,0.2933,-0.22764,23.5,1,859,511,710,2345,34.769453125,33947,23.12513113711752,1013.7399399167273,0,,,,N/A,False
2024-04-02T10:21:53,1.32502551475,-0.1806581063,9.93799046345,0.04413501345980661,-0.006261368691529657,-0.039706240482871004,0.034300000000000004,0.29890000000000005,-0.22386,23.5,1,859,511,710,2345,34.7930859375,34361,23.06723057701937,1013.7405389697363,0,,,,N/A,False
2024-04-02T10:21:53,1.3166506356499998,-0.13579268255,9.81356368825,0.039095375244672985,-0.008093964406123704,-0.03756821214917795,0.027020000000000002,0.29582,-0.21196,23.5,1,860,512,710,2347,34.7930859375,34361,23.06723057701937,1013.7405389697363,0,,,,N/A,False
2024-04-02T10:21:53,1.3800604345499998,-0.13339985995,9.954142015999999,0.04382958084070761,0.003970624048287101,-0.03604104905368291,0.0315,0.29890000000000005,-0.20706000000000002,23.5,1,860,512,710,2347,34.7930859375,34361,23.06723057701937,1013.7405389697363,0,,,,N/A,False
2024-04-02T10:21:53,1.3381860390499998,-0.15433705769999997,10.010971552749998,0.04046982203061852,-0.007788531787024696,-0.041844268816564056,0.02926,0.30478000000000005,-0.21952000000000002,23.5,1,860,512,710,2347,34.8157421875,34786,22.982198981485197,1013.7413498679056,0,,,,N/A,False
2024-04-02T10:21:53,1.3471591237999998,-0.13758729949999998,9.884750160599998,0.04581489286485116,0.0036651914291880926,-0.038789942625573975,0.026180000000000002,0.29246000000000005,-0.21196,23.5,1,860,512,710,2347,34.8157421875,34786,22.982198981485197,1013.7413498679056,0,,,,N/A,False
2024-04-02T10:21:53,1.3627124707,-0.1734796385,9.8632147572,0.04428772976935611,-0.002901609881440573,-0.038942658935123484,0.0371,0.29246000000000005,-0.20426000000000002,23.5,1,860,512,710,2347,34.8157421875,34786,22.982198981485197,1013.7413498679056,0,,,,N/A,False
2024-04-02T10:21:53,1.3860424910499998,-0.09870393224999999,9.855438083749998,0.04673119072214818,-0.0025961772623415654,-0.03604104905368291,0.037380000000000004,0.2933,-0.21742,23.5,1,860,512,710,2347,34.8391796875,35368,22.924332905261657,1013.7362039883296,0,,,,N/A,False
2024-04-02T10:21:53,1.3280165429999997,-0.15732808594999997,9.88415195495,0.04673119072214818,-0.0003054326190990077,-0.03665191429188092,0.02758,0.30506,-0.21140000000000003,23.5,1,860,512,710,2347,34.8391796875,35368,22.924332905261657,1013.7362039883296,0,,,,N/A,False
2024-04-02T10:21:53,1.3884353136499998,-0.16570296504999998,9.8919286284,0.043982297150257116,-0.011759155835311796,-0.038789942625573975,0.03234,0.3017,-0.22036,23.5,1,860,512,710,2347,34.8391796875,35368,22.924332905261657,1013.7362039883296,0,,,,N/A,False
2024-04-02T10:21:53,1.4213366244,-0.1339980656,9.932606612599997,0.04612032548395016,0.0056505034533316425,-0.03756821214917795,0.02926,0.30394000000000004,-0.20902,23.5,1,860,512,710,2347,34.8602734375,35727,22.855495355105354,1013.7344617899784,0,,,,N/A,False
2024-04-02T10:21:54,1.3591232368,-0.11066804524999999,9.94875816515,0.0435241482216086,0.0024434609527920616,-0.039858956792420505,0.03682,0.30086,-0.20776000000000003,23.5,1,860,512,710,2347,34.8602734375,35727,22.855495355105354,1013.7344617899784,0,,,,N/A,False
2024-04-02T10:21:54,1.38364966845,-0.12622139215,9.940981491699999,0.04291328298341058,-0.0009162978572970231,-0.03741549583962844,0.026180000000000002,0.29974,-0.20916,23.5,1,860,512,710,2347,34.8602734375,35727,22.855495355105354,1013.7344617899784,0,,,,N/A,False
2024-04-02T10:21:54,1.34416809555,-0.14955141249999998,9.830313446449999,0.04978551691313826,-0.009621127501618741,-0.038789942625573975,0.035980000000000005,0.30114,-0.21588000000000002,23.5,1,859,511,709,2343,34.88,36311,22.791997117818518,1013.7341023564783,0,,,,N/A,False
2024-04-02T10:21:54,1.39681019275,-0.10468598874999999,9.939186874749998,0.04046982203061852,-0.004581489286485115,-0.03665191429188092,0.03374,0.30254000000000003,-0.21112000000000003,23.5,1,859,511,709,2343,34.88,36311,22.791997117818518,1013.7341023564783,0,,,,N/A,False
2024-04-02T10:21:54,1.3136596073999998,-0.12323036389999999,9.887142983199999,0.04780020488899471,-0.005192354524683131,-0.03283400655314333,0.041580000000000006,0.30254000000000003,-0.2044,23.5,1,859,511,709,2343,34.88,36311,22.791997117818518,1013.7341023564783,0,,,,N/A,False
2024-04-02T10:21:54,1.3286147486499997,-0.17288143285000002,9.954142015999999,0.04260785036431157,-0.0056505034533316425,-0.036804630601430424,0.03486000000000001,0.30002000000000006,-0.21784000000000003,23.5,1,859,511,709,2343,34.8989453125,36658,22.72846762545114,1013.7396963763501,0,,,,N/A,False
2024-04-02T10:21:54,1.31306140175,-0.15553346899999998,9.873384253249998,0.04596760917440065,-0.007788531787024696,-0.038789942625573975,0.04242,0.29246000000000005,-0.21350000000000002,23.5,1,859,511,709,2343,34.8989453125,36658,22.72846762545114,1013.7396963763501,0,,,,N/A,False
2024-04-02T10:21:54,1.4985051532499998,-0.13579268255,9.892526834049999,0.04306599929296009,0.003054326190990077,-0.04016438941151951,0.03178,0.30282000000000003,-0.21378000000000003,23.5,1,859,511,709,2343,34.8989453125,36658,22.72846762545114,1013.7396963763501,0,,,,N/A,False
2024-04-02T10:21:54,1.3938191645,-0.13818550515,9.911669414849998,0.04245513405476207,-0.008552113334772215,-0.04016438941151951,0.03234,0.30226000000000003,-0.21742,23.5,1,859,511,709,2343,34.9175,37109,22.664935161779805,1013.7338078000148,0,,,,N/A,False
2024-04-02T10:21:54,1.2969098491999997,-0.17766707805,9.8201439504,0.04230241774521256,-0.006566801310628666,-0.040317105721069016,0.03374,0.29862,-0.21238,23.5,1,859,511,709,2343,34.9175,37109,22.664935161779805,1013.7338078000148,0,,,,N/A,False
2024-04-02T10:21:54,1.3363914221,-0.13938191645,9.8261260069,0.0435241482216086,-0.0013744467859455349,-0.039400807863771994,0.029820000000000003,0.29638000000000003,-0.19656000000000004,23.5,1,859,511,709,2343,34.9175,37109,22.664935161779805,1013.7338078000148,0,,,,N/A,False
2024-04-02T10:21:54,1.3459627125,-0.14057832774999998,9.9110712092,0.04291328298341058,-0.0009162978572970231,-0.03695734691097993,0.025900000000000003,0.29554,-0.21336000000000002,23.5,1,859,511,709,2343,34.9364453125,37504,22.601455583655145,1013.7339765967455,0,,,,N/A,False
2024-04-02T10:21:54,1.3082757565499998,-0.11665010174999998,9.82792062385,0.04703662334124718,-0.0056505034533316425,-0.038484510006474966,0.03262,0.29946000000000006,-0.20888,23.5,1,859,511,709,2343,34.9364453125,37504,22.601455583655145,1013.7339765967455,0,,,,N/A,False
2024-04-02T10:21:54,1.2610175101999996,-0.16570296504999998,9.8500542329,0.039400807863771994,-0.005803219762881146,-0.03695734691097993,0.030380000000000004,0.29498,-0.21000000000000002,23.5,1,859,511,709,2343,34.9364453125,37504,22.601455583655145,1013.7339765967455,0,,,,N/A,False
2024-04-02T10:21:54,1.30947216785,-0.1304088317,9.896714273599999,0.04535674393620265,0.0036651914291880926,-0.038789942625573975,0.0315,0.29918,-0.21518,23.5,1,859,511,709,2345,34.9551953125,37840,22.543386224562212,1013.7302103134845,0,,,,N/A,False
2024-04-02T10:21:54,1.2945170265999997,-0.1052841944,9.90329453575,0.043982297150257116,-0.003970624048287101,-0.041080687268816536,0.0357,0.28714000000000006,-0.20538000000000003,23.5,1,859,511,709,2345,34.9551953125,37840,22.543386224562212,1013.7302103134845,0,,,,N/A,False
2024-04-02T10:21:54,1.3262219260499999,-0.15134602945,9.839884736850001,0.04382958084070761,-0.005803219762881146,-0.03924809155422249,0.032060000000000005,0.3003,-0.20986000000000002,23.5,1,859,511,709,2345,34.9551953125,37840,22.543386224562212,1013.7302103134845,0,,,,N/A,False
2024-04-02T10:21:55,1.3782658175999998,-0.11545369045,9.991230766299998,0.038637226316024474,-0.0022907446432425577,-0.03802636107782646,0.029820000000000003,0.29526,-0.21490000000000004,23.5,1,859,511,709,2345,34.971796875,38672,22.485184954705204,1013.7229389318335,0,,,,N/A,False
2024-04-02T10:21:55,1.3884353136499998,-0.1459621786,9.939186874749998,0.04123340357836604,-0.0015271630954950385,-0.03497203488683638,0.03402,0.29358000000000006,-0.22008000000000003,23.5,1,859,511,709,2345,34.971796875,38672,22.485184954705204,1013.7229389318335,0,,,,N/A,False
2024-04-02T10:21:55,1.3040883169999997,-0.1052841944,9.82792062385,0.041996985126113565,-0.004123340357836604,-0.03634648167278191,0.026180000000000002,0.30198,-0.21336000000000002,23.5,1,859,511,709,2345,34.971796875,38672,22.485184954705204,1013.7229389318335,0,,,,N/A,False
2024-04-02T10:21:55,1.3076775508999998,-0.11665010174999998,9.9756774194,0.04489859500755413,0.00045814892864851157,-0.04291328298341058,0.026740000000000003,0.29610000000000003,-0.20776000000000003,23.5,1,859,511,709,2345,34.9887890625,39029,22.42163762796527,1013.7235331519336,0,,,,N/A,False
2024-04-02T10:21:55,1.3028919057,-0.13698909385,9.8452685877,0.04291328298341058,-0.0024434609527920616,-0.039858956792420505,0.030380000000000004,0.30366000000000004,-0.20902,23.5,1,859,511,709,2345,34.9887890625,39029,22.42163762796527,1013.7235331519336,0,,,,N/A,False
2024-04-02T10:21:55,1.3740783780499999,-0.3002992363,9.909276592249999,0.04444044607890562,-0.011301006906663285,-0.039858956792420505,0.03318,0.29974,-0.22050000000000003,23.5,1,859,511,709,2345,34.9887890625,39029,22.42163762796527,1013.7235331519336,0,,,,N/A,False
2024-04-02T10:21:55,1.3507483577,-0.13220344865,9.834500885999999,0.04276056667386108,-0.0033597588100890844,-0.037110063220529434,0.027860000000000003,0.29442,-0.21378000000000003,23.5,1,859,511,709,2345,35.0032421875,39652,22.357936581820642,1013.718178413836,0,,,,N/A,2
2024-04-02T10:21:55,1.3561322085499998,-0.08195417405,9.918249676999999,0.039858956792420505,-0.0036651914291880926,-0.038942658935123484,0.03514,0.29218,-0.21154000000000003,23.5,1,859,511,709,2345,35.0032421875,39652,22.357936581820642,1013.718178413836,0,,,,N/A,2
2024-04-02T10:21:55,1.34536450685,-0.14177473905,9.927820967399999,0.04612032548395016,-0.007483099167925688,-0.039400807863771994,0.025340000000000005,0.29442,-0.21378000000000003,23.5,1,860,511,710,2347,35.019453125,39990,22.305166176752287,1013.713880953318,0,,,,N/A,2
2024-04-02T10:21:55,1.3429716842499997,-0.16510475939999997,9.905089152699999,0.04978551691313826,-0.0009162978572970231,-0.03772092845872745,0.032900000000000006,0.30758,-0.21504,23.5,1,860,511,710,2347,35.019453125,39990,22.305166176752287,1013.713880953318,0,,,,N/A,2
2024-04-02T10:21:55,1.29750805485,-0.1447657673,9.792626490499998,0.04382958084070761,-0.0019853120241435504,-0.038331793696925465,0.029820000000000003,0.29554,-0.21392000000000003,23.5,1,860,511,710,2347,35.019453125,39990,22.305166176752287,1013.713880953318,0,,,,N/A,2
2024-04-02T10:21:55,1.3938191645,-0.20159530404999998,9.9218389109,0.040622538340168025,-0.004581489286485115,-0.038484510006474966,0.03122,0.30254000000000003,-0.21672000000000002,23.5,1,860,511,710,2347,35.03703125,40219,22.257897711170287,1013.7136189304535,0,,,,N/A,2
2024-04-02T10:21:55,1.3417752729499999,-0.09990034354999999,9.910473003549999,0.041080687268816536,0.0019853120241435504,-0.03420845333908886,0.03626000000000001,0.30618,-0.21308000000000002,23.5,1,860,511,710,2347,35.03703125,40219,22.257897711170287,1013.7136189304535,0,,,,N/A,2
2024-04-02T10:21:55,1.3573286198499999,-0.1471585899,9.943374314299998,0.04321871560250959,-0.007635815477475193,-0.036193765363232405,0.02338,0.29834000000000005,-0.22848000000000002,23.5,1,860,511,710,2347,35.03703125,40219,22.257897711170287,1013.7136189304535,0,,,,N/A,2
2024-04-02T10:21:55,1.3423734785999997,-0.11365907349999999,9.9098747979,0.043676864531158106,-0.0035124751196385882,-0.03695734691097993,0.03178,0.29722000000000004,-0.22442,23.5,1,860,511,710,2347,35.054609375,40528,22.20525551119607,1013.7133554812639,0,,,,N/A,2
2024-04-02T10:21:56,1.3788640232499998,-0.1459621786,9.888339394499999,0.043676864531158106,-0.003970624048287101,-0.041386119887915546,0.027300000000000005,0.29246000000000005,-0.21896000000000002,23.5,1,860,511,710,2347,35.054609375,40528,22.20525551119607,1013.7133554812639,0,,,,N/A,2
2024-04-02T10:21:56,1.3651052932999999,-0.09032905315,9.944570725599998,0.04077525464971753,0.0,-0.03436116964863837,0.03514,0.29974,-0.21322000000000002,23.5,1,860,511,710,2347,35.054609375,40528,22.20525551119607,1013.7133554812639,0,,,,N/A,2
2024-04-02T10:21:56,1.2945170265999997,-0.14416756165,9.851250644199999,0.041080687268816536,-0.00473420559603462,-0.03298672286269283,0.032060000000000005,0.30338000000000004,-0.20552,23.5,1,860,511,710,2347,35.0704296875,40762,22.130969297381405,1013.7138402751754,0,,,,N/A,2
2024-04-02T10:21:56,1.2993026717999998,-0.1483550012,9.882357337999998,0.04428772976935611,-0.010995574287564279,-0.038942658935123484,0.03402,0.29862,-0.21266000000000002,23.5,1,860,511,710,2347,35.0704296875,40762,22.130969297381405,1013.7138402751754,0,,,,N/A,2
2024-04-02T10:21:56,1.24366954635,-0.11724830739999999,9.794421107449999,0.050243665841786765,-0.009621127501618741,-0.040317105721069016,0.03374,0.30982000000000004,-0.20272000000000004,23.5,1,858,510,707,2341,35.0704296875,40762,22.130969297381405,1013.7138402751754,0,,,,N/A,2
2024-04-02T10:21:56,1.36091785375,-0.11425727914999999,9.8500542329,0.04673119072214818,0.0015271630954950385,-0.03756821214917795,0.030100000000000002,0.30366000000000004,-0.2212,23.5,1,858,510,707,2341,35.084296875,41647,22.088873752877674,1013.7165631450115,0,,,,N/A,2
2024-04-02T10:21:56,1.3519447689999997,-0.10408778309999998,9.855438083749998,0.04428772976935611,-0.0024434609527920616,-0.039706240482871004,0.03458000000000001,0.2891,-0.21420000000000003,23.5,1,858,510,707,2341,35.084296875,41647,22.088873752877674,1013.7165631450115,0,,,,N/A,2
2024-04-02T10:21:56,1.2861421475,-0.16809578764999997,9.9397850804,0.04413501345980661,-0.00916297857297023,-0.03726277953007894,0.029820000000000003,0.29414000000000007,-0.21826,23.5,1,858,510,707,2341,35.084296875,41647,22.088873752877674,1013.7165631450115,0,,,,N/A,2
2024-04-02T10:21:56,1.32382910345,-0.10827522265,9.92363352785,0.04046982203061852,-0.0012217304763960308,-0.03481931857728687,0.02842,0.30450000000000005,-0.2156,23.5,1,858,510,707,2341,35.09875,42230,22.04682988750288,1013.7166247862667,0,,,,N/A,2
2024-04-02T10:21:56,1.3483555351,-0.11904292434999998,9.88175913235,0.04306599929296009,-0.006566801310628666,-0.039095375244672985,0.030940000000000002,0.30646,-0.22414,23.5,1,858,510,707,2341,35.09875,42230,22.04682988750288,1013.7166247862667,0,,,,N/A,2
2024-04-02T10:21:56,1.3758729949999997,-0.15074782379999999,9.9517491934,0.04001167310197001,-0.004276056667386108,-0.03604104905368291,0.03682,0.29722000000000004,-0.22204000000000002,23.5,1,858,510,707,2341,35.09875,42230,22.04682988750288,1013.7166247862667,0,,,,N/A,2
2024-04-02T10:21:56,1.37527478935,-0.107677017,9.8979106849,0.04459316238845512,0.004123340357836604,-0.039706240482871004,0.03402,0.29610000000000003,-0.22610000000000002,23.5,1,858,510,707,2341,35.1145703125,42314,21.983376133254026,1013.7189144144895,0,,,,N/A,2
2024-04-02T10:21:56,1.3866406966999998,-0.10468598874999999,9.9493563708,0.041691552507014555,-0.0018325957145940463,-0.038331793696925465,0.028980000000000002,0.30254000000000003,-0.17948000000000003,23.5,1,858,510,707,2341,35.1145703125,42314,21.983376133254026,1013.7189144144895,0,,,,N/A,2
2024-04-02T10:21:56,1.2538390423999999,-0.1471585899,9.773483909699998,0.041844268816564056,-0.01069014166846527,-0.03588833274413341,0.037660000000000006,0.29946000000000006,-0.21392000000000003,23.5,1,858,510,707,2341,35.1145703125,42314,21.983376133254026,1013.7189144144895,0,,,,N/A,2
2024-04-02T10:21:56,1.3411770672999999,-0.10947163395000001,9.909276592249999,0.04413501345980661,-0.0033597588100890844,-0.03787364476827696,0.03514,0.29554,-0.21882000000000001,23.5,1,858,510,707,2341,35.13,42699,21.93605054495074,1013.7241820966249,0,,,,N/A,2
2024-04-02T10:21:56,1.31186499045,-0.27816562724999994,9.832706269049998,0.04917465167494024,-0.008093964406123704,-0.041386119887915546,0.030100000000000002,0.29022000000000003,-0.20986000000000002,23.5,1,858,510,708,2343,35.13,42699,21.93605054495074,1013.7241820966249,0,,,,N/A,2
2024-04-02T10:21:56,1.2299108163999999,-0.16211373114999997,9.905687358349997,0.04291328298341058,-0.011759155835311796,-0.03512475119638588,0.035980000000000005,0.29414000000000007,-0.21084000000000003,23.5,0,858,510,708,2343,35.13,42699,21.93605054495074,1013.7241820966249,0,,,,N/A,2
2024-04-02T10:21:57,1.3304093655999998,-0.11784651304999999,9.654440985349998,0.041844268816564056,-0.0016798794050445422,-0.03924809155422249,0.03402,0.30198,-0.21364000000000002,23.5,0,858,510,708,2343,35.1442578125,42570,21.910159212022567,1013.7203064855412,0,,,,N/A,2
2024-04-02T10:21:57,1.3196416639,-0.1459621786,9.894321451,0.04123340357836604,-0.008093964406123704,-0.038637226316024474,0.0315,0.30534000000000006,-0.20958000000000002,23.5,0,858,510,708,2343,35.158125,43224,21.857371888439133,1013.7194090457717,0,,,,N/A,2
2024-04-02T10:21:57,1.2723834175499997,-0.1639083481,9.80877804305,0.04520402762665314,-0.003207042500539581,-0.038789942625573975,0.02842,0.29218,-0.21672000000000002,23.5,0,858,510,708,2343,35.158125,43224,21.857371888439133,1013.7194090457717,0,,,,N/A,2
2024-04-02T10:21:57,1.34895374075,-0.1639083481,9.823733184299998,0.04642575810304917,-0.007330382858376185,-0.04214970143566306,0.03626000000000001,0.28826000000000007,-0.19964,23.5,0,858,510,708,2343,35.158125,43224,21.857371888439133,1013.7194090457717,0,,,,N/A,2
2024-04-02T10:21:57,1.31425781305,-0.13998012209999997,9.81834933345,0.038789942625573975,-0.0007635815477475193,-0.04153883619746505,0.0315,0.29778000000000004,-0.20706000000000002,23.5,0,858,510,708,2343,35.051484375,41853,21.75331983301804,1013.7498384963516,0,,,,N/A,2
2024-04-02T10:21:57,1.3770694062999997,-0.16151552549999998,10.001400262349998,0.04535674393620265,-0.0022907446432425577,-0.04016438941151951,0.03318,0.29778000000000004,-0.20902,23.5,0,858,510,708,2343,35.051484375,41853,21.75331983301804,1013.7498384963516,0,,,,N/A,-1
2024-04-02T10:21:58,1.3256237203999999,-0.11724830739999999,9.839884736850001,0.04718933965079669,-0.002901609881440573,-0.04260785036431157,0.028140000000000005,0.30310000000000004,-0.21084000000000003,24.5,0,856,509,706,2339,34.9548046875,42570,21.73055626901372,1013.736803250888,0,,,,N/A,-1
2024-04-02T10:21:58,1.3184452525999997,-0.14416756165,9.825527801249999,0.043676864531158106,-0.0068722339297276735,-0.03726277953007894,0.03514,0.29638000000000003,-0.20720000000000002,23.5,0,856,509,706,2339,34.9548046875,42570,21.73055626901372,1013.736803250888,0,,,,N/A,-1
2024-04-02T10:21:58,1.38484607975,-0.13459627124999998,10.0055877019,0.04214970143566306,-0.0013744467859455349,-0.03772092845872745,0.03542,0.29918,-0.21196,23.5,0,856,509,706,2339,34.9548046875,42570,21.73055626901372,1013.736803250888,0,,,,N/A,-1
2024-04-02T10:21:58,1.3483555351,-0.09272187574999999,9.829715240799999,0.0435241482216086,-0.0035124751196385882,-0.038942658935123484,0.032060000000000005,0.29946000000000006,-0.21294000000000002,23.5,0,856,509,706,2339,34.3489453125,38045,21.485534054729694,1013.7529490570334,0,,,,N/A,-1
2024-04-02T10:21:58,1.2251251712,-0.1387837108,9.9601240725,0.04550946024575215,-0.007635815477475193,-0.03665191429188092,0.030380000000000004,0.30674,-0.21462000000000003,23.5,0,856,509,706,2339,34.3489453125,38045,21.485534054729694,1013.7529490570334,0,,,,N/A,-1
2024-04-02T10:21:59,1.3447663011999997,-0.18544375149999998,9.8010013696,0.04474587869800463,-0.005803219762881146,-0.038484510006474966,0.030660000000000003,0.30814,-0.21588000000000002,24.5,0,857,509,706,2339,34.0649609375,39839,21.482305602987555,1013.7263315077258,0,,,,N/A,-1
2024-04-02T10:21:59,1.3076775508999998,-0.14177473905,9.81117086565,0.04428772976935611,-0.00595593607243065,-0.04321871560250959,0.027860000000000003,0.30114,-0.20748000000000003,23.5,0,857,509,706,2339,34.0649609375,39839,21.482305602987555,1013.7263315077258,0,,,,N/A,-1
2024-04-02T10:21:59,1.36331067635,-0.12741780345,9.896714273599999,0.04596760917440065,-0.006414085001079162,-0.03634648167278191,0.027860000000000003,0.30394000000000004,-0.21602000000000002,23.5,0,857,509,706,2339,34.0649609375,39839,21.482305602987555,1013.7263315077258,0,,,,N/A,-1
2024-04-02T10:21:59,1.50568362105,-0.09631110964999999,9.936195846499999,0.04428772976935611,-0.0025961772623415654,-0.03527746750593539,0.03542,0.29274,-0.21336000000000002,23.5,0,857,509,706,2339,33.603828125,36850,21.440431758380544,1013.7383668692888,0,,,,N/A,2
2024-04-02T10:21:59,1.4321043261,-0.09571290399999999,9.919446088299999,0.041844268816564056,-0.0033597588100890844,-0.036804630601430424,0.03402,0.28742,-0.21392000000000003,23.5,0,857,509,706,2339,33.603828125,36850,21.440431758380544,1013.7383668692888,0,,,,N/A,2
2024-04-02T10:21:59,1.3399806559999998,-0.12143574694999999,9.799206752649999,0.04321871560250959,0.00015271630954950385,-0.039858956792420505,0.0315,0.29022000000000003,-0.20524,23.5,0,857,509,706,2339,33.4438671875,38778,21.467000859956237,1013.7115102083517,0,,,,N/A,2
2024-04-02T10:21:59,1.3220344865,-0.12741780345,9.8333044747,0.04535674393620265,-0.006261368691529657,-0.040317105721069016,0.0357,0.28994000000000003,-0.20832000000000003,23.5,0,857,510,707,2341,33.4438671875,38778,21.467000859956237,1013.7115102083517,0,,,,N/A,2
2024-04-02T10:22:00,1.36091785375,-0.1339980656,9.990632560649999,0.043982297150257116,-0.00916297857297023,-0.039095375244672985,0.030100000000000002,0.28938,-0.21476,24.5,0,857,510,707,2341,33.50734375,40373,21.513999450444228,1013.708811120438,0,,,,N/A,-1
2024-04-02T10:22:00,1.3621142650499998,-0.14057832774999998,9.9014999188,0.04123340357836604,0.0033597588100890844,-0.03787364476827696,0.030100000000000002,0.29274,-0.21098000000000003,23.5,0,857,510,707,2341,33.50734375,40373,21.513999450444228,1013.708811120438,0,,,,N/A,-1
2024-04-02T10:22:00,1.3746765837,-0.17108681589999997,9.921240705249998,0.0474947722698957,-0.00595593607243065,-0.04016438941151951,0.037660000000000006,0.29246000000000005,-0.21070000000000003,23.5,0,860,512,711,2350,33.2684765625,37976,21.519206143819353,1013.7224366881659,0,,,,N/A,-1
2024-04-02T10:22:00,1.28075829665,-0.13698909385,9.808179837399999,0.04612032548395016,-0.0007635815477475193,-0.04092797095926703,0.0315,0.2933,-0.20776000000000003,24.5,0,860,512,711,2350,33.2684765625,37976,21.519206143819353,1013.7224366881659,0,,,,N/A,-1
2024-04-02T10:22:00,1.3555340028999998,-0.09391828705,9.98704332675,0.0474947722698957,-0.003207042500539581,-0.04077525464971753,0.03654,0.2888200000000001,-0.20650000000000002,23.5,0,860,512,711,2350,33.2684765625,37976,21.519206143819353,1013.7224366881659,0,,,,N/A,2
2024-04-02T10:22:01,1.3244273091,-0.11485548479999999,9.828518829499998,0.0476474885794452,-0.00473420559603462,-0.03497203488683638,0.027300000000000005,0.30338000000000004,-0.19726000000000002,24.5,1,859,511,710,2346,33.245234375,39915,21.5550008448446,1013.6988774658723,0,,,,N/A,2
2024-04-02T10:22:01,1.3561322085499998,-0.1280160091,9.81715292215,0.04917465167494024,-0.0006108652381980154,-0.04092797095926703,0.03458000000000001,0.29946000000000006,-0.2009,23.5,1,859,511,710,2346,33.245234375,39915,21.5550008448446,1013.6988774658723,0,,,,N/A,2
2024-04-02T10:22:01,1.39322095885,-0.17706887240000002,9.97148997985,0.04306599929296009,-0.007483099167925688,-0.03420845333908886,0.034300000000000004,0.30142,-0.21252000000000001,24.5,1,859,511,710,2346,33.245234375,39915,21.5550008448446,1013.6988774658723,0,,,,N/A,2
2024-04-02T10:22:01,1.3507483577,-0.12143574694999999,9.88893760015,0.04581489286485116,-0.006719517620178169,-0.03741549583962844,0.02842,0.29946000000000006,-0.20216000000000003,23.5,1,859,511,710,2346,32.9684765625,37141,21.578985178113285,1013.7133477478327,0,,,,N/A,2
2024-04-02T10:22:01,1.33340039385,-0.15074782379999999,9.8763752815,0.04505131131710364,-0.007635815477475193,-0.038942658935123484,0.030380000000000004,0.30366000000000004,-0.20076000000000002,24.5,1,859,511,710,2346,32.9684765625,37141,21.578985178113285,1013.7133477478327,0,,,,N/A,2
2024-04-02T10:22:02,1.32023986955,-0.11545369045,9.8620183459,0.043676864531158106,-0.002138028333693054,-0.038179077387375956,0.029820000000000003,0.30590000000000006,-0.20258,23.5,1,856,509,706,2338,32.9516796875,39247,21.636559453114472,1013.6930966026285,0,,,,N/A,2
2024-04-02T10:22:02,1.3304093655999998,-0.1304088317,9.8249295956,0.04657847441259867,0.003207042500539581,-0.03543018381548489,0.03402,0.30422000000000005,-0.20412000000000002,24.5,1,856,509,706,2338,32.9516796875,39247,21.636559453114472,1013.6930966026285,0,,,,N/A,2
2024-04-02T10:22:02,1.38723890235,-0.15613167464999997,9.9684989516,0.04382958084070761,-0.007635815477475193,-0.038789942625573975,0.030660000000000003,0.29582,-0.20328000000000002,24.5,1,856,509,706,2338,32.9516796875,39247,21.636559453114472,1013.6930966026285,0,,,,N/A,2
2024-04-02T10:22:02,1.3902299305999999,-0.1363908882,9.88175913235,0.04520402762665314,0.0056505034533316425,-0.03802636107782646,0.03262,0.2975,-0.20888,23.5,1,856,509,706,2338,32.7255078125,36850,21.706642599826385,1013.7124614976636,0,,,,N/A,2
2024-04-02T10:22:02,1.3459627125,-0.15672988029999999,9.88415195495,0.04306599929296009,-0.014049900478554353,-0.037110063220529434,0.042140000000000004,0.30086,-0.20776000000000003,23.5,1,855,508,704,2335,32.7255078125,36850,21.706642599826385,1013.7124614976636,0,,,,N/A,2
2024-04-02T10:22:03,1.3262219260499999,-0.13998012209999997,9.78724263965,0.0476474885794452,-0.0033597588100890844,-0.039400807863771994,0.030100000000000002,0.31234,-0.21084000000000003,24.5,0,855,508,704,2335,32.747578125,39102,21.76688181672104,1013.6873040838451,0,,,,N/A,-1
2024-04-02T10:22:03,1.3363914221,-0.19022939669999997,9.846464998999998,0.04489859500755413,-0.009621127501618741,-0.04016438941151951,0.03626000000000001,0.29974,-0.20706000000000002,24.5,0,855,508,704,2335,32.747578125,39102,21.76688181672104,1013.6873040838451,0,,,,N/A,-1
2024-04-02T10:22:03,1.3304093655999998,-0.11186445655,9.789635462249999,0.04428772976935611,-0.0009162978572970231,-0.039706240482871004,0.032060000000000005,0.31094000000000005,-0.21462000000000003,24.5,0,855,508,704,2335,32.564375,36979,21.834536116669067,1013.7029007251926,0,,,,N/A,-1
2024-04-02T10:22:03,1.4009976322999997,-0.11365907349999999,9.926624556099998,0.04321871560250959,-0.0016798794050445422,-0.031459559767197796,0.026740000000000003,0.29862,-0.21336000000000002,24.5,0,855,508,704,2335,32.564375,36979,21.834536116669067,1013.7029007251926,0,,,,N/A,-1
2024-04-02T10:22:03,1.3495519463999999,-0.011964112999999998,9.750153889349999,0.04321871560250959,-0.007177666548826681,-0.03756821214917795,0.03122,0.29918,-0.21630000000000002,23.5,0,855,508,704,2335,32.564375,36979,21.834536116669067,1013.7029007251926,0,,,,N/A,-1
2024-04-02T10:22:04,1.29990087745,-0.14416756165,9.822536773,0.04092797095926703,-0.0038179077387375964,-0.040622538340168025,0.030100000000000002,0.30702,-0.21350000000000002,24.5,1,853,506,702,2329,32.6204296875,39247,21.897139650486505,1013.6883204616171,0,,,,N/A,-1
2024-04-02T10:22:04,1.3178470469499999,-0.16031911419999997,9.8010013696,0.041691552507014555,-0.005192354524683131,-0.039706240482871004,0.03262,0.30562,-0.21644000000000002,24.5,1,853,506,702,2329,32.6204296875,39247,21.897139650486505,1013.6883204616171,0,,,,N/A,-1
2024-04-02T10:22:04,1.3447663011999997,-0.10289137179999999,9.87218784195,0.0435241482216086,0.003207042500539581,-0.038179077387375956,0.03626000000000001,0.29638000000000003,-0.20342000000000002,23.5,1,853,506,702,2329,32.6204296875,39247,21.897139650486505,1013.6883204616171,0,,,,N/A,2
2024-04-02T10:22:04,1.3172488412999999,-0.2907279459,9.855438083749998,0.041691552507014555,-0.013439035240356337,-0.03741549583962844,0.030660000000000003,0.30226000000000003,-0.18522000000000002,24.5,1,853,506,702,2329,32.481171875,37207,21.95711144946723,1013.694665086078,0,,,,N/A,2
2024-04-02T10:22:04,1.4632110198999997,-0.11784651304999999,9.9242317335,0.048716502746291725,-0.02977968036215325,-0.03512475119638588,0.030380000000000004,0.30338000000000004,-0.20832000000000003,24.5,1,853,506,702,2329,32.481171875,37207,21.95711144946723,1013.694665086078,0,,,,N/A,2
2024-04-02T10:22:04,1.34536450685,-0.15134602945,9.869795019349999,0.04734205596034619,-0.008704829644321718,-0.04123340357836604,0.026740000000000003,0.31402,-0.20538000000000003,23.5,1,853,506,702,2329,32.481171875,37207,21.95711144946723,1013.694665086078,0,,,,N/A,2
2024-04-02T10:22:04,1.3345968051500001,-0.14057832774999998,9.923035322199999,0.040622538340168025,-0.002901609881440573,-0.038942658935123484,0.03402,0.31514000000000003,-0.20594000000000004,23.5,0,853,506,702,2329,32.567890625,39320,22.02188054334201,1013.6762339880344,0,,,,N/A,-1
2024-04-02T10:22:05,1.387837108,-0.13339985995,9.913464031799998,0.04291328298341058,-0.0009162978572970231,-0.04245513405476207,0.04242,0.30338000000000004,-0.20986000000000002,23.5,1,854,506,702,2330,32.82375,41040,22.071586694572293,1013.6803415423433,0,,,,N/A,-1
2024-04-02T10:22:05,1.34416809555,-0.12442677519999999,9.896116067949999,0.04459316238845512,-0.0013744467859455349,-0.038942658935123484,0.032900000000000006,0.3129,-0.20902,24.5,1,854,506,702,2330,32.82375,41040,22.071586694572293,1013.6803415423433,0,,,,N/A,-1
2024-04-02T10:22:05,1.4111671283499998,-0.13100703735,9.92363352785,0.04718933965079669,-0.0119118721448613,-0.03665191429188092,0.03262,0.31234,-0.20300000000000004,24.5,1,854,506,702,2330,32.82375,41040,22.071586694572293,1013.6803415423433,0,,,,N/A,-1
2024-04-02T10:22:05,1.3830514628000001,-0.11665010174999998,9.97029356855,0.05299255941367784,-0.0006108652381980154,-0.04077525464971753,0.03878,0.30590000000000006,-0.21952000000000002,24.5,1,854,506,702,2330,32.7415234375,39029,22.08734063522077,1013.7044247038872,0,,,,N/A,-1
2024-04-02T10:22:05,1.3124631961,-0.13100703735,9.773483909699998,0.04413501345980661,-0.007483099167925688,-0.03772092845872745,0.03654,0.31318,-0.19894000000000003,24.5,1,854,506,702,2330,32.7415234375,39029,22.08734063522077,1013.7044247038872,0,,,,N/A,6
2024-04-02T10:22:06,1.3345968051500001,-0.11006983959999998,9.954740221649999,0.04550946024575215,0.003054326190990077,-0.04016438941151951,0.03654,0.29638000000000003,-0.20972000000000002,24.5,1,853,506,702,2328,32.840546875,41040,22.14773505114101,1013.6789779877898,0,,,,N/A,6
2024-04-02T10:22:06,1.3471591237999998,-0.11904292434999998,9.90209812445,0.043982297150257116,0.0018325957145940463,-0.041691552507014555,0.028700000000000003,0.29414000000000007,-0.20776000000000003,24.5,1,853,506,702,2328,32.840546875,41040,22.14773505114101,1013.6789779877898,0,,,,N/A,6
2024-04-02T10:22:06,1.4321043261,-0.14536397295,9.9349994352,0.04382958084070761,-0.007788531787024696,-0.038484510006474966,0.030380000000000004,0.29694000000000004,-0.20398000000000002,24.5,1,853,506,702,2328,32.840546875,41040,22.14773505114101,1013.6789779877898,0,,,,N/A,6
2024-04-02T10:22:06,1.36929273285,-0.12622139215,9.917651471349998,0.04489859500755413,-0.0024434609527920616,-0.03726277953007894,0.03402,0.29638000000000003,-0.2009,24.5,1,853,506,702,2328,32.6721875,38566,22.157534591369433,1013.6937149938932,0,,,,N/A,6
2024-04-02T10:22:06,1.3124631961,-0.15134602945,9.850652438549998,0.04428772976935611,-0.008093964406123704,-0.038179077387375956,0.03234,0.29862,-0.20706000000000002,24.5,1,853,506,702,2328,32.6721875,38566,22.157534591369433,1013.6937149938932,0,,,,N/A,6
2024-04-02T10:22:07,1.3950155758,-0.16869399329999998,9.9708917742,0.04734205596034619,-0.006719517620178169,-0.03924809155422249,0.027860000000000003,0.29302000000000006,-0.20818,24.5,1,854,507,703,2332,32.7395703125,40960,22.21577436466155,1013.6814153947059,0,,,,N/A,6
2024-04-02T10:22:07,1.3764712006499997,-0.1363908882,9.981659475899999,0.04581489286485116,-0.005803219762881146,-0.04046982203061852,0.030940000000000002,0.2888200000000001,-0.20300000000000004,24.5,1,854,507,703,2332,32.7395703125,40960,22.21577436466155,1013.6814153947059,0,,,,N/A,6
2024-04-02T10:22:07,1.32143628085,-0.09930213789999999,9.793224696149998,0.04382958084070761,-0.006261368691529657,-0.036193765363232405,0.030100000000000002,0.29638000000000003,-0.20804000000000003,24.5,1,854,507,703,2332,32.7395703125,40960,22.21577436466155,1013.6814153947059,0,,,,N/A,6
2024-04-02T10:22:07,1.30947216785,-0.1483550012,9.889535805799998,0.0433714319120591,-0.011606439525762293,-0.03756821214917795,0.028980000000000002,0.29946000000000006,-0.19488000000000003,24.5,1,856,508,705,2337,32.6008984375,38707,22.21689441769503,1013.6978016273185,0,,,,N/A,6
2024-04-02T10:22:07,1.3363914221,-0.1363908882,9.90209812445,0.04260785036431157,0.0007635815477475193,-0.03924809155422249,0.03626000000000001,0.3017,-0.20454000000000003,24.5,1,856,508,705,2337,32.6008984375,38707,22.21689441769503,1013.6978016273185,0,,,,N/A,9
2024-04-02T10:22:08,1.3770694062999997,-0.12622139215,9.978070242,0.0435241482216086,-0.0022907446432425577,-0.0027488935718910697,0.03402,0.30142,-0.21112000000000003,24.5,0,856,508,705,2339,32.688203125,40960,22.271179551323044,1013.6820797542854,0,,,,N/A,9
2024-04-02T10:22:08,1.3304093655999998,-0.11545369045,9.9517491934,0.04444044607890562,-0.004123340357836604,-0.07742716894159844,0.033460000000000004,0.29974,-0.21896000000000002,24.5,0,856,508,705,2339,32.688203125,40960,22.271179551323044,1013.6820797542854,0,,,,N/A,9
2024-04-02T10:22:08,1.3166506356499998,-0.12442677519999999,9.8249295956,0.0435241482216086,-0.01145372321621279,-0.03924809155422249,0.032060000000000005,0.29498,-0.21112000000000003,24.5,0,856,508,705,2339,32.688203125,40960,22.271179551323044,1013.6820797542854,0,,,,N/A,9
2024-04-02T10:22:08,1.3471591237999998,-0.1304088317,10.0008020567,0.04428772976935611,0.00015271630954950385,-0.03481931857728687,0.03458000000000001,0.3129,-0.2079,24.5,0,856,508,705,2339,32.5493359375,39029,22.250834524835252,1013.703515339425,0,,,,N/A,9
2024-04-02T10:22:08,1.3322039825499998,-0.12981062605,9.792626490499998,0.04306599929296009,-0.0007635815477475193,-0.038179077387375956,0.029540000000000004,0.29918,-0.20944000000000002,24.5,0,856,508,705,2339,32.5493359375,39029,22.250834524835252,1013.703515339425,0,,,,N/A,-1
2024-04-02T10:22:09,1.3232308977999998,-0.10169496049999999,9.873384253249998,0.04428772976935611,-0.0013744467859455349,-0.03695734691097993,0.0357,0.30534000000000006,-0.20468,24.5,0,855,507,704,2335,32.6423046875,41361,22.30016402307407,1013.6808688372658,0,,,,N/A,-1
2024-04-02T10:22:09,1.2669995667,-0.13579268255,9.7830552001,0.04474587869800463,-0.007483099167925688,-0.041386119887915546,0.022820000000000003,0.29582,-0.20860000000000004,24.5,0,855,507,704,2335,32.6423046875,41361,22.30016402307407,1013.6808688372658,0,,,,N/A,-1
2024-04-02T10:22:09,1.3854442854,-0.16031911419999997,9.865607579799999,0.04505131131710364,-0.0013744467859455349,-0.038179077387375956,0.026180000000000002,0.30422000000000005,-0.19810000000000003,24.5,0,855,507,704,2335,32.6423046875,41361,22.30016402307407,1013.6808688372658,0,,,,N/A,-1
2024-04-02T10:22:09,1.3304093655999998,-0.1579262916,9.8979106849,0.04657847441259867,-0.0056505034533316425,-0.03604104905368291,0.0315,0.29890000000000005,-0.2023,24.5,0,855,507,704,2335,32.52375,39283,22.249062860943038,1013.695881882485,0,,,,N/A,-1
2024-04-02T10:22:09,1.3447663011999997,-0.11066804524999999,10.00259667365,0.043676864531158106,0.003054326190990077,-0.04153883619746505,0.02198,0.29862,-0.22106000000000003,24.5,1,855,507,704,2335,32.52375,39283,22.249062860943038,1013.695881882485,0,,,,N/A,-1
2024-04-02T10:22:09,1.32143628085,-0.15014961815,9.767501853199999,0.04077525464971753,-0.002901609881440573,-0.00015271630954950385,0.030380000000000004,0.30786,-0.2079,24.5,1,855,507,704,2335,32.52375,39283,22.249062860943038,1013.695881882485,0,,,,N/A,-1
2024-04-02T10:22:09,1.3896317249499999,-0.15254244074999998,9.9577312499,0.041691552507014555,-0.0018325957145940463,-0.03802636107782646,0.022820000000000003,0.30702,-0.20832000000000003,24.5,1,855,507,704,2335,32.631171875,41565,22.283306790774482,1013.6806733411776,0,,,,N/A,-1
2024-04-02T10:22:10,1.37288196675,-0.1447657673,9.972686391149999,0.04230241774521256,-0.001069014166846527,-0.04046982203061852,0.027300000000000005,0.30394000000000004,-0.21448000000000003,24.5,0,855,507,704,2334,32.9036328125,43402,22.345160327344754,1013.6812196720401,0,,,,N/A,-1
2024-04-02T10:22:10,1.3926227532000002,-0.09332008139999999,10.06361364995,0.04382958084070761,-0.0012217304763960308,-0.03695734691097993,0.0371,0.30534000000000006,-0.21322000000000002,24.5,0,855,507,704,2334,32.9036328125,43402,22.345160327344754,1013.6812196720401,0,,,,N/A,-1
2024-04-02T10:22:10,1.3663017045999997,-0.1351944769,9.9338030239,0.041844268816564056,-0.0056505034533316425,-0.038942658935123484,0.028700000000000003,0.3143,-0.20608,24.5,0,855,507,704,2334,32.9036328125,43402,22.345160327344754,1013.6812196720401,0,,,,N/A,-1
2024-04-02T10:22:10,1.3770694062999997,-0.1052841944,9.955338427300001,0.047952921198544204,0.0033597588100890844,-0.04001167310197001,0.033460000000000004,0.30226000000000003,-0.20118,24.5,0,855,507,704,2334,32.8758984375,41647,22.27348313317675,1013.6971385058655,0,,,,N/A,-1
2024-04-02T10:22:10,1.22452696555,-0.16510475939999997,9.796813930049998,0.039706240482871004,-0.008704829644321718,-0.03787364476827696,0.027300000000000005,0.30562,-0.20454000000000003,24.5,0,855,507,704,2334,32.8758984375,41647,22.27348313317675,1013.6971385058655,0,,,,N/A,-1
2024-04-02T10:22:11,1.30349011135,-0.14955141249999998,9.862616551549998,0.041080687268816536,-0.005345070834232635,-0.04046982203061852,0.030660000000000003,0.30310000000000004,-0.20412000000000002,24.5,0,856,509,706,2339,33.003828125,43626,22.293105327304517,1013.6864397293444,0,,,,N/A,-1
2024-04-02T10:22:11,1.2909277927,-0.17766707805,9.860223728949999,0.04214970143566306,-0.006719517620178169,-0.03451388595818787,0.03514,0.29834000000000005,-0.21154000000000003,24.5,0,856,509,706,2339,33.003828125,43626,22.293105327304517,1013.6864397293444,0,,,,N/A,-1
2024-04-02T10:22:11,1.39681019275,-0.13339985995,9.9349994352,0.04780020488899471,0.0003054326190990077,-0.0355829001250344,0.03794,0.30450000000000005,-0.21406000000000003,24.5,0,856,509,706,2339,33.003828125,43626,22.293105327304517,1013.6864397293444,0,,,,N/A,-1
2024-04-02T10:22:11,1.2945170265999997,-0.16869399329999998,9.846464998999998,0.048716502746291725,-0.00015271630954950385,-0.038484510006474966,0.033460000000000004,0.30226000000000003,-0.21854,24.5,0,856,509,706,2339,32.84484375,41040,22.19626384438158,1013.7004169128119,0,,,,N/A,-1
2024-04-02T10:22:11,1.3579268255,-0.12263215824999998,9.936195846499999,0.0474947722698957,-0.005345070834232635,-0.037110063220529434,0.039060000000000004,0.29946000000000006,-0.21574000000000002,24.5,0,856,509,706,2339,32.84484375,41040,22.19626384438158,1013.7004169128119,0,,,,N/A,-1
2024-04-02T10:22:12,1.4189438018,-0.10289137179999999,10.0115697584,0.04627304179349966,-0.003970624048287101,-0.041844268816564056,0.02338,0.29834000000000005,-0.21056000000000002,24.5,1,857,509,707,2341,32.9165234375,43313,22.238761351193613,1013.6860770741474,0,,,,N/A,-1
2024-04-02T10:22:12,1.3381860390499998,-0.12382856954999999,9.906285564,0.04550946024575215,-0.004276056667386108,-0.041844268816564056,0.023100000000000002,0.30310000000000004,-0.19796,24.5,1,857,509,707,2341,32.9165234375,43313,22.238761351193613,1013.6860770741474,0,,,,N/A,-1
2024-04-02T10:22:12,1.31306140175,-0.17587246110000002,9.6502535458,0.04780020488899471,-0.010079276430267254,-0.03588833274413341,0.027860000000000003,0.3129,-0.21672000000000002,24.5,1,856,509,706,2340,32.9165234375,43313,22.238761351193613,1013.6860770741474,0,,,,N/A,-1
2024-04-02T10:22:12,1.41834559615,-0.14356935599999998,10.00259667365,0.04673119072214818,0.004276056667386108,-0.04413501345980661,0.030660000000000003,0.30758,-0.21112000000000003,24.5,1,856,509,706,2340,32.763203125,41120,22.174538010719637,1013.707449645687,0,,,,N/A,-1
2024-04-02T10:22:12,1.3052847283,-0.1052841944,9.8273224182,0.04459316238845512,-0.0036651914291880926,-0.041080687268816536,0.037380000000000004,0.3017,-0.19642,24.5,1,856,509,706,2340,32.763203125,41120,22.174538010719637,1013.707449645687,0,,,,N/A,-1
2024-04-02T10:22:45,1.35134656335,-0.12023933564999999,9.810572659999998,0.04306599929296009,-0.0038179077387375964,-0.037110063220529434,0.028980000000000002,0.30814,-0.20818,24.5,1,857,509,707,2342,32.838984375,43224,22.21193916843048,1013.6980434823141,0,,,,N/A,-1
2024-04-02T10:22:45,1.3172488412999999,-0.11186445655,9.794421107449999,0.039706240482871004,-0.0036651914291880926,-0.039706240482871004,0.029820000000000003,0.31122000000000005,-0.21294000000000002,24.5,1,857,509,707,2342,32.838984375,43224,22.21193916843048,1013.6980434823141,0,,,,N/A,-1
2024-04-02T10:22:45,1.4273186808999998,-0.1328016543,9.96909715725,0.04963280060358875,0.0012217304763960308,-0.03726277953007894,0.02842,0.30954000000000004,-0.21812000000000004,24.5,1,857,509,707,2342,32.838984375,43224,22.21193916843048,1013.6980434823141,0,,,,N/A,-1
2024-04-02T10:22:45,1.3124631961,-0.11425727914999999,9.8548398781,0.041996985126113565,0.0007635815477475193,-0.040317105721069016,0.028700000000000003,0.29834000000000005,-0.20958000000000002,24.5,1,857,509,707,2342,32.7020703125,41040,22.17031257535773,1013.7101608689928,0,,,,N/A,-1
2024-04-02T10:22:45,1.36091785375,-0.1782652837,9.864411168499998,0.04046982203061852,-0.013286318930806834,-0.03924809155422249,0.04018000000000001,0.29386,-0.22134000000000004,24.5,1,857,509,707,2342,32.7020703125,41040,22.17031257535773,1013.7101608689928,0,,,,N/A,-1
2024-04-02T10:22:46,1.3788640232499998,-0.13998012209999997,9.932008406949999,0.041080687268816536,-0.004581489286485115,-0.03543018381548489,0.025900000000000003,0.30450000000000005,-0.20678000000000002,24.5,1,857,509,707,2342,32.794453125,43357,22.235657713275383,1013.6918919723863,0,,,,N/A,-1
2024-04-02T10:22:46,1.5278172300999997,-0.16091731985,9.896714273599999,0.048258353817643214,-0.0054977871437821395,-0.036499197982331415,0.03374,0.30898000000000003,-0.20006000000000004,24.5,1,857,509,707,2342,32.794453125,43357,22.235657713275383,1013.6918919723863,0,,,,N/A,-1
2024-04-02T10:22:46,1.2927224096499998,-0.13339985995,9.750153889349999,0.047952921198544204,-0.007635815477475193,-0.03741549583962844,0.02646,0.31262,-0.20006000000000004,24.5,1,857,509,707,2342,32.794453125,43357,22.235657713275383,1013.6918919723863,0,,,,N/A,-1
2024-04-02T10:22:46,1.38364966845,-0.1292124204,9.8548398781,0.04627304179349966,0.0025961772623415654,-0.03665191429188092,0.030940000000000002,0.30842,-0.21224,24.5,1,857,509,707,2342,32.6665234375,41200,22.20535980257553,1013.7168739747666,0,,,,N/A,-1
2024-04-02T10:22:46,1.29511523225,-0.14237294469999998,9.81834933345,0.0474947722698957,-0.009773843811168246,-0.038484510006474966,0.034300000000000004,0.30338000000000004,-0.20384000000000002,24.5,0,857,509,707,2341,32.6665234375,41200,22.20535980257553,1013.7168739747666,0,,,,N/A,-1
2024-04-02T10:22:46,1.3363914221,-0.12323036389999999,9.954740221649999,0.0476474885794452,-0.0054977871437821395,-0.04153883619746505,0.025060000000000002,0.3073,-0.20832000000000003,24.5,0,857,509,707,2341,32.6665234375,41200,22.20535980257553,1013.7168739747666,0,,,,N/A,-1
2024-04-02T10:22:46,1.3411770672999999,-0.12741780345,9.856634495049999,0.04581489286485116,-0.0035124751196385882,-0.036499197982331415,0.026740000000000003,0.30618,-0.21882000000000001,24.5,0,857,509,707,2341,32.7626171875,43626,22.244172916790127,1013.6992856353648,0,,,,N/A,-1
2024-04-02T10:22:47,1.3088739621999996,-0.12263215824999998,9.8548398781,0.04520402762665314,-0.0007635815477475193,-0.0006108652381980154,0.027020000000000002,0.31150000000000005,-0.21084000000000003,24.5,0,857,509,707,2342,33.023359375,45506,22.299830486541158,1013.696740599456,0,,,,N/A,-1
2024-04-02T10:22:47,1.3423734785999997,-0.11964112999999998,9.823733184299998,0.0435241482216086,0.0007635815477475193,-0.04153883619746505,0.024220000000000002,0.29834000000000005,-0.20594000000000004,24.5,0,857,509,707,2342,33.023359375,45506,22.299830486541158,1013.696740599456,0,,,,N/A,-1
2024-04-02T10:22:47,1.3824532571500001,-0.14356935599999998,9.9517491934,0.03741549583962844,-0.003054326190990077,-0.040622538340168025,0.02758,0.29974,-0.2044,24.5,0,857,509,707,2342,33.023359375,45506,22.299830486541158,1013.696740599456,0,,,,N/A,-1
2024-04-02T10:22:47,1.3794622288999998,-0.11665010174999998,9.90808018095,0.04123340357836604,-0.0019853120241435504,-0.038484510006474966,0.023100000000000002,0.30814,-0.20300000000000004,24.5,0,857,509,707,2342,32.94015625,43357,22.224313142197452,1013.713901404678,0,,,,N/A,-1
2024-04-02T10:22:47,1.28674035315,-0.16929219894999997,9.837491914249998,0.04153883619746505,-0.0054977871437821395,-0.03527746750593539,0.030380000000000004,0.30142,-0.21658000000000002,24.5,0,857,509,707,2342,32.94015625,43357,22.224313142197452,1013.713901404678,0,,,,N/A,-1
2024-04-02T10:22:48,1.3028919057,-0.16151552549999998,9.7962157244,0.04382958084070761,-0.013591751549905842,-0.0357356164345839,0.026740000000000003,0.30590000000000006,-0.21182,24.5,1,856,509,707,2342,33.034296875,45604,22.257666106506285,1013.6929928961683,0,,,,N/A,-1
2024-04-02T10:22:48,1.3196416639,-0.1471585899,9.81715292215,0.04612032548395016,-0.0044287729769356115,-0.039095375244672985,0.03486000000000001,0.30646,-0.21280000000000002,24.5,1,856,509,707,2342,33.034296875,45604,22.257666106506285,1013.6929928961683,0,,,,N/A,-1
2024-04-02T10:22:48,1.3262219260499999,-0.11904292434999998,9.819545744749998,0.04505131131710364,-0.0054977871437821395,-0.03802636107782646,0.029820000000000003,0.30142,-0.20832000000000003,24.5,1,856,509,707,2342,33.034296875,45604,22.257666106506285,1013.6929928961683,0,,,,N/A,-1
2024-04-02T10:22:48,1.32023986955,-0.16450655374999998,9.6658068927,0.04276056667386108,-0.0044287729769356115,-0.03787364476827696,0.027020000000000002,0.30926000000000003,-0.20888,24.5,1,856,509,707,2342,32.8622265625,42613,22.19746740693834,1013.7162259138372,0,,,,N/A,-1
2024-04-02T10:22:48,1.3124631961,-0.11485548479999999,9.889535805799998,0.04886921905584123,-0.0035124751196385882,-0.04092797095926703,0.032900000000000006,0.29694000000000004,-0.20678000000000002,24.5,1,856,509,707,2342,32.8622265625,42613,22.19746740693834,1013.7162259138372,0,,,,N/A,-1
2024-04-02T10:22:49,1.4165509792000002,-0.107677017,9.8045906035,0.04688390703169768,-0.001069014166846527,-0.07742716894159844,0.02926,0.30114,-0.21224,24.5,1,856,509,707,2341,32.9243359375,45021,22.233940737783055,1013.695245474034,0,,,,N/A,-1
2024-04-02T10:22:49,1.3860424910499998,-0.11306086784999998,9.8751788702,0.04886921905584123,0.0025961772623415654,-0.04016438941151951,0.02926,0.30786,-0.21714000000000003,24.5,1,856,509,707,2341,32.9243359375,45021,22.233940737783055,1013.695245474034,0,,,,N/A,-1
2024-04-02T10:22:49,1.3525429746499997,-0.15433705769999997,9.884750160599998,0.04245513405476207,-0.0044287729769356115,-0.04001167310197001,0.026740000000000003,0.30814,-0.20272000000000004,24.5,1,856,509,707,2341,32.9243359375,45021,22.233940737783055,1013.695245474034,0,,,,N/A,-1
2024-04-02T10:22:49,1.37288196675,-0.11904292434999998,9.997811028449998,0.04520402762665314,-0.0033597588100890844,-0.04046982203061852,0.029540000000000004,0.30478000000000005,-0.2058,24.5,1,856,509,707,2341,32.767109375,42786,22.19624299733512,1013.7048297034878,0,,,,N/A,-1
2024-04-02T10:22:49,1.3322039825499998,-0.14117653339999997,9.81834933345,0.03924809155422249,-0.0007635815477475193,-0.03756821214917795,0.024500000000000004,0.30478000000000005,-0.21322000000000002,24.5,1,856,509,707,2341,32.767109375,42786,22.19624299733512,1013.7048297034878,0,,,,N/A,-1
2024-04-02T10:22:50,1.26640136105,-0.14117653339999997,9.8057870148,0.04260785036431157,-0.003970624048287101,-0.04123340357836604,0.0315,0.30646,-0.20314000000000002,24.5,1,855,508,706,2339,32.838984375,45165,22.238745174793294,1013.6908367590033,0,,,,N/A,-1
2024-04-02T10:22:50,1.3040883169999997,-0.1519442351,9.82911703515,0.04657847441259867,-0.0015271630954950385,-0.038789942625573975,0.03234,0.30646,-0.21882000000000001,24.5,1,855,508,706,2339,32.838984375,45165,22.238745174793294,1013.6908367590033,0,,,,N/A,-1
2024-04-02T10:22:50,1.3938191645,-0.107677017,9.8632147572,0.04016438941151951,0.0009162978572970231,-0.03512475119638588,0.027300000000000005,0.30422000000000005,-0.20426000000000002,24.5,1,855,508,706,2339,32.838984375,45165,22.238745174793294,1013.6908367590033,0,,,,N/A,-1
2024-04-02T10:22:50,1.3698909385,-0.09391828705,9.92243711655,0.04703662334124718,-0.003970624048287101,-0.07742716894159844,0.024500000000000004,0.30926000000000003,-0.19768,24.5,1,855,508,706,2339,32.69015625,42399,22.217712722537215,1013.7014851786794,0,,,,N/A,-1
2024-04-02T10:22:50,1.3686945271999997,-0.11186445655,9.9338030239,0.04566217655530165,-0.0015271630954950385,-0.043676864531158106,0.03402,0.29554,-0.20538000000000003,24.5,1,855,508,706,2339,32.69015625,42399,22.217712722537215,1013.7014851786794,0,,,,N/A,-1
2024-04-02T10:22:51,1.3746765837,-0.1304088317,9.96072227815,0.04444044607890562,-0.010384709049366262,-0.0435241482216086,0.02142,0.31178000000000006,-0.20272000000000004,24.5,1,856,509,706,2339,32.76984375,45165,22.26075844783958,1013.6750725705907,0,,,,N/A,-1
2024-04-02T10:22:51,1.3890335192999999,-0.14416756165,9.87577707585,0.04382958084070761,-0.005345070834232635,-0.04444044607890562,0.02198,0.30114,-0.20818,24.5,1,856,509,706,2339,32.76984375,45165,22.26075844783958,1013.6750725705907,0,,,,N/A,-1
2024-04-02T10:22:51,1.31425781305,-0.1447657673,9.77767134925,0.040622538340168025,-0.004581489286485115,-0.039858956792420505,0.02198,0.30478000000000005,-0.20510000000000003,24.5,1,856,509,706,2341,32.76984375,45165,22.26075844783958,1013.6750725705907,0,,,,N/A,-1
2024-04-02T10:22:51,1.3375878333999998,-0.11964112999999998,9.90688376965,0.04581489286485116,-0.0038179077387375964,-0.040622538340168025,0.01974,0.30114,-0.20160000000000003,24.5,1,856,509,706,2341,32.635859375,42916,22.262188986778728,1013.6955439015205,0,,,,N/A,-1
2024-04-02T10:22:51,1.3405788616499998,-0.17108681589999997,9.8811609267,0.041844268816564056,-0.006566801310628666,-0.038331793696925465,0.017220000000000003,0.30618,-0.21392000000000003,24.5,1,856,509,706,2341,32.635859375,42916,22.262188986778728,1013.6955439015205,0,,,,N/A,-1
2024-04-02T10:22:51,1.36331067635,-0.1304088317,9.94397251995,0.04627304179349966,-0.0015271630954950385,-0.038789942625573975,0.02338,0.30226000000000003,-0.20846,24.5,1,856,509,706,2341,32.635859375,42916,22.262188986778728,1013.6955439015205,0,,,,N/A,-1
2024-04-02T10:22:51,1.2921242039999998,-0.13758729949999998,9.7459664498,0.04489859500755413,-0.003970624048287101,-0.037110063220529434,0.02338,0.30674,-0.20426000000000002,24.5,1,856,509,706,2341,32.7305859375,45214,22.322386263617716,1013.6775324395628,0,,,,N/A,-1
2024-04-02T10:22:52,1.3124631961,-0.13938191645,9.80399239785,0.0435241482216086,-0.0013744467859455349,-0.03756821214917795,0.026740000000000003,0.30814,-0.21084000000000003,24.5,1,856,509,707,2342,32.99171875,47396,22.356667525425834,1013.679259702414,0,,,,N/A,-1
2024-04-02T10:22:52,1.3268201317,-0.107677017,9.930213789999998,0.04001167310197001,-0.0054977871437821395,-0.038942658935123484,0.025340000000000005,0.31150000000000005,-0.21714000000000003,24.5,1,856,509,707,2342,32.99171875,47396,22.356667525425834,1013.679259702414,0,,,,N/A,-1
2024-04-02T10:22:52,1.3531411802999997,-0.09990034354999999,9.918249676999999,0.04734205596034619,-0.0009162978572970231,-0.03726277953007894,0.03318,0.30422000000000005,-0.20916,24.5,1,856,509,707,2342,32.99171875,47396,22.356667525425834,1013.679259702414,0,,,,N/A,-1
2024-04-02T10:22:52,1.3591232368,-0.12861421474999998,9.80638522045,0.04596760917440065,-0.003207042500539581,-0.03604104905368291,0.02254,0.30534000000000006,-0.21140000000000003,24.5,1,856,509,707,2342,32.9231640625,44925,22.335787250687375,1013.6879239109363,0,,,,N/A,-1
2024-04-02T10:22:52,1.37766761195,-0.12502498085,9.89372324535,0.04688390703169768,-0.003970624048287101,-0.039553524173321496,0.02926,0.30702,-0.1988,24.5,1,856,509,707,2342,32.9231640625,44925,22.335787250687375,1013.6879239109363,0,,,,N/A,-1
2024-04-02T10:22:53,1.3112667848,-0.15373885204999999,9.843473970749999,0.04428772976935611,-0.006566801310628666,-0.0355829001250344,0.027860000000000003,0.30590000000000006,-0.20874,24.5,2,857,508,706,2341,33.0315625,47053,22.370184858957515,1013.665094566739,0,,,,N/A,-1
2024-04-02T10:22:53,1.3447663011999997,-0.12083754129999999,9.92482993915,0.0433714319120591,-0.0068722339297276735,-0.038942658935123484,0.02562,0.31150000000000005,-0.19558,24.5,2,857,508,706,2341,33.0315625,47053,22.370184858957515,1013.665094566739,0,,,,N/A,-1
2024-04-02T10:22:53,1.3328021881999996,-0.11964112999999998,9.884750160599998,0.04627304179349966,0.0012217304763960308,-0.03665191429188092,0.03682,0.31094000000000005,-0.20762000000000003,24.5,2,857,508,706,2341,33.0315625,47053,22.370184858957515,1013.665094566739,0,,,,N/A,-1
2024-04-02T10:22:53,1.2915259983499998,-0.14356935599999998,9.8249295956,0.04612032548395016,-0.008857545953871223,-0.0435241482216086,0.03234,0.30422000000000005,-0.19334000000000004,24.5,2,857,508,706,2341,32.878046875,44035,22.33264557052212,1013.689840356942,0,,,,N/A,-1
2024-04-02T10:22:53,1.35134656335,-0.13938191645,9.8751788702,0.04612032548395016,0.00045814892864851157,-0.04046982203061852,0.02254,0.30646,-0.20804000000000003,24.5,1,857,508,706,2343,32.878046875,44035,22.33264557052212,1013.689840356942,0,,,,N/A,-1
2024-04-02T10:22:54,1.3686945271999997,-0.1088734283,9.865607579799999,0.04642575810304917,-0.0009162978572970231,-0.039858956792420505,0.026740000000000003,0.30002000000000006,-0.20426000000000002,24.5,1,858,508,707,2346,32.9534375,46714,22.380840180000455,1013.6707423319614,0,,,,N/A,-1
2024-04-02T10:22:54,1.3842478741,-0.11964112999999998,9.8440721764,0.04428772976935611,0.0027488935718910697,-0.03726277953007894,0.02646,0.30114,-0.20678000000000002,24.5,1,858,508,707,2346,32.9534375,46714,22.380840180000455,1013.6707423319614,0,,,,N/A,-1
2024-04-02T10:22:54,1.3621142650499998,-0.16031911419999997,9.9014999188,0.04718933965079669,-0.002138028333693054,-0.03527746750593539,0.028980000000000002,0.30338000000000004,-0.20636000000000002,24.5,1,858,508,707,2346,32.9534375,46714,22.380840180000455,1013.6707423319614,0,,,,N/A,-1
2024-04-02T10:22:54,1.3591232368,-0.08255237969999998,9.9218389109,0.04505131131710364,0.00473420559603462,-0.03772092845872745,0.027300000000000005,0.30366000000000004,-0.19586,24.5,1,858,508,707,2346,32.8067578125,43852,22.381345004700236,1013.6939955393053,0,,,,N/A,-1
2024-04-02T10:22:54,1.32263269215,-0.14356935599999998,9.798010341349999,0.04321871560250959,-0.008552113334772215,-0.040317105721069016,0.0315,0.30394000000000004,-0.20454000000000003,24.5,1,858,508,707,2346,32.8067578125,43852,22.381345004700236,1013.6939955393053,0,,,,N/A,-1
2024-04-02T10:22:55,1.3028919057,-0.11545369045,9.7782695549,0.043676864531158106,-0.0068722339297276735,-0.04046982203061852,0.029540000000000004,0.30114,-0.21784000000000003,24.5,1,857,508,707,2344,32.8899609375,46509,22.419362539747787,1013.6804899113964,0,,,,N/A,-1
2024-04-02T10:22:55,1.2771690627499999,-0.1471585899,9.837491914249998,0.04382958084070761,-0.0070249502392771765,-0.03802636107782646,0.02562,0.30142,-0.19894000000000003,24.5,1,857,508,707,2344,32.8899609375,46509,22.419362539747787,1013.6804899113964,0,,,,N/A,-1
2024-04-02T10:22:55,1.3698909385,-0.1112662509,9.92004429395,0.04963280060358875,-0.036499197982331415,-0.039858956792420505,0.030380000000000004,0.29638000000000003,-0.20874,24.5,1,857,508,707,2344,32.8899609375,46509,22.419362539747787,1013.6804899113964,0,,,,N/A,-1
2024-04-02T10:22:55,1.32502551475,-0.12382856954999999,9.814760099549998,0.050854531079984784,-0.007635815477475193,-0.039553524173321496,0.0371,0.29666000000000003,-0.21126000000000003,24.5,1,857,508,707,2344,32.7610546875,44127,22.415730229031546,1013.6949291953413,0,,,,N/A,-1
2024-04-02T10:22:55,1.3788640232499998,-0.14775679555,9.904490947049998,0.04382958084070761,-0.008552113334772215,-0.03420845333908886,0.027300000000000005,0.29834000000000005,-0.21462000000000003,24.5,1,857,508,707,2344,32.7610546875,44127,22.415730229031546,1013.6949291953413,0,,,,N/A,-1
2024-04-02T10:22:56,1.3884353136499998,-0.14177473905,10.104291634149998,0.0474947722698957,-0.0012217304763960308,-0.04306599929296009,0.02478,0.3073,-0.19922000000000004,24.5,0,858,508,708,2348,32.8571484375,46714,22.47077390428935,1013.6718885632679,0,,,,N/A,-1
2024-04-02T10:22:56,1.3830514628000001,-0.11425727914999999,9.994820000199999,0.04428772976935611,-0.002138028333693054,-0.04016438941151951,0.024500000000000004,0.29862,-0.19852,24.5,0,858,508,708,2348,32.8571484375,46714,22.47077390428935,1013.6718885632679,0,,,,N/A,-1
2024-04-02T10:22:56,1.26400853845,-0.13339985995,9.839286531199999,0.04382958084070761,-0.009010262263420728,-0.03726277953007894,0.023100000000000002,0.29694000000000004,-0.20244000000000004,24.5,0,858,508,708,2348,32.8571484375,46714,22.47077390428935,1013.6718885632679,0,,,,N/A,-1
2024-04-02T10:22:56,1.3639088819999998,-0.11006983959999998,9.847661410299999,0.047952921198544204,-0.0018325957145940463,-0.04016438941151951,0.025900000000000003,0.30954000000000004,-0.20370000000000002,24.5,0,858,508,708,2348,32.743671875,44220,22.441358849454797,1013.6881222838872,0,,,,N/A,-1
2024-04-02T10:22:56,1.2921242039999998,-0.17288143285000002,9.868598608049998,0.04474587869800463,-0.004123340357836604,-0.04306599929296009,0.02842,0.30534000000000006,-0.20706000000000002,24.5,0,858,508,708,2348,32.743671875,44220,22.441358849454797,1013.6881222838872,0,,,,N/A,-1
2024-04-02T10:22:56,1.3818550515,-0.15074782379999999,9.882357337999998,0.04673119072214818,-0.00473420559603462,-0.039400807863771994,0.03122,0.30282000000000003,-0.21336000000000002,24.5,0,858,508,708,2348,32.743671875,44220,22.441358849454797,1013.6881222838872,0,,,,N/A,-1
2024-04-02T10:22:56,1.3196416639,-0.10289137179999999,9.945168931249999,0.04734205596034619,0.001069014166846527,-0.038179077387375956,0.023660000000000004,0.30338000000000004,-0.20244000000000004,24.5,0,858,508,708,2348,32.851875,46870,22.497264337734475,1013.677680513068,0,,,,N/A,-1
2024-04-02T10:22:57,1.2819547079499998,-0.1280160091,9.8404829425,0.04642575810304917,-0.004123340357836604,-0.04153883619746505,0.023660000000000004,0.31374,-0.20006000000000004,24.5,1,857,508,707,2347,33.1231640625,48964,22.52704636188498,1013.6724315106159,0,,,,N/A,-1
2024-04-02T10:22:57,1.3375878333999998,-0.13160524299999998,9.814760099549998,0.04780020488899471,0.001069014166846527,-0.039706240482871004,0.027020000000000002,0.30142,-0.1974,24.5,1,857,508,707,2347,33.1231640625,48964,22.52704636188498,1013.6724315106159,0,,,,N/A,-1
2024-04-02T10:22:57,1.3668999102499997,-0.10648060570000001,10.004391290600001,0.04917465167494024,-0.005803219762881146,-0.039553524173321496,0.02198,0.30450000000000005,-0.20426000000000002,24.5,1,857,508,707,2347,33.1231640625,48964,22.52704636188498,1013.6724315106159,0,,,,N/A,-1
2024-04-02T10:22:57,1.34416809555,-0.13459627124999998,9.86500937415,0.04092797095926703,-0.002138028333693054,-0.07681630370340044,0.030100000000000002,0.30394000000000004,-0.20818,24.5,1,857,508,707,2347,33.0598828125,46457,22.447360166844057,1013.6861543531911,0,,,,N/A,-1
2024-04-02T10:22:57,1.3579268255,-0.14297115034999996,9.999605645399999,0.04245513405476207,-0.007941248096574201,-0.039706240482871004,0.027020000000000002,0.31066000000000005,-0.21406000000000003,24.5,1,857,508,707,2347,33.0598828125,46457,22.447360166844057,1013.6861543531911,0,,,,N/A,-1
2024-04-02T10:22:58,1.3561322085499998,-0.16450655374999998,9.919446088299999,0.04077525464971753,-0.00473420559603462,-0.0357356164345839,0.02478,0.30254000000000003,-0.21406000000000003,24.5,1,858,508,707,2345,33.170234375,48822,22.46583936997941,1013.6754573285699,0,,,,N/A,-1
2024-04-02T10:22:58,1.3926227532000002,-0.15373885204999999,9.967900745949999,0.04123340357836604,-0.004581489286485115,-0.03741549583962844,0.03122,0.3003,-0.2247,24.5,1,858,508,707,2345,33.170234375,48822,22.46583936997941,1013.6754573285699,0,,,,N/A,-1
2024-04-02T10:22:58,1.2915259983499998,-0.12502498085,9.7914300792,0.041996985126113565,-0.0007635815477475193,-0.04046982203061852,0.025060000000000002,0.30562,-0.21420000000000003,24.5,1,858,508,707,2347,33.170234375,48822,22.46583936997941,1013.6754573285699,0,,,,N/A,-1
2024-04-02T10:22:58,1.2837493248999998,-0.15373885204999999,9.898508890549998,0.04306599929296009,-0.009315694882519735,-0.036193765363232405,0.027300000000000005,0.30310000000000004,-0.22512000000000004,24.5,0,858,509,708,2347,33.0153515625,46102,22.347578763015918,1013.6872550610407,0,,,,N/A,-1
2024-04-02T10:22:58,1.3668999102499997,-0.0873380249,9.84706320465,0.047952921198544204,-0.00045814892864851157,-0.04077525464971753,0.01666,0.31122000000000005,-0.20818,24.5,0,858,509,708,2347,33.0153515625,46102,22.347578763015918,1013.6872550610407,0,,,,N/A,-1
2024-04-02T10:22:59,1.3627124707,-0.11844471869999999,9.92004429395,0.04459316238845512,-0.0025961772623415654,-0.038942658935123484,0.020020000000000003,0.30674,-0.20902,24.5,1,859,509,708,2348,33.0880078125,48598,22.36875505483093,1013.6582292911176,0,,,,N/A,-1
2024-04-02T10:22:59,1.3411770672999999,-0.09092725880000001,9.88295554365,0.04520402762665314,-0.0036651914291880926,-0.03772092845872745,0.024220000000000002,0.30954000000000004,-0.21616000000000002,24.5,1,859,509,708,2348,33.0880078125,48598,22.36875505483093,1013.6582292911176,0,,,,N/A,-1
2024-04-02T10:22:59,1.48654104025,-0.17407784415000002,9.9373922578,0.049938233222687756,-0.0044287729769356115,-0.04214970143566306,0.01778,0.3017,-0.22064,24.5,1,859,509,708,2348,33.0880078125,48598,22.36875505483093,1013.6582292911176,0,,,,N/A,-1
2024-04-02T10:22:59,1.3639088819999998,-0.1052841944,9.9649097177,0.04703662334124718,0.0,-0.03924809155422249,0.02562,0.29862,-0.21910000000000002,24.5,1,859,509,708,2348,32.9454296875,45852,22.272949603977196,1013.6774733126481,0,,,,N/A,-1
2024-04-02T10:22:59,1.35134656335,-0.16809578764999997,9.869196813699999,0.04810563750809371,-0.012980886311707827,-0.04230241774521256,0.023940000000000003,0.29582,-0.21476,24.5,1,859,509,708,2348,32.9454296875,45852,22.272949603977196,1013.6774733126481,0,,,,N/A,-1
2024-04-02T10:23:00,1.34656091815,-0.2907279459,9.851848849849999,0.04444044607890562,-0.006414085001079162,-0.041386119887915546,0.030940000000000002,0.30478000000000005,-0.21252000000000001,24.5,1,858,508,708,2346,33.0301953125,48542,22.311039711279616,1013.6538487882905,0,,,,N/A,-1
2024-04-02T10:23:00,1.3573286198499999,-0.14775679555,10.092327521149999,0.04963280060358875,-0.002901609881440573,-0.041386119887915546,0.030380000000000004,0.30758,-0.21672000000000002,24.5,1,858,508,708,2346,33.0301953125,48542,22.311039711279616,1013.6538487882905,0,,,,N/A,-1
2024-04-02T10:23:00,1.3178470469499999,-0.12083754129999999,9.820742156049999,0.04046982203061852,-0.004581489286485115,-0.038331793696925465,0.025900000000000003,0.31206,-0.21168,24.5,1,858,508,708,2346,33.0301953125,48542,22.311039711279616,1013.6538487882905,0,,,,N/A,-1
2024-04-02T10:23:00,1.3399806559999998,-0.15074782379999999,9.923035322199999,0.04535674393620265,-0.007330382858376185,-0.03512475119638588,0.020020000000000003,0.30338000000000004,-0.21406000000000003,24.5,1,858,508,708,2346,32.8962109375,45802,22.21590447390392,1013.669085940597,0,,,,N/A,-1
2024-04-02T10:23:00,1.3561322085499998,-0.13339985995,9.8620183459,0.04046982203061852,0.0015271630954950385,-0.03420845333908886,0.024220000000000002,0.30562,-0.21504,24.5,1,858,508,708,2346,32.8962109375,45802,22.21590447390392,1013.669085940597,0,,,,N/A,-1
2024-04-02T10:23:01,1.3172488412999999,-0.1339980656,9.811769071299999,0.04688390703169768,-0.004886921905584123,-0.037110063220529434,0.022820000000000003,0.30198,-0.20006000000000004,24.5,0,859,509,708,2349,32.9930859375,48458,22.254803146971916,1013.6562651928034,0,,,,N/A,-1
2024-04-02T10:23:01,1.3292129543,-0.12562318649999998,9.858429112,0.04550946024575215,0.0,-0.03466660226773738,0.024500000000000004,0.3143,-0.20636000000000002,24.5,0,859,509,708,2349,32.9930859375,48458,22.254803146971916,1013.6562651928034,0,,,,N/A,-1
2024-04-02T10:23:01,1.3914263418999997,-0.09750752095,9.884750160599998,0.04520402762665314,0.004276056667386108,-0.041844268816564056,0.022820000000000003,0.30618,-0.22568000000000005,24.5,0,859,509,708,2349,32.9930859375,48458,22.254803146971916,1013.6562651928034,0,,,,N/A,-1
2024-04-02T10:23:01,1.3794622288999998,-0.09990034354999999,9.852447055499999,0.04688390703169768,-0.0054977871437821395,-0.039400807863771994,0.026740000000000003,0.31150000000000005,-0.21854,24.5,0,859,509,708,2349,32.8899609375,45952,22.177946871788023,1013.6678771762203,0,,,,N/A,-1
2024-04-02T10:23:01,1.3405788616499998,-0.16689937635,9.86740219675,0.0435241482216086,-0.0070249502392771765,-0.038789942625573975,0.026740000000000003,0.30506,-0.20916,24.5,0,859,509,708,2349,32.8899609375,45952,22.177946871788023,1013.6678771762203,0,,,,N/A,-1
2024-04-02T10:23:01,1.2382856955,-0.11066804524999999,9.939186874749998,0.039553524173321496,0.0044287729769356115,-0.039553524173321496,0.02646,0.30842,-0.20734000000000002,24.5,0,859,509,708,2349,32.8899609375,45952,22.177946871788023,1013.6678771762203,0,,,,N/A,-1
2024-04-02T10:23:01,1.3710873497999998,-0.15373885204999999,9.958329455549999,0.043982297150257116,-0.0012217304763960308,-0.039706240482871004,0.019180000000000003,0.30534000000000006,-0.21070000000000003,24.5,0,859,509,708,2349,33.005,48654,22.207360020167926,1013.6595212012594,0,,,,N/A,-1
2024-04-02T10:23:01,1.3286147486499997,-0.14895320685,9.799206752649999,0.04657847441259867,-0.014049900478554353,-0.04016438941151951,0.02198,0.30422000000000005,-0.20468,24.5,0,859,509,708,2349,33.005,48654,22.207360020167926,1013.6595212012594,0,,,,N/A,-1
2024-04-02T10:23:01,1.3914263418999997,-0.12741780345,9.991230766299998,0.04886921905584123,-0.001069014166846527,-0.03588833274413341,0.02198,0.30534000000000006,-0.21336000000000002,24.5,0,859,509,708,2349,33.005,48654,22.207360020167926,1013.6595212012594,0,,,,N/A,-1
2024-04-02T10:23:02,1.3447663011999997,-0.14895320685,9.931410201299999,0.04474587869800463,-0.007177666548826681,-0.0355829001250344,0.0175,0.30226000000000003,-0.22036,24.5,1,858,508,708,2347,33.2813671875,50822,22.24801315642126,1013.6659778152283,0,,,,N/A,-1
2024-04-02T10:23:02,1.3956137814499998,-0.13579268255,9.95115098775,0.04489859500755413,-0.0022907446432425577,-0.036804630601430424,0.022820000000000003,0.30450000000000005,-0.21350000000000002,24.5,1,858,508,708,2347,33.2813671875,50822,22.24801315642126,1013.6659778152283,0,,,,N/A,-1
2024-04-02T10:23:02,1.32143628085,-0.11904292434999998,9.810572659999998,0.04474587869800463,-0.004886921905584123,-0.03741549583962844,0.020300000000000002,0.30758,-0.20286,24.5,1,858,508,708,2347,33.2813671875,50822,22.24801315642126,1013.6659778152283,0,,,,N/A,-1
2024-04-02T10:23:02,1.3573286198499999,-0.1471585899,9.913464031799998,0.049938233222687756,-0.009926560120717751,-0.039400807863771994,0.021700000000000004,0.31178000000000006,-0.21490000000000004,24.5,1,858,508,708,2347,33.2231640625,48292,22.152766446843103,1013.6790352642619,0,,,,N/A,-1
2024-04-02T10:23:02,1.3262219260499999,-0.13160524299999998,9.8548398781,0.04321871560250959,-0.0003054326190990077,-0.038484510006474966,0.01974,0.30506,-0.19978000000000004,24.5,1,858,508,708,2347,33.2231640625,48292,22.152766446843103,1013.6790352642619,0,,,,N/A,-1
2024-04-02T10:23:03,1.3405788616499998,-0.10229316614999999,9.84227755945,0.04657847441259867,0.0033597588100890844,-0.03802636107782646,0.02142,0.30562,-0.21056000000000002,24.5,1,859,509,709,2351,33.3372265625,51068,22.182132278185026,1013.670709655299,0,,,,N/A,-1
2024-04-02T10:23:03,1.31186499045,-0.08135596839999999,9.8321080634,0.04673119072214818,-0.00595593607243065,-0.041080687268816536,0.024220000000000002,0.30954000000000004,-0.21294000000000002,24.5,1,859,509,709,2351,33.3372265625,51068,22.182132278185026,1013.670709655299,0,,,,N/A,-1
2024-04-02T10:23:03,1.35972144245,-0.14297115034999996,9.92482993915,0.04688390703169768,-0.006719517620178169,-0.04153883619746505,0.017220000000000003,0.30982000000000004,-0.20160000000000003,24.5,1,859,509,709,2351,33.3372265625,51068,22.182132278185026,1013.670709655299,0,,,,N/A,-1
2024-04-02T10:23:03,1.3794622288999998,-0.11964112999999998,9.923035322199999,0.04444044607890562,0.002138028333693054,-0.038179077387375956,0.020020000000000003,0.30590000000000006,-0.20412000000000002,24.5,1,859,509,709,2351,33.186640625,47826,22.059110044907015,1013.671625389696,0,,,,N/A,-1
2024-04-02T10:23:03,1.3561322085499998,-0.17587246110000002,9.838688325549999,0.04596760917440065,-0.0056505034533316425,-0.04016438941151951,0.02338,0.30814,-0.2079,24.5,1,859,509,709,2351,33.186640625,47826,22.059110044907015,1013.671625389696,0,,,,N/A,-1
2024-04-02T10:23:04,1.3184452525999997,-0.1459621786,9.8141618939,0.04474587869800463,-0.008552113334772215,-0.04001167310197001,0.030380000000000004,0.30982000000000004,-0.21532,24.5,0,859,509,709,2351,33.2653515625,50853,22.091344736242167,1013.6578359207866,0,,,,N/A,-1
2024-04-02T10:23:04,1.2861421475,-0.14297115034999996,9.85424167245,0.04444044607890562,-0.0070249502392771765,-0.03543018381548489,0.028700000000000003,0.30674,-0.2121,24.5,0,859,509,709,2351,33.2653515625,50853,22.091344736242167,1013.6578359207866,0,,,,N/A,-1
2024-04-02T10:23:04,1.2969098491999997,-0.15254244074999998,9.8500542329,0.04413501345980661,0.002901609881440573,-0.039858956792420505,0.022820000000000003,0.3017,-0.2079,24.5,0,859,509,709,2351,33.2653515625,50853,22.091344736242167,1013.6578359207866,0,,,,N/A,-1
2024-04-02T10:23:04,1.2693923892999999,-0.13998012209999997,9.7818587888,0.03924809155422249,-0.005345070834232635,-0.040622538340168025,0.029540000000000004,0.30590000000000006,-0.21658000000000002,24.5,0,859,509,709,2351,33.1286328125,47264,22.022966033778737,1013.6651473526429,0,,,,N/A,-1
2024-04-02T10:23:04,1.3686945271999997,-0.1328016543,9.985248709799999,0.04535674393620265,-0.003970624048287101,-0.038179077387375956,0.020860000000000004,0.30702,-0.20734000000000002,24.5,0,859,509,709,2351,33.1286328125,47264,22.022966033778737,1013.6651473526429,0,,,,N/A,-1
2024-04-02T10:23:05,1.22691978815,-0.09212367009999999,9.9828558872,0.04321871560250959,0.0027488935718910697,-0.03252857393404432,0.03234,0.30758,-0.20174,24.5,2,859,509,709,2351,33.221015625,49950,22.050764932362906,1013.6556943162298,0,,,,N/A,-1
2024-04-02T10:23:05,1.32981115995,-0.11006983959999998,9.921240705249998,0.04657847441259867,0.007941248096574201,-0.03924809155422249,0.030100000000000002,0.30982000000000004,-0.20356000000000002,24.5,2,859,509,709,2351,33.221015625,49950,22.050764932362906,1013.6556943162298,0,,,,N/A,-1
2024-04-02T10:23:05,1.3220344865,-0.13998012209999997,9.92961558435,0.04566217655530165,-0.010079276430267254,-0.04123340357836604,0.025900000000000003,0.30086,-0.20776000000000003,24.5,0,859,509,709,2351,33.221015625,49950,22.050764932362906,1013.6556943162298,0,,,,N/A,-1
2024-04-02T10:23:05,1.3543375915999998,-0.1328016543,9.939186874749998,0.04581489286485116,-0.0007635815477475193,-0.039553524173321496,0.027300000000000005,0.31094000000000005,-0.18984000000000004,24.5,0,859,509,709,2351,33.095234375,47237,21.988534515873877,1013.671843099188,0,,,,N/A,-1
2024-04-02T10:23:05,1.2969098491999997,-0.12263215824999998,9.89731247925,0.04214970143566306,-0.014508049407202865,-0.040317105721069016,0.02646,0.31458,-0.20916,24.5,0,859,509,709,2351,33.095234375,47237,21.988534515873877,1013.671843099188,0,,,,N/A,-1
2024-04-02T10:23:06,1.3220344865,-0.13698909385,9.9338030239,0.04627304179349966,-0.0013744467859455349,-0.038179077387375956,0.0357,0.31178000000000006,-0.19922000000000004,24.5,1,859,509,709,2349,33.1934765625,50068,22.0327914182239,1013.6611653008617,0,,,,N/A,-1
2024-04-02T10:23:06,1.3304093655999998,-0.14117653339999997,9.82792062385,0.04550946024575215,-0.001069014166846527,-0.04016438941151951,0.02758,0.30926000000000003,-0.20356000000000002,24.5,1,859,509,709,2349,33.1934765625,50068,22.0327914182239,1013.6611653008617,0,,,,N/A,-1
2024-04-02T10:23:06,1.3914263418999997,-0.14536397295,9.9972128228,0.04474587869800463,0.003207042500539581,-0.03924809155422249,0.03178,0.29946000000000006,-0.21168,24.5,1,859,509,709,2349,33.1934765625,50068,22.0327914182239,1013.6611653008617,0,,,,N/A,-1
2024-04-02T10:23:06,1.3806586402,-0.11246266220000001,9.94875816515,0.04382958084070761,0.002138028333693054,-0.037110063220529434,0.035980000000000005,0.30562,-0.21868,24.5,1,859,509,709,2349,33.0680859375,47476,21.965252745037553,1013.6653189149878,0,,,,N/A,-1
2024-04-02T10:23:06,1.32741833735,-0.17168502154999998,9.798608546999999,0.043676864531158106,-0.010995574287564279,-0.039706240482871004,0.027860000000000003,0.31374,-0.21392000000000003,24.5,1,859,509,709,2349,33.0680859375,47476,21.965252745037553,1013.6653189149878,0,,,,N/A,-1
2024-04-02T10:23:06,1.4033904548999998,-0.11964112999999998,9.918249676999999,0.04459316238845512,-0.0038179077387375964,-0.04276056667386108,0.019180000000000003,0.3143,-0.21420000000000003,24.5,1,859,509,709,2349,33.0680859375,47476,21.965252745037553,1013.6653189149878,0,,,,N/A,-1
2024-04-02T10:23:06,1.3573286198499999,-0.12382856954999999,9.9469635482,0.04413501345980661,-0.010384709049366262,-0.041386119887915546,0.030940000000000002,0.30926000000000003,-0.22078000000000003,24.5,1,859,509,709,2349,33.1645703125,50039,21.998660246857252,1013.6499774205043,0,,,,N/A,-1
2024-04-02T10:23:06,1.2580264819499998,-0.12323036389999999,9.768100058849999,0.04550946024575215,-0.008093964406123704,-0.03772092845872745,0.025060000000000002,0.30338000000000004,-0.21224,24.5,1,859,509,709,2349,33.1645703125,50039,21.998660246857252,1013.6499774205043,0,,,,N/A,-1
2024-04-02T10:23:06,1.3411770672999999,-0.11784651304999999,9.977472036350001,0.04459316238845512,0.0033597588100890844,-0.03588833274413341,0.029820000000000003,0.30506,-0.22008000000000003,24.5,1,859,509,709,2349,33.1645703125,50039,21.998660246857252,1013.6499774205043,0,,,,N/A,-1
2024-04-02T10:23:07,1.4093725114,-0.12263215824999998,9.868598608049998,0.0474947722698957,-0.006566801310628666,-0.041080687268816536,0.025900000000000003,0.31318,-0.20524,24.5,1,859,509,709,2351,33.4251171875,52596,22.027335067116148,1013.6394012118533,0,,,,N/A,-1
2024-04-02T10:23:07,1.3292129543,-0.12442677519999999,9.9218389109,0.04382958084070761,-0.0044287729769356115,-0.041996985126113565,0.02142,0.31906,-0.21602000000000002,24.5,1,859,509,709,2351,33.4251171875,52596,22.027335067116148,1013.6394012118533,0,,,,N/A,-1
2024-04-02T10:23:07,1.31425781305,-0.13459627124999998,9.823134978649998,0.04810563750809371,-0.004276056667386108,-0.03436116964863837,0.02562,0.30702,-0.1974,24.5,1,859,509,709,2351,33.4251171875,52596,22.027335067116148,1013.6394012118533,0,,,,N/A,-1
2024-04-02T10:23:07,1.3770694062999997,-0.14416756165,9.90329453575,0.0435241482216086,-0.0015271630954950385,-0.03420845333908886,0.023940000000000003,0.30870000000000003,-0.21322000000000002,24.5,1,859,509,709,2351,33.3501171875,49568,21.95251216228581,1013.6593168576312,0,,,,N/A,-1
2024-04-02T10:23:07,1.3082757565499998,-0.11784651304999999,9.7818587888,0.04001167310197001,-0.00946841119206924,-0.038637226316024474,0.02114,0.30786,-0.21028000000000002,24.5,1,859,509,709,2349,33.3501171875,49568,21.95251216228581,1013.6593168576312,0,,,,N/A,-1
2024-04-02T10:23:08,1.35373938595,-0.12562318649999998,9.836893708599998,0.04474587869800463,-0.005345070834232635,-0.041386119887915546,0.022260000000000002,0.30534000000000006,-0.21406000000000003,24.5,1,859,509,709,2352,33.4512890625,52433,21.980906668345817,1013.6496983521953,0,,,,N/A,-1
2024-04-02T10:23:08,1.3411770672999999,-0.14895320685,9.8404829425,0.04428772976935611,-0.00473420559603462,-0.03665191429188092,0.02338,0.29722000000000004,-0.20832000000000003,24.5,1,859,509,709,2352,33.4512890625,52433,21.980906668345817,1013.6496983521953,0,,,,N/A,-1
2024-04-02T10:23:08,1.3381860390499998,-0.15613167464999997,9.952347399049998,0.0435241482216086,-0.006414085001079162,-0.038637226316024474,0.020860000000000004,0.30310000000000004,-0.20720000000000002,24.5,1,859,509,709,2352,33.4512890625,52433,21.980906668345817,1013.6496983521953,0,,,,N/A,-1
2024-04-02T10:23:08,1.3429716842499997,-0.13938191645,9.80877804305,0.041691552507014555,-0.006108652381980154,-0.04046982203061852,0.025060000000000002,0.29862,-0.21588000000000002,24.5,1,859,509,709,2352,33.282734375,48766,21.90504463866905,1013.6646060865786,0,,,,N/A,-1
2024-04-02T10:23:08,1.31306140175,-0.16630117069999997,9.939186874749998,0.041996985126113565,-0.010079276430267254,-0.038942658935123484,0.02142,0.30338000000000004,-0.20146,24.5,1,859,509,709,2352,33.282734375,48766,21.90504463866905,1013.6646060865786,0,,,,N/A,-1
2024-04-02T10:23:09,1.3052847283,-0.18484554585,9.906285564,0.04535674393620265,-0.0038179077387375964,-0.039858956792420505,0.02198,0.30226000000000003,-0.20692000000000002,24.5,1,859,509,709,2351,33.346015625,51130,21.946874099963658,1013.6544183774372,0,,,,N/A,-1
2024-04-02T10:23:09,1.32143628085,-0.1471585899,9.93559764085,0.043982297150257116,-0.007788531787024696,-0.0355829001250344,0.025340000000000005,0.31010000000000004,-0.23128000000000004,24.5,1,859,509,709,2351,33.346015625,51130,21.946874099963658,1013.6544183774372,0,,,,N/A,-1
2024-04-02T10:23:09,1.3040883169999997,-0.10648060570000001,9.847661410299999,0.04474587869800463,-0.003054326190990077,-0.038637226316024474,0.025340000000000005,0.3017,-0.22218000000000004,24.5,1,859,509,709,2351,33.346015625,51130,21.946874099963658,1013.6544183774372,0,,,,N/A,-1
2024-04-02T10:23:09,1.3040883169999997,-0.1639083481,9.930213789999998,0.04321871560250959,-0.009773843811168246,-0.03726277953007894,0.028980000000000002,0.30394000000000004,-0.21644000000000002,24.5,1,859,509,709,2351,33.182734375,48458,21.930300383560628,1013.6562284606902,0,,,,N/A,-1
2024-04-02T10:23:09,1.35972144245,-0.10588240005,9.87458066455,0.04566217655530165,0.0015271630954950385,-0.03588833274413341,0.01974,0.30310000000000004,-0.21280000000000002,24.5,1,859,509,709,2351,33.182734375,48458,21.930300383560628,1013.6562284606902,0,,,,N/A,-1
2024-04-02T10:23:10,1.3591232368,-0.13100703735,9.905089152699999,0.04550946024575215,-0.0033597588100890844,-0.07788531787024697,0.02338,0.30254000000000003,-0.21602000000000002,24.5,0,860,509,710,2354,33.251875,51161,21.967177870122605,1013.6448282840059,0,,,,N/A,-1
2024-04-02T10:23:10,1.3292129543,-0.11365907349999999,9.896116067949999,0.04581489286485116,0.0007635815477475193,-0.039400807863771994,0.028980000000000002,0.30226000000000003,-0.21476,24.5,0,860,509,710,2354,33.251875,51161,21.967177870122605,1013.6448282840059,0,,,,N/A,-1
2024-04-02T10:23:10,1.35972144245,-0.1387837108,9.967900745949999,0.04596760917440065,-0.0035124751196385882,-0.04016438941151951,0.03318,0.29834000000000005,-0.21812000000000004,24.5,0,860,509,710,2354,33.251875,51161,21.967177870122605,1013.6448282840059,0,,,,N/A,-1
2024-04-02T10:23:10,1.3555340028999998,-0.12442677519999999,9.9529456047,0.04642575810304917,0.0035124751196385882,-0.03665191429188092,0.028140000000000005,0.30394000000000004,-0.22568000000000005,24.5,0,860,509,710,2354,33.1040234375,48292,21.946308542484537,1013.6681843505431,0,,,,N/A,-1
2024-04-02T10:23:10,1.3244273091,-0.13698909385,9.81715292215,0.04657847441259867,-0.013439035240356337,-0.04092797095926703,0.02842,0.30450000000000005,-0.21980000000000002,24.5,0,860,509,710,2354,33.1040234375,48292,21.946308542484537,1013.6681843505431,0,,,,N/A,-1
2024-04-02T10:23:11,1.2658031554,-0.1351944769,9.819545744749998,0.04627304179349966,-0.005803219762881146,-0.041386119887915546,0.025340000000000005,0.29246000000000005,-0.21714000000000003,24.5,1,859,509,710,2353,33.1872265625,51099,21.99486387785607,1013.65455663642,0,,,,N/A,-1
2024-04-02T10:23:11,1.2729816231999997,-0.1459621786,9.868598608049998,0.04810563750809371,-0.008399397025222712,-0.038789942625573975,0.028980000000000002,0.30534000000000006,-0.21952000000000002,24.5,1,859,509,710,2353,33.1872265625,51099,21.99486387785607,1013.65455663642,0,,,,N/A,-1
2024-04-02T10:23:11,1.3316057768999998,-0.12442677519999999,9.8548398781,0.04718933965079669,-0.001069014166846527,-0.036499197982331415,0.030100000000000002,0.29498,-0.22274000000000002,24.5,1,859,509,710,2353,33.1872265625,51099,21.99486387785607,1013.65455663642,0,,,,N/A,-1
2024-04-02T10:23:11,1.3459627125,-0.09750752095,9.86620578545,0.0435241482216086,0.0025961772623415654,-0.03924809155422249,0.027860000000000003,0.3017,-0.22414,24.5,1,859,509,710,2353,33.0528515625,48402,21.98026638598399,1013.6620456051908,0,,,,N/A,-1
2024-04-02T10:23:11,1.2765708571,-0.13938191645,10.000203851049998,0.0474947722698957,-0.010079276430267254,-0.041080687268816536,0.032060000000000005,0.30758,-0.21980000000000002,24.5,1,859,509,710,2353,33.0528515625,48402,21.98026638598399,1013.6620456051908,0,,,,N/A,-1
2024-04-02T10:23:11,1.3782658175999998,-0.11306086784999998,9.8668039911,0.04703662334124718,0.0,-0.04291328298341058,0.03122,0.30366000000000004,-0.21840000000000004,24.5,1,859,509,710,2353,33.0528515625,48402,21.98026638598399,1013.6620456051908,0,,,,N/A,-1
2024-04-02T10:23:11,1.3812568458499999,-0.14775679555,9.80279598655,0.0474947722698957,-0.0054977871437821395,-0.040317105721069016,0.02562,0.30282000000000003,-0.21966000000000002,24.5,1,859,509,710,2353,33.146015625,51099,22.029520236963872,1013.6502969003573,0,,,,N/A,-1
2024-04-02T10:23:11,1.3064811395999998,-0.1950150419,9.859625523299998,0.04306599929296009,-0.007483099167925688,-0.03497203488683638,0.026740000000000003,0.30590000000000006,-0.2093,24.5,1,859,509,710,2355,33.146015625,51099,22.029520236963872,1013.6502969003573,0,,,,N/A,-1
2024-04-02T10:23:11,1.3555340028999998,-0.13938191645,9.870991430649998,0.0474947722698957,0.0070249502392771765,-0.0433714319120591,0.02842,0.31318,-0.22792,24.5,1,859,509,710,2355,33.146015625,51099,22.029520236963872,1013.6502969003573,0,,,,N/A,-1
2024-04-02T10:23:12,1.4009976322999997,-0.19381863059999999,9.994820000199999,0.041691552507014555,-0.009926560120717751,-0.03787364476827696,0.024220000000000002,0.30506,-0.22134000000000004,24.5,1,859,509,710,2355,33.4079296875,53395,22.07975776915589,1013.6473865142815,0,,,,N/A,-1
2024-04-02T10:23:12,1.4105689226999998,-0.1579262916,10.00259667365,0.04046982203061852,-0.0070249502392771765,-0.03405573702953936,0.02562,0.30310000000000004,-0.21448000000000003,24.5,1,859,509,710,2355,33.4079296875,53395,22.07975776915589,1013.6473865142815,0,,,,N/A,-1
2024-04-02T10:23:12,1.3172488412999999,-0.10348957745,9.77886776055,0.03924809155422249,-0.007330382858376185,-0.03772092845872745,0.027020000000000002,0.30870000000000003,-0.22372000000000003,24.5,1,859,509,710,2351,33.4079296875,53395,22.07975776915589,1013.6473865142815,0,,,,N/A,-1
2024-04-02T10:23:12,1.3423734785999997,-0.14297115034999996,9.927222761749999,0.04657847441259867,-0.007941248096574201,-0.03588833274413341,0.026740000000000003,0.30786,-0.21182,24.5,0,859,509,710,2351,33.3368359375,50548,22.03732125275964,1013.66466226666,0,,,,N/A,-1
2024-04-02T10:23:12,1.3579268255,-0.11066804524999999,9.839884736850001,0.04428772976935611,-0.0025961772623415654,-0.040622538340168025,0.024220000000000002,0.30562,-0.22988000000000003,24.5,0,859,509,710,2351,33.3368359375,50548,22.03732125275964,1013.66466226666,0,,,,N/A,-1
2024-04-02T10:23:13,1.3028919057,-0.10947163395000001,9.798010341349999,0.04413501345980661,-0.0027488935718910697,-0.04001167310197001,0.02338,0.31038000000000004,-0.20132000000000003,24.5,1,859,509,710,2352,33.4434765625,52860,22.076854177469812,1013.6531652695706,0,,,,N/A,-1
2024-04-02T10:23:13,1.2598210988999998,-0.11904292434999998,9.81117086565,0.043982297150257116,-0.007483099167925688,-0.04016438941151951,0.01946,0.29806,-0.20986000000000002,24.5,1,859,509,710,2352,33.4434765625,52860,22.076854177469812,1013.6531652695706,0,,,,N/A,-1
2024-04-02T10:23:13,1.40757789445,-0.12562318649999998,9.994820000199999,0.04596760917440065,0.00015271630954950385,-0.037110063220529434,0.027860000000000003,0.29778000000000004,-0.20846,24.5,1,859,509,710,2352,33.4434765625,52860,22.076854177469812,1013.6531652695706,0,,,,N/A,-1
2024-04-02T10:23:13,1.3812568458499999,-0.09930213789999999,9.8261260069,0.043676864531158106,0.002138028333693054,-0.038637226316024474,0.03374,0.31486000000000003,-0.20020000000000002,24.5,1,859,509,710,2352,33.28390625,49832,22.006878851556614,1013.6719296832534,0,,,,N/A,-1
2024-04-02T10:23:13,1.3579268255,-0.13579268255,9.917651471349998,0.04459316238845512,-0.008552113334772215,-0.039706240482871004,0.02926,0.30002000000000006,-0.21140000000000003,24.5,1,859,509,710,2352,33.28390625,49832,22.006878851556614,1013.6719296832534,0,,,,N/A,-1
2024-04-02T10:23:14,1.3423734785999997,-0.15493526335,9.92841917305,0.04596760917440065,-0.0044287729769356115,-0.04123340357836604,0.030380000000000004,0.30366000000000004,-0.2177,24.5,1,860,510,711,2355,33.3532421875,52596,22.033094033697328,1013.6662258915068,0,,,,N/A,-1
2024-04-02T10:23:14,1.3148560187,-0.14416756165,9.954142015999999,0.04321871560250959,-0.005803219762881146,-0.040317105721069016,0.016380000000000002,0.30450000000000005,-0.21392000000000003,24.5,1,860,510,711,2355,33.3532421875,52596,22.033094033697328,1013.6662258915068,0,,,,N/A,-1
2024-04-02T10:23:14,1.3088739621999996,-0.11964112999999998,9.8404829425,0.04245513405476207,-0.004581489286485115,-0.03741549583962844,0.01694,0.29890000000000005,-0.21322000000000002,24.5,1,860,510,711,2355,33.3532421875,52596,22.033094033697328,1013.6662258915068,0,,,,N/A,-1
2024-04-02T10:23:14,1.3399806559999998,-0.10827522265,9.835697297299998,0.040622538340168025,-0.009315694882519735,-0.039858956792420505,0.02254,0.30954000000000004,-0.20692000000000002,24.5,1,860,510,711,2355,33.2036328125,49714,21.97457040692854,1013.6651442288448,0,,,,N/A,-1
2024-04-02T10:23:14,1.33579321645,-0.12442677519999999,9.838688325549999,0.04917465167494024,0.0027488935718910697,-0.039400807863771994,0.025900000000000003,0.29862,-0.21630000000000002,24.5,0,859,509,710,2354,33.2036328125,49714,21.97457040692854,1013.6651442288448,0,,,,N/A,-1
2024-04-02T10:23:15,1.3387842447,-0.13698909385,9.8979106849,0.04276056667386108,-0.0038179077387375964,-0.036499197982331415,0.019180000000000003,0.31906,-0.21938000000000002,24.5,1,860,510,711,2356,33.28546875,52531,21.990914810005567,1013.6528480792139,0,,,,N/A,-1
2024-04-02T10:23:15,1.33340039385,-0.10947163395000001,9.90808018095,0.04642575810304917,0.0013744467859455349,-0.03787364476827696,0.02842,0.30842,-0.21238,24.5,1,860,510,711,2356,33.28546875,52531,21.990914810005567,1013.6528480792139,0,,,,N/A,-1
2024-04-02T10:23:15,1.3770694062999997,-0.15433705769999997,9.913464031799998,0.04489859500755413,-0.009926560120717751,-0.041386119887915546,0.023100000000000002,0.30926000000000003,-0.2023,24.5,1,860,510,711,2356,33.28546875,52531,21.990914810005567,1013.6528480792139,0,,,,N/A,-1
2024-04-02T10:23:15,1.3962119870999998,-0.14536397295,9.9505527821,0.052534410485029326,0.00045814892864851157,-0.03924809155422249,0.02254,0.30114,-0.21084000000000003,24.5,1,860,510,711,2356,33.147578125,49832,21.949299719286838,1013.6582580841022,0,,,,N/A,-1
