Timestamp,Accel_X,Accel_Y,Accel_Z,Gyro_X,Gyro_Y,Gyro_Z,Mag_X,Mag_Y,Mag_Z,LSM9DS1_Temp,Proximity,Color_R,Color_G,Color_B,Color_C,BME680_Temp,Gas,Humidity,Pressure,Switch_Pressed,GPS_Latitude,GPS_Longitude,GPS_Speed,GPS_Timestamp,Pad_press
2024-04-02T10:15:12,0.0095712904,0.20518453794999997,9.858429112,0.021838432265579053,0.017256942979093935,0.08521570072862314,-0.01022,0.10906000000000002,-0.37912000000000007,19.5,1,5406,1772,1937,12074,33.574921875,25972,100,695.662002676745,0,,,,N/A,False
2024-04-02T10:15:12,0.0,0.19381863059999999,9.98345409285,0.01466076571675237,0.021838432265579053,0.08781187799096472,-0.00882,0.10206000000000001,-0.38276000000000004,19.5,1,5406,1772,1937,12074,33.574921875,25972,100,695.662002676745,0,,,,N/A,False
2024-04-02T10:15:12,-0.0083748791,0.2117648001,9.891330422749999,0.021991148575128558,0.01832595714594046,0.08659014751456869,-0.007700000000000001,0.10990000000000001,-0.38262000000000007,19.5,1,5406,1772,1937,12074,33.574921875,25972,100,695.662002676745,0,,,,N/A,False
2024-04-02T10:15:12,-0.0029910282499999996,0.21236300575,9.878169898449999,0.021532999646480044,0.014966198335851376,0.08933904108645975,-0.00882,0.11130000000000001,-0.37100000000000005,19.5,1,5406,1772,1937,12074,25.3028515625,1657,30.559677329073143,1013.6930050294285,0,,,,N/A,False
2024-04-02T10:15:12,0.011365907350000001,0.20458633229999998,9.927820967399999,0.019089538693687978,0.01832595714594046,0.09010262263420728,-0.009940000000000001,0.11158000000000001,-0.38248000000000004,19.5,1,5406,1772,1937,12074,25.3028515625,1657,30.559677329073143,1013.6930050294285,0,,,,N/A,False
2024-04-02T10:15:12,0.022133609050000003,0.22313070744999997,9.967302540299999,0.02351831167062359,0.022449297503777065,0.08765916168141522,-0.004340000000000001,0.11186000000000001,-0.38724000000000003,19.5,1,5406,1772,1937,12074,25.3028515625,1657,30.559677329073143,1013.6930050294285,0,,,,N/A,False
2024-04-02T10:15:12,-0.021535403399999997,0.19680965884999999,9.932606612599997,0.01618792881224741,0.025809056313866152,0.08827002691961322,-0.010780000000000001,0.11298,-0.37198000000000003,19.5,1,5406,1772,1937,12074,25.5301953125,1990,30.596186482425946,1013.6637492710926,0,,,,N/A,False
2024-04-02T10:15:12,-0.013758729949999998,0.20997018315,9.9206424996,0.020463985479633514,0.020463985479633514,0.08827002691961322,-0.00882,0.10654000000000001,-0.38626000000000005,19.5,1,5406,1772,1937,12074,25.5301953125,1990,30.596186482425946,1013.6637492710926,0,,,,N/A,False
2024-04-02T10:15:12,-0.0023928226,0.20159530404999998,9.92482993915,0.019700403931885997,0.022754730122876075,0.08750644537186571,-0.013300000000000001,0.11158000000000001,-0.3724,19.5,1,5406,1772,1937,12074,25.5301953125,1990,30.596186482425946,1013.6637492710926,0,,,,N/A,False
2024-04-02T10:15:12,0.14117653339999997,0.20039889274999997,9.8680004024,0.01832595714594046,0.020005836550985007,0.08811731061006371,-0.011620000000000002,0.11298,-0.37548000000000004,19.5,1,5406,1772,1937,12074,25.9176953125,2348,30.652304479572678,1013.648801642241,0,,,,N/A,False
2024-04-02T10:15:13,0.0083748791,0.19740786449999997,9.932606612599997,0.0238237442897226,0.022449297503777065,0.08491026810952414,-0.006860000000000001,0.10458,-0.36568,19.5,1,5406,1772,1937,12074,25.9176953125,2348,30.652304479572678,1013.648801642241,0,,,,N/A,False
2024-04-02T10:15:13,-0.0029910282499999996,0.18963119104999998,9.940383286049999,0.016340645121796914,0.02061670178918302,0.08582656596682116,-0.013300000000000001,0.12110000000000001,-0.36568,19.5,1,5406,1772,1937,12074,25.9176953125,2348,30.652304479572678,1013.648801642241,0,,,,N/A,False
2024-04-02T10:15:13,-0.0167497582,0.19621145319999997,9.911669414849998,0.018784106074588976,0.02138028333693054,0.08628471489546968,-0.013580000000000002,0.10654000000000001,-0.37912000000000007,19.5,1,5406,1772,1937,12074,26.3469921875,2691,30.678476361331803,1013.6538820649682,0,,,,N/A,False
2024-04-02T10:15:13,0.0131605243,0.18245272324999998,9.936195846499999,0.02504547476611863,0.022143864884678056,0.08735372906231621,-0.01666,0.10878000000000002,-0.3668,19.5,1,5421,1781,1950,12110,26.3469921875,2691,30.678476361331803,1013.6538820649682,0,,,,N/A,False
2024-04-02T10:15:13,-0.030508488149999995,0.18963119104999998,9.985846915449999,0.020311269170084013,0.018784106074588976,0.0867428638241182,-0.015260000000000001,0.11046,-0.37646,19.5,1,5421,1781,1950,12110,26.3469921875,2691,30.678476361331803,1013.6538820649682,0,,,,N/A,False
2024-04-02T10:15:13,0.014356935599999999,0.19980068709999999,9.9696953629,0.021227567027381034,0.02306016274197508,0.08888089215781124,-0.01862,0.10598,-0.37660000000000005,19.5,1,5421,1781,1950,12110,26.76203125,3121,30.697902159157877,1013.6560715816267,0,,,,N/A,False
2024-04-02T10:15:13,-0.020937197749999997,0.1878365741,9.936794052149999,0.02260201381332657,0.01893682238413848,0.08689558013366769,-0.015260000000000001,0.11802000000000001,-0.38038000000000005,19.5,1,5421,1781,1950,12110,26.76203125,3121,30.697902159157877,1013.6560715816267,0,,,,N/A,False
2024-04-02T10:15:13,-0.0323031051,0.21296121140000002,9.958927661199999,0.02138028333693054,0.019547687622336492,0.08857545953871222,-0.013580000000000002,0.10822000000000001,-0.37044000000000005,19.5,1,5421,1781,1950,12110,26.76203125,3121,30.697902159157877,1013.6560715816267,0,,,,N/A,False
2024-04-02T10:15:13,-0.029312076849999997,0.19680965884999999,9.978070242,0.01756237559819294,0.021227567027381034,0.08750644537186571,-0.00882,0.10374000000000001,-0.37002,19.5,1,5421,1781,1950,12110,27.1380078125,3456,30.708371280134998,1013.650325634854,0,,,,N/A,False
2024-04-02T10:15:13,0.00418743955,0.1950150419,10.03131054485,0.019853120241435502,0.02061670178918302,0.0867428638241182,-0.008260000000000002,0.10934,-0.37898000000000004,19.5,1,5421,1781,1950,12110,27.1380078125,3456,30.708371280134998,1013.650325634854,0,,,,N/A,False
2024-04-02T10:15:13,-0.0167497582,0.19621145319999997,9.98345409285,0.019242255003237483,0.019242255003237483,0.0870482964432172,-0.014420000000000002,0.11326,-0.37926000000000004,19.5,1,5421,1781,1950,12110,27.1380078125,3456,30.708371280134998,1013.650325634854,0,,,,N/A,False
2024-04-02T10:15:13,-0.025722842949999998,0.21296121140000002,9.9828558872,0.021532999646480044,0.020922134408282028,0.08460483549042512,-0.018900000000000004,0.10066000000000001,-0.38542000000000004,19.5,1,5421,1781,1950,12110,27.470234375,3780,30.692503380138163,1013.6523465998762,0,,,,N/A,False
2024-04-02T10:15:13,0.0047856452,0.21834506225,9.957133044249998,0.01832595714594046,0.020463985479633514,0.08659014751456869,-0.007420000000000001,0.10710000000000001,-0.38388000000000005,19.5,1,5421,1781,1950,12110,27.470234375,3780,30.692503380138163,1013.6523465998762,0,,,,N/A,False
2024-04-02T10:15:13,-0.022133609050000003,0.1950150419,9.975079213749998,0.020922134408282028,0.019853120241435502,0.08735372906231621,-0.016380000000000002,0.12782000000000002,-0.37436,19.5,1,5421,1781,1950,12110,27.470234375,3780,30.692503380138163,1013.6523465998762,0,,,,N/A,False
2024-04-02T10:15:13,0.007178467799999999,0.18305092890000002,9.9684989516,0.020311269170084013,0.020158552860534508,0.08811731061006371,-0.009940000000000001,0.10878000000000002,-0.37646,19.5,0,5422,1781,1951,12111,27.7598828125,4108,30.66727120501367,1013.6606955628594,0,,,,N/A,False
2024-04-02T10:15:13,-0.0023928226,0.19680965884999999,9.994820000199999,0.05299255941367784,-0.07330382858376185,-0.05849034655745997,-0.012180000000000002,0.10850000000000001,-0.37758,19.5,0,5422,1781,1951,12111,27.7598828125,4108,30.66727120501367,1013.6606955628594,0,,,,N/A,False
2024-04-02T10:15:13,0.01854437515,0.18364913454999998,9.991230766299998,0.040317105721069016,-0.0357356164345839,-0.05375614096142535,-0.014700000000000001,0.11522000000000002,-0.36022000000000004,19.5,0,5422,1781,1951,12111,27.7598828125,4108,30.66727120501367,1013.6606955628594,0,,,,N/A,False
2024-04-02T10:15:14,-0.005982056499999999,0.20877377184999998,9.99661461715,0.04505131131710364,-0.009926560120717751,-0.05451972250917287,-0.013020000000000002,0.1169,-0.37688000000000005,19.5,0,5422,1781,1951,12111,28.0065625,4412,30.615688208728116,1013.6641733464462,0,,,,N/A,False
2024-04-02T10:15:14,-0.0047856452,0.22313070744999997,10.013962581,0.0355829001250344,0.009315694882519735,-0.050701814770435276,-0.013580000000000002,0.10906000000000002,-0.37772,19.5,0,5422,1781,1951,12111,28.0065625,4412,30.615688208728116,1013.6641733464462,0,,,,N/A,False
2024-04-02T10:15:14,0.0023928226,0.18125631194999997,10.0175518149,0.03283400655314333,0.010995574287564279,-0.04505131131710364,-0.011340000000000001,0.12390000000000001,-0.36176,19.5,0,5422,1781,1951,12111,28.0065625,4412,30.615688208728116,1013.6641733464462,0,,,,N/A,False
2024-04-02T10:15:14,0.0047856452,0.19621145319999997,10.025926693999999,0.04077525464971753,0.011606439525762293,-0.07803803417979646,-0.012740000000000001,0.11914000000000001,-0.37576000000000004,19.5,0,5422,1781,1951,12111,28.2200390625,4726,30.561175142977184,1013.666453025814,0,,,,N/A,False
2024-04-02T10:15:14,0.005982056499999999,0.215354034,10.016953609249999,0.038331793696925465,0.008093964406123704,-0.04321871560250959,-0.0119,0.11578000000000002,-0.37408,19.5,0,5422,1781,1951,12111,28.2200390625,4726,30.561175142977184,1013.666453025814,0,,,,N/A,False
2024-04-02T10:15:14,0.13938191645,0.20578274359999998,9.9972128228,0.03787364476827696,0.007177666548826681,-0.04489859500755413,-0.01106,0.11550000000000002,-0.36484000000000005,19.5,0,5422,1781,1951,12111,28.2200390625,4726,30.561175142977184,1013.666453025814,0,,,,N/A,False
2024-04-02T10:15:14,0.0029910282499999996,0.2069791549,10.00498949625,0.039095375244672985,0.005345070834232635,-0.040317105721069016,-0.006300000000000001,0.10822000000000001,-0.37464000000000003,19.5,0,5422,1781,1951,12111,28.4024609375,5039,30.498278436419774,1013.662213706094,0,,,,N/A,False
2024-04-02T10:15:14,-0.005383850849999999,0.20458633229999998,10.013364375349997,0.04291328298341058,0.0024434609527920616,-0.036499197982331415,-0.010780000000000001,0.10178000000000001,-0.38626000000000005,19.5,0,5422,1781,1951,12111,28.4024609375,5039,30.498278436419774,1013.662213706094,0,,,,N/A,False
2024-04-02T10:15:14,-0.00658026215,0.19381863059999999,10.015757197949998,0.03802636107782646,-0.0003054326190990077,-0.038484510006474966,-0.006580000000000001,0.10962000000000001,-0.38122,19.5,0,5422,1781,1951,12111,28.4024609375,5039,30.498278436419774,1013.662213706094,0,,,,N/A,False
2024-04-02T10:15:14,-0.0095712904,0.19680965884999999,9.990034354999999,0.04321871560250959,0.0,-0.03512475119638588,-0.017220000000000003,0.10906000000000002,-0.38248000000000004,19.5,1,5422,1781,1951,12112,28.560078125,5347,30.42191296516868,1013.6707504553196,0,,,,N/A,False
2024-04-02T10:15:14,-0.0167497582,0.19680965884999999,9.992427177599998,0.04291328298341058,-0.0015271630954950385,-0.038484510006474966,-0.01022,0.11214000000000002,-0.37086,19.5,1,5422,1781,1951,12112,28.560078125,5347,30.42191296516868,1013.6707504553196,0,,,,N/A,False
2024-04-02T10:15:14,-0.0047856452,0.18723836844999997,10.009176935799998,0.04123340357836604,-0.0035124751196385882,-0.038637226316024474,-0.013580000000000002,0.11662,-0.37282000000000004,19.5,1,5422,1781,1951,12112,28.560078125,5347,30.42191296516868,1013.6707504553196,0,,,,N/A,False
2024-04-02T10:15:14,-0.0047856452,0.20817556619999997,10.0115697584,0.03802636107782646,-0.005192354524683131,-0.038331793696925465,-0.01246,0.11354,-0.37912000000000007,19.5,1,5422,1781,1951,12112,28.6962109375,5647,30.34930307998374,1013.6725167155621,0,,,,N/A,False
2024-04-02T10:15:14,0.021535403399999997,0.19800607015,10.0115697584,0.04153883619746505,-0.0033597588100890844,-0.036193765363232405,-0.01946,0.10626000000000001,-0.38136000000000003,19.5,1,5422,1781,1951,12112,28.6962109375,5647,30.34930307998374,1013.6725167155621,0,,,,N/A,False
2024-04-02T10:15:14,0.14656038424999998,0.21296121140000002,10.0103733471,0.03924809155422249,-0.0027488935718910697,-0.038637226316024474,-0.00462,0.10794000000000001,-0.37898000000000004,19.5,1,5422,1781,1951,12112,28.6962109375,5647,30.34930307998374,1013.6725167155621,0,,,,N/A,False
2024-04-02T10:15:14,0.005982056499999999,0.18604195715,10.0163554036,0.039095375244672985,-0.002901609881440573,-0.03543018381548489,-0.013580000000000002,0.12446,-0.36876000000000003,19.5,1,5422,1781,1951,12112,28.8153515625,5879,30.263932001095696,1013.6785107573705,0,,,,N/A,False
2024-04-02T10:15:15,0.0077766734499999995,0.21116659445,10.0223374601,0.041844268816564056,-0.0013744467859455349,-0.039095375244672985,-0.01022,0.11830000000000002,-0.3829,19.5,1,5422,1781,1951,12112,28.8153515625,5879,30.263932001095696,1013.6785107573705,0,,,,N/A,False
2024-04-02T10:15:15,0.00418743955,0.21296121140000002,10.0175518149,0.041691552507014555,-0.006261368691529657,-0.039095375244672985,-0.014420000000000002,0.10598,-0.38402000000000003,19.5,1,5422,1781,1951,12112,28.8153515625,5879,30.263932001095696,1013.6785107573705,0,,,,N/A,False
2024-04-02T10:15:15,-0.0017946169499999999,0.19022939669999997,10.03729260135,0.03924809155422249,-0.003054326190990077,-0.036499197982331415,-0.01946,0.11774000000000001,-0.37576000000000004,19.5,1,5422,1781,1951,12112,28.9180859375,6205,30.1658704399203,1013.6789789352707,0,,,,N/A,False
2024-04-02T10:15:15,-0.0017946169499999999,0.1890329854,10.0666046782,0.0435241482216086,-0.0022907446432425577,-0.03772092845872745,-0.01694,0.11942000000000001,-0.37548000000000004,19.5,1,5422,1781,1951,12112,28.9180859375,6205,30.1658704399203,1013.6789789352707,0,,,,N/A,False
2024-04-02T10:15:15,0.00658026215,0.20757736054999998,10.012167964049999,0.038179077387375956,0.0013744467859455349,-0.036193765363232405,-0.01106,0.12334000000000002,-0.38206000000000007,19.5,0,5424,1781,1951,12117,28.9180859375,6205,30.1658704399203,1013.6789789352707,0,,,,N/A,False
2024-04-02T10:15:15,0.0077766734499999995,0.20578274359999998,10.03250695615,0.04627304179349966,-0.0027488935718910697,-0.038942658935123484,-0.010780000000000001,0.11774000000000001,-0.36876000000000003,19.5,0,5424,1781,1951,12117,29.008515625,6520,30.083662034019937,1013.6860532719912,0,,,,N/A,False
2024-04-02T10:15:15,0.0323031051,0.16929219894999997,9.972088185499999,0.04413501345980661,-0.0009162978572970231,-0.03756821214917795,-0.0175,0.10654000000000001,-0.36610000000000004,19.5,0,5424,1781,1951,12117,29.008515625,6520,30.083662034019937,1013.6860532719912,0,,,,N/A,False
2024-04-02T10:15:15,0.0131605243,0.20338992099999997,10.00977514145,0.04245513405476207,-0.00045814892864851157,-0.03588833274413341,-0.015540000000000002,0.11158000000000001,-0.37408,19.5,0,5424,1781,1951,12117,29.008515625,6520,30.083662034019937,1013.6860532719912,0,,,,N/A,False
2024-04-02T10:15:15,-0.010169496049999999,0.1782652837,10.000203851049998,0.0435241482216086,0.0003054326190990077,-0.036804630601430424,-0.006300000000000001,0.11326,-0.38010000000000005,19.5,0,5424,1781,1951,12117,29.087421875,6838,29.989209362424337,1013.6831204528951,0,,,,N/A,False
2024-04-02T10:15:15,-0.015553346899999999,0.1328016543,10.05763159345,0.04642575810304917,0.002138028333693054,-0.03802636107782646,-0.020020000000000003,0.12222000000000001,-0.36176,19.5,0,5424,1781,1951,12117,29.087421875,6838,29.989209362424337,1013.6831204528951,0,,,,N/A,5
2024-04-02T10:15:15,0.0029910282499999996,0.19800607015,9.9732845968,0.041080687268816536,-0.0038179077387375964,-0.03924809155422249,-0.018060000000000003,0.10514000000000001,-0.36526000000000003,19.5,0,5424,1781,1951,12117,29.157734375,7164,29.88279137379284,1013.6857510753815,0,,,,N/A,5
2024-04-02T10:15:15,-0.05563312545,0.1328016543,10.079765202499999,0.041080687268816536,-0.005803219762881146,-0.039095375244672985,-0.01106,0.10990000000000001,-0.37534,19.5,0,5424,1781,1951,12117,29.157734375,7164,29.88279137379284,1013.6857510753815,0,,,,N/A,5
2024-04-02T10:15:15,-0.0167497582,0.24466611084999998,9.961320483799998,0.04459316238845512,-0.005345070834232635,-0.04077525464971753,-0.009940000000000001,0.10850000000000001,-0.37870000000000004,19.5,0,5424,1781,1951,12117,29.157734375,7164,29.88279137379284,1013.6857510753815,0,,,,N/A,5
2024-04-02T10:15:15,-0.00658026215,0.19621145319999997,10.007382318849999,0.039095375244672985,0.004276056667386108,-0.038942658935123484,-0.02058,0.10402000000000002,-0.37548000000000004,19.5,0,5424,1781,1951,12117,29.219453125,7479,29.792547798804538,1013.6885797167769,0,,,,N/A,-1
2024-04-02T10:15:15,0.00418743955,0.22851455829999998,10.071988529050001,0.03802636107782646,-0.00045814892864851157,-0.038179077387375956,-0.017220000000000003,0.10850000000000001,-0.38934,19.5,1,5420,1779,1948,12107,29.219453125,7479,29.792547798804538,1013.6885797167769,0,,,,N/A,-1
2024-04-02T10:15:15,-0.0083748791,0.19441683624999997,9.9696953629,0.039553524173321496,-0.0015271630954950385,-0.0355829001250344,-0.022820000000000003,0.10738,-0.37898000000000004,19.5,1,5420,1779,1948,12107,29.2753125,7824,29.69621283033438,1013.6907284512768,0,,,,N/A,-1
2024-04-02T10:15:16,-0.0334995164,0.19322042494999997,10.034301573099999,0.0433714319120591,-0.002138028333693054,-0.03772092845872745,-0.017220000000000003,0.10402000000000002,-0.38416,19.5,1,5420,1779,1948,12107,29.2753125,7824,29.69621283033438,1013.6907284512768,0,,,,N/A,-1
2024-04-02T10:15:16,0.0011964113,0.20039889274999997,9.972088185499999,0.04413501345980661,-0.0025961772623415654,-0.03772092845872745,-0.012740000000000001,0.11550000000000002,-0.37506000000000006,19.5,1,5420,1779,1948,12107,29.2753125,7824,29.69621283033438,1013.6907284512768,0,,,,N/A,-1
2024-04-02T10:15:16,-0.00658026215,0.19022939669999997,10.0773723799,0.03802636107782646,-0.0012217304763960308,-0.038942658935123484,-0.01694,0.11746000000000001,-0.37674,19.5,1,5420,1779,1948,12107,29.326875,8145,29.593934861766385,1013.6947674466994,0,,,,N/A,-1
2024-04-02T10:15:16,0.013758729949999998,0.20578274359999998,10.0008020567,0.043676864531158106,-0.002901609881440573,-0.040317105721069016,-0.023940000000000003,0.10458,-0.38864000000000004,19.5,1,5420,1779,1948,12107,29.326875,8145,29.593934861766385,1013.6947674466994,0,,,,N/A,-1
2024-04-02T10:15:16,0.010169496049999999,0.20817556619999997,10.019944637499998,0.039706240482871004,-0.0035124751196385882,-0.04016438941151951,-0.02198,0.10318000000000001,-0.3861200000000001,19.5,1,5420,1779,1948,12107,29.326875,8145,29.593934861766385,1013.6947674466994,0,,,,N/A,-1
2024-04-02T10:15:16,0.0029910282499999996,0.20638094924999997,10.11386292455,0.04046982203061852,0.0016798794050445422,-0.036804630601430424,-0.01862,0.10458,-0.38472,19.5,1,5420,1779,1948,12107,29.37296875,8500,29.502465504626564,1013.6933991355846,0,,,,N/A,-1
2024-04-02T10:15:16,0.04007977854999999,0.18424734019999997,10.05763159345,0.040622538340168025,-0.0015271630954950385,-0.039400807863771994,-0.01246,0.10738,-0.37324,19.5,1,5420,1779,1948,12107,29.37296875,8500,29.502465504626564,1013.6933991355846,0,,,,N/A,-1
2024-04-02T10:15:16,0.015553346899999999,0.19262221929999998,10.033105161799998,0.040317105721069016,-0.001069014166846527,-0.0355829001250344,-0.01666,0.11354,-0.37604000000000004,19.5,1,5420,1779,1948,12107,29.37296875,8500,29.502465504626564,1013.6933991355846,0,,,,N/A,-1
2024-04-02T10:15:16,-0.01854437515,0.18305092890000002,10.0366943957,0.04245513405476207,-0.0027488935718910697,-0.04001167310197001,-0.018060000000000003,0.11130000000000001,-0.3647,19.5,1,5420,1779,1948,12107,29.414765625,8806,29.41627974375156,1013.6903423905146,0,,,,N/A,-1
2024-04-02T10:15:16,0.0047856452,0.18963119104999998,10.03848901265,0.04291328298341058,-0.002138028333693054,-0.04016438941151951,-0.011340000000000001,0.11074,-0.37464000000000003,19.5,1,5420,1779,1948,12107,29.414765625,8806,29.41627974375156,1013.6903423905146,0,,,,N/A,-1
2024-04-02T10:15:16,-0.01974078645,0.21296121140000002,10.028319516599998,0.04092797095926703,-0.0016798794050445422,-0.038637226316024474,-0.013020000000000002,0.0987,-0.36372000000000004,19.5,0,5419,1778,1946,12100,29.414765625,8806,29.41627974375156,1013.6903423905146,0,,,,N/A,-1
2024-04-02T10:15:16,-0.011365907350000001,0.18723836844999997,10.118050364099998,0.04428772976935611,-0.004123340357836604,-0.04291328298341058,-0.013300000000000001,0.10626000000000001,-0.37884,19.5,0,5419,1778,1946,12100,29.454609375,9095,29.307536286211256,1013.7002021995692,0,,,,N/A,1
2024-04-02T10:15:16,0.005383850849999999,0.21714865095,10.107880868049998,0.04566217655530165,-0.0006108652381980154,-0.04077525464971753,-0.010500000000000002,0.11662,-0.36526000000000003,20.5,0,5419,1778,1946,12100,29.454609375,9095,29.307536286211256,1013.7002021995692,0,,,,N/A,1
2024-04-02T10:15:16,-0.011365907350000001,0.20039889274999997,10.0115697584,0.0433714319120591,-0.002901609881440573,-0.04123340357836604,-0.01246,0.11942000000000001,-0.39270000000000005,19.5,0,5419,1778,1946,12100,29.4911328125,9421,29.204178229233097,1013.6992268638,0,,,,N/A,1
2024-04-02T10:15:16,-0.0167497582,0.179461695,10.092327521149999,0.038331793696925465,0.0003054326190990077,-0.038484510006474966,-0.009940000000000001,0.10626000000000001,-0.38724000000000003,19.5,0,5419,1778,1946,12100,29.4911328125,9421,29.204178229233097,1013.6992268638,0,,,,N/A,-1
2024-04-02T10:15:17,-0.040677984199999996,0.215354034,9.972088185499999,0.039095375244672985,-0.001069014166846527,-0.038942658935123484,-0.016380000000000002,0.11774000000000001,-0.37604000000000004,19.5,0,5419,1778,1946,12100,29.52609375,9752,29.117546881179877,1013.7010578915463,0,,,,N/A,-1
2024-04-02T10:15:17,0.0131605243,0.20817556619999997,10.052247742599999,0.041691552507014555,-0.005039638215133627,-0.04123340357836604,-0.021700000000000004,0.11130000000000001,-0.37520000000000003,20.5,0,5419,1778,1946,12100,29.52609375,9752,29.117546881179877,1013.7010578915463,0,,,,N/A,-1
2024-04-02T10:15:17,-0.0017946169499999999,0.1878365741,9.994221794549999,0.038179077387375956,-0.0019853120241435504,-0.040622538340168025,-0.010500000000000002,0.11382,-0.37884,19.5,0,5419,1778,1946,12100,29.52609375,9752,29.117546881179877,1013.7010578915463,0,,,,N/A,-1
2024-04-02T10:15:17,0.007178467799999999,0.20338992099999997,10.00498949625,0.04245513405476207,-0.0013744467859455349,-0.041080687268816536,-0.012180000000000002,0.11186000000000001,-0.38178,19.5,0,5419,1778,1946,12100,29.5583203125,10108,29.013933848974144,1013.7019798289346,0,,,,N/A,-1
2024-04-02T10:15:17,-0.005982056499999999,0.20817556619999997,10.006784113199998,0.0435241482216086,-0.002901609881440573,-0.038331793696925465,-0.01694,0.1029,-0.37982000000000005,19.5,2,5419,1779,1947,12103,29.5583203125,10108,29.013933848974144,1013.7019798289346,0,,,,N/A,-1
2024-04-02T10:15:17,-0.048454657649999996,0.19561324754999998,10.0366943957,0.04688390703169768,0.0003054326190990077,-0.04230241774521256,-0.01862,0.11438000000000001,-0.36694000000000004,19.5,2,5419,1779,1947,12103,29.5583203125,10108,29.013933848974144,1013.7019798289346,0,,,,N/A,-1
2024-04-02T10:15:17,0.00059820565,0.19920248144999997,10.04985492,0.04077525464971753,-0.0006108652381980154,-0.04123340357836604,-0.0119,0.11830000000000002,-0.3794,19.5,2,5419,1779,1947,12103,29.5878125,10439,28.921336917500817,1013.7055792947676,0,,,,N/A,-1
2024-04-02T10:15:17,0.023928225999999997,0.19202401365,10.052247742599999,0.04153883619746505,0.0009162978572970231,-0.03924809155422249,-0.00574,0.11270000000000002,-0.3829,20.5,2,5419,1779,1947,12103,29.5878125,10439,28.921336917500817,1013.7055792947676,0,,,,N/A,-1
2024-04-02T10:15:17,0.010169496049999999,0.2009970984,10.02652489965,0.04077525464971753,0.0009162978572970231,-0.03512475119638588,-0.0161,0.10878000000000002,-0.3773,19.5,2,5419,1779,1947,12103,29.5878125,10439,28.921336917500817,1013.7055792947676,0,,,,N/A,-1
2024-04-02T10:15:17,-0.0017946169499999999,0.21236300575,10.06361364995,0.04382958084070761,0.0007635815477475193,-0.04245513405476207,-0.00882,0.11382,-0.38598000000000005,19.5,2,5419,1779,1947,12103,29.6165234375,10748,28.823134336280205,1013.7114783326131,0,,,,N/A,-1
2024-04-02T10:15:17,0.01734796385,0.19381863059999999,10.0163554036,0.040622538340168025,0.00015271630954950385,-0.038179077387375956,-0.01386,0.10738,-0.37814000000000003,19.5,2,5419,1779,1947,12103,29.6165234375,10748,28.823134336280205,1013.7114783326131,0,,,,N/A,-1
2024-04-02T10:15:17,-0.0017946169499999999,0.20578274359999998,10.025926693999999,0.04459316238845512,0.00045814892864851157,-0.040317105721069016,-0.01582,0.11774000000000001,-0.36736,20.5,2,5419,1779,1947,12103,29.6165234375,10748,28.823134336280205,1013.7114783326131,0,,,,N/A,-1
2024-04-02T10:15:17,0.010767701699999998,0.22073788485,9.995418205850001,0.038637226316024474,-0.0006108652381980154,-0.03924809155422249,-0.012740000000000001,0.11998000000000002,-0.37604000000000004,19.5,2,5419,1779,1947,12103,29.643671875,11111,28.741615588926976,1013.7094303442993,0,,,,N/A,-1
2024-04-02T10:15:17,-0.0011964113,0.18484554585,10.043274657849999,0.038789942625573975,-0.0006108652381980154,-0.040622538340168025,-0.014980000000000002,0.10934,-0.3864,19.5,2,5419,1779,1947,12103,29.643671875,11111,28.741615588926976,1013.7094303442993,0,,,,N/A,-1
2024-04-02T10:15:17,0.010169496049999999,0.21834506225,9.992427177599998,0.04321871560250959,0.0015271630954950385,-0.038637226316024474,-0.01778,0.11158000000000001,-0.3836,20.5,2,5419,1779,1947,12103,29.643671875,11111,28.741615588926976,1013.7094303442993,0,,,,N/A,-1
2024-04-02T10:15:17,0.0263210486,0.2165504453,10.040283629599998,0.0009162978572970231,-0.0007635815477475193,-0.0355829001250344,-0.01946,0.11466000000000001,-0.37870000000000004,19.5,2,5419,1779,1947,12103,29.6692578125,11400,28.660003498669887,1013.7101929710645,0,,,,N/A,-1
2024-04-02T10:15:18,-0.0029910282499999996,0.0526420972,10.207183005950002,0.04321871560250959,-0.0007635815477475193,-0.041080687268816536,-0.01582,0.12614,-0.37520000000000003,20.5,1,5421,1779,1947,12105,29.6692578125,11400,28.660003498669887,1013.7101929710645,0,,,,N/A,-1
2024-04-02T10:15:18,0.0035892338999999997,0.2069791549,10.085149053349998,0.043676864531158106,-0.0007635815477475193,-0.039858956792420505,-0.01414,0.11662,-0.3703,19.5,1,5421,1779,1947,12105,29.6692578125,11400,28.660003498669887,1013.7101929710645,0,,,,N/A,-1
2024-04-02T10:15:18,-0.03170489945,0.19262221929999998,10.039087218299999,0.04123340357836604,-0.007177666548826681,-0.03924809155422249,-0.015540000000000002,0.11830000000000002,-0.37548000000000004,20.5,1,5421,1779,1947,12105,29.694453125,11784,28.572817174410584,1013.6995530337383,0,,,,N/A,-1
2024-04-02T10:15:18,0.047856451999999994,0.22911276394999996,10.030712339199999,0.039400807863771994,-0.005192354524683131,-0.037110063220529434,-0.012180000000000002,0.10038000000000001,-0.38164000000000003,20.5,1,5421,1779,1947,12105,29.694453125,11784,28.572817174410584,1013.6995530337383,0,,,,N/A,-1
2024-04-02T10:15:18,0.044267218100000005,0.23449661479999998,10.004391290600001,0.039706240482871004,-0.009926560120717751,-0.03741549583962844,-0.0119,0.11494000000000001,-0.3831800000000001,20.5,1,5421,1779,1947,12105,29.694453125,11784,28.572817174410584,1013.6995530337383,0,,,,N/A,-1
2024-04-02T10:15:18,-0.05682953674999999,0.16869399329999998,10.04566748045,0.04245513405476207,-0.003207042500539581,-0.040317105721069016,-0.01778,0.10990000000000001,-0.3906,19.5,1,5421,1779,1947,12105,29.7176953125,12109,28.474358070324755,1013.6892898140295,0,,,,N/A,-1
2024-04-02T10:15:18,-0.005982056499999999,0.22013967919999997,10.021739254449999,0.04459316238845512,-0.0027488935718910697,-0.039095375244672985,-0.01862,0.11634000000000001,-0.36806000000000005,20.5,1,5421,1779,1947,12105,29.7176953125,12109,28.474358070324755,1013.6892898140295,0,,,,N/A,-1
2024-04-02T10:15:18,-0.1471585899,0.20039889274999997,10.276574861349998,0.04810563750809371,0.0068722339297276735,-0.038942658935123484,-0.01666,0.11746000000000001,-0.37786000000000003,20.5,1,5421,1779,1947,12105,29.7176953125,12109,28.474358070324755,1013.6892898140295,0,,,,N/A,-1
2024-04-02T10:15:18,-0.12263215824999998,0.23210379219999996,10.155737320049997,0.04474587869800463,-0.0027488935718910697,-0.04046982203061852,-0.01862,0.11550000000000002,-0.37786000000000003,20.5,1,5421,1779,1947,12105,29.741328125,12430,28.387138433402235,1013.6886305805513,0,,,,N/A,-1
2024-04-02T10:15:18,-0.0382851616,0.2105683888,10.0055877019,0.03741549583962844,-0.006414085001079162,-0.03741549583962844,-0.01386,0.11214000000000002,-0.37352,20.5,1,5421,1779,1947,12105,29.741328125,12430,28.387138433402235,1013.6886305805513,0,,,,N/A,-1
2024-04-02T10:15:18,0.0131605243,0.20219350969999997,9.990034354999999,0.040622538340168025,0.0025961772623415654,-0.038484510006474966,-0.015260000000000001,0.11130000000000001,-0.38248000000000004,19.5,1,5421,1779,1947,12105,29.741328125,12430,28.387138433402235,1013.6886305805513,0,,,,N/A,-1
2024-04-02T10:15:18,-0.020338992099999998,0.19860427579999998,10.013364375349997,0.0435241482216086,-0.0003054326190990077,-0.03741549583962844,-0.01386,0.11186000000000001,-0.37506000000000006,19.5,1,5421,1779,1947,12105,29.763984375,12753,28.299883230107316,1013.6917457185034,0,,,,N/A,-1
2024-04-02T10:15:18,-0.0047856452,0.22313070744999997,10.034899778749999,0.036499197982331415,-0.003054326190990077,-0.03802636107782646,-0.00882,0.11522000000000002,-0.3931200000000001,20.5,0,5422,1780,1948,12107,29.763984375,12753,28.299883230107316,1013.6917457185034,0,,,,N/A,-1
2024-04-02T10:15:18,0.0047856452,0.20817556619999997,10.01456078665,0.0433714319120591,-0.0022907446432425577,-0.036499197982331415,-0.012180000000000002,0.12278000000000001,-0.37856000000000006,19.5,0,5422,1780,1948,12107,29.763984375,12753,28.299883230107316,1013.6917457185034,0,,,,N/A,-1
2024-04-02T10:15:18,-0.0191425808,0.1531406464,10.039685423949999,0.04306599929296009,-0.0016798794050445422,-0.039553524173321496,-0.012180000000000002,0.12250000000000001,-0.38108000000000003,20.5,0,5422,1780,1948,12107,29.78546875,13069,28.223711626784343,1013.6929353739014,0,,,,N/A,-1
2024-04-02T10:15:18,0.007178467799999999,0.20338992099999997,10.085149053349998,0.039095375244672985,-0.0013744467859455349,-0.036804630601430424,-0.01022,0.11466000000000001,-0.38066,19.5,0,5422,1780,1948,12107,29.78546875,13069,28.223711626784343,1013.6929353739014,0,,,,N/A,-1
2024-04-02T10:15:19,-0.010767701699999998,0.21714865095,9.997811028449998,0.041844268816564056,-0.002901609881440573,-0.03772092845872745,-0.01694,0.11970000000000001,-0.36834000000000006,19.5,0,5422,1780,1948,12107,29.78546875,13069,28.223711626784343,1013.6929353739014,0,,,,N/A,9
2024-04-02T10:15:19,0.015553346899999999,0.19082760235,10.1479606466,0.040622538340168025,-0.0033597588100890844,-0.038331793696925465,-0.02058,0.10990000000000001,-0.38542000000000004,20.5,0,5422,1780,1948,12107,29.8055859375,13436,28.11963962135346,1013.6936725181283,0,,,,N/A,9
2024-04-02T10:15:19,0.00418743955,0.179461695,10.046863891749998,0.041996985126113565,-0.0015271630954950385,-0.04245513405476207,-0.007980000000000001,0.10542000000000001,-0.3829,19.5,0,5422,1780,1948,12107,29.8055859375,13436,28.11963962135346,1013.6936725181283,0,,,,N/A,9
2024-04-02T10:15:19,-0.025722842949999998,0.2069791549,10.009176935799998,0.03634648167278191,-0.004276056667386108,-0.038789942625573975,-0.019180000000000003,0.11018,-0.37828,19.5,0,5422,1780,1948,12107,29.8055859375,13436,28.11963962135346,1013.6936725181283,0,,,,N/A,9
2024-04-02T10:15:19,-0.00658026215,0.22073788485,10.03250695615,0.04382958084070761,-0.005192354524683131,-0.037110063220529434,-0.010780000000000001,0.10822000000000001,-0.37786000000000003,20.5,0,5422,1780,1948,12107,29.82453125,13751,28.048902384771274,1013.6871043058601,0,,,,N/A,-1
2024-04-02T10:15:19,0.020937197749999997,0.18843477974999998,10.1312108884,0.04505131131710364,-0.0036651914291880926,-0.039706240482871004,-0.013580000000000002,0.12082000000000001,-0.39452000000000004,20.5,0,5422,1780,1948,12107,29.82453125,13751,28.048902384771274,1013.6871043058601,0,,,,N/A,-1
2024-04-02T10:15:19,-0.0023928226,0.19441683624999997,10.007980524499999,0.041844268816564056,0.0,-0.038942658935123484,-0.01974,0.11578000000000002,-0.38304000000000005,20.5,0,5422,1780,1948,12107,29.8440625,14072,27.978244214432106,1013.6922565914551,0,,,,N/A,-1
2024-04-02T10:15:19,-0.011365907350000001,0.19860427579999998,9.958927661199999,0.041080687268816536,-0.00595593607243065,-0.043676864531158106,-0.01666,0.11130000000000001,-0.37324,19.5,0,5422,1780,1949,12107,29.8440625,14072,27.978244214432106,1013.6922565914551,0,,,,N/A,-1
2024-04-02T10:15:19,0.028713871199999998,0.21595223965000002,9.988239738049998,0.04276056667386108,-0.0012217304763960308,-0.038637226316024474,-0.020860000000000004,0.11102000000000001,-0.38164000000000003,20.5,0,5422,1780,1949,12107,29.8440625,14072,27.978244214432106,1013.6922565914551,0,,,,N/A,-1
2024-04-02T10:15:19,0.005982056499999999,0.22731814699999997,10.0929257268,0.039095375244672985,-0.0025961772623415654,-0.038331793696925465,-0.013020000000000002,0.11550000000000002,-0.38248000000000004,19.5,0,5422,1780,1949,12107,29.86203125,14418,27.896375591721092,1013.6876690685389,0,,,,N/A,-1
2024-04-02T10:15:19,-0.011365907350000001,0.18005990065000002,10.028917722249998,0.039553524173321496,-0.002901609881440573,-0.039400807863771994,-0.008260000000000002,0.11074,-0.38752000000000003,20.5,0,5422,1780,1949,12107,29.86203125,14418,27.896375591721092,1013.6876690685389,0,,,,N/A,-1
2024-04-02T10:15:19,-0.005383850849999999,0.22013967919999997,10.0055877019,0.041844268816564056,-0.005345070834232635,-0.038179077387375956,-0.020860000000000004,0.11774000000000001,-0.37716000000000005,20.5,0,5422,1780,1949,12107,29.86203125,14418,27.896375591721092,1013.6876690685389,0,,,,N/A,9
2024-04-02T10:15:19,0.00658026215,0.19860427579999998,10.006784113199998,0.04535674393620265,-0.007483099167925688,-0.036804630601430424,-0.0119,0.12782000000000002,-0.3831800000000001,19.5,0,5422,1780,1949,12107,29.8809765625,14751,27.820182264046394,1013.6864760208194,0,,,,N/A,9
2024-04-02T10:15:19,0.0035892338999999997,0.19680965884999999,10.063015444300001,0.041844268816564056,-0.0007635815477475193,-0.038637226316024474,-0.018060000000000003,0.10598,-0.37716000000000005,19.5,0,5422,1780,1949,12107,29.8809765625,14751,27.820182264046394,1013.6864760208194,0,,,,N/A,9
2024-04-02T10:15:19,0.0017946169499999999,0.20997018315,10.0115697584,0.03313943917224234,-0.0009162978572970231,-0.04001167310197001,-0.02114,0.10962000000000001,-0.37786000000000003,19.5,0,5422,1780,1949,12107,29.8809765625,14751,27.820182264046394,1013.6864760208194,0,,,,N/A,-1
2024-04-02T10:15:19,0.0011964113,0.17886348935000002,10.02293566575,0.04428772976935611,-0.003054326190990077,-0.04276056667386108,-0.01778,0.11354,-0.3861200000000001,20.5,0,5422,1780,1949,12107,29.898359375,15067,27.749446228600146,1013.6863044286507,0,,,,N/A,-1
2024-04-02T10:15:20,-0.0334995164,0.20219350969999997,10.027123105299998,0.039858956792420505,-0.002901609881440573,-0.03756821214917795,-0.01386,0.11606000000000001,-0.38122,20.5,0,5422,1780,1949,12107,29.898359375,15067,27.749446228600146,1013.6863044286507,0,,,,N/A,-1
2024-04-02T10:15:20,0.00059820565,0.19621145319999997,10.077970585549998,0.04276056667386108,0.002138028333693054,-0.03695734691097993,-0.00882,0.11158000000000001,-0.38388000000000005,20.5,0,5422,1780,1949,12107,29.898359375,15067,27.749446228600146,1013.6863044286507,0,,,,N/A,-1
2024-04-02T10:15:20,-0.010767701699999998,0.20458633229999998,10.03729260135,0.0022907446432425577,-0.0025961772623415654,-0.038331793696925465,-0.014700000000000001,0.11270000000000002,-0.37912000000000007,19.5,0,5422,1780,1949,12107,29.9149609375,15397,27.667582456994474,1013.6902304569455,0,,,,N/A,-1
2024-04-02T10:15:20,-0.04307080679999999,0.20817556619999997,10.019944637499998,0.04016438941151951,-0.001069014166846527,-0.03695734691097993,-0.023660000000000004,0.10542000000000001,-0.37422000000000005,20.5,1,5422,1781,1949,12107,29.9149609375,15397,27.667582456994474,1013.6902304569455,0,,,,N/A,-1
2024-04-02T10:15:20,0.02691925425,0.19680965884999999,10.028319516599998,0.04016438941151951,-0.0012217304763960308,-0.038331793696925465,-0.0161,0.12474,-0.37800000000000006,20.5,1,5422,1781,1949,12107,29.9149609375,15397,27.667582456994474,1013.6902304569455,0,,,,N/A,-1
2024-04-02T10:15:20,0.011964112999999998,0.21595223965000002,10.034301573099999,0.041691552507014555,-0.0007635815477475193,-0.038331793696925465,-0.013300000000000001,0.11410000000000001,-0.37842000000000003,19.5,1,5422,1781,1949,12107,29.9313671875,15730,27.59683376489531,1013.6938349304322,0,,,,N/A,5
2024-04-02T10:15:20,0.01854437515,0.19262221929999998,9.985248709799999,0.038789942625573975,-0.0019853120241435504,-0.03634648167278191,-0.017220000000000003,0.10682000000000001,-0.38696,20.5,1,5422,1781,1949,12107,29.9313671875,15730,27.59683376489531,1013.6938349304322,0,,,,N/A,5
2024-04-02T10:15:20,0.0047856452,0.20039889274999997,9.9936235889,0.04428772976935611,-0.0019853120241435504,-0.037110063220529434,-0.01582,0.10878000000000002,-0.3808,20.5,1,5422,1781,1949,12107,29.9466015625,16041,27.509396160513912,1013.6955153721101,0,,,,N/A,5
2024-04-02T10:15:20,-0.005383850849999999,0.2237289131,10.068997500799998,0.041386119887915546,-0.0036651914291880926,-0.04046982203061852,-0.0119,0.12082000000000001,-0.3759,20.5,1,5422,1781,1949,12107,29.9466015625,16041,27.509396160513912,1013.6955153721101,0,,,,N/A,5
2024-04-02T10:15:20,0.010169496049999999,0.19800607015,10.050453125649998,0.07803803417979646,-0.0012217304763960308,-0.039553524173321496,-0.012180000000000002,0.12474,-0.38682000000000005,19.5,1,5422,1781,1949,12107,29.9466015625,16041,27.509396160513912,1013.6955153721101,0,,,,N/A,5
2024-04-02T10:15:20,0.0017946169499999999,0.22731814699999997,10.0534441539,0.043982297150257116,-0.0019853120241435504,-0.03772092845872745,-0.0035000000000000005,0.12586000000000003,-0.38010000000000005,20.5,1,5422,1781,1949,12107,29.9626171875,16352,27.449763807392387,1013.6966830035592,0,,,,N/A,5
2024-04-02T10:15:20,0.03170489945,0.20458633229999998,9.98704332675,0.041691552507014555,-0.003207042500539581,-0.040317105721069016,-0.017220000000000003,0.11214000000000002,-0.39648,20.5,1,5422,1781,1949,12107,29.9626171875,16352,27.449763807392387,1013.6966830035592,0,,,,N/A,-1
2024-04-02T10:15:20,0.12442677519999999,0.20877377184999998,9.985248709799999,0.04520402762665314,0.002138028333693054,-0.03588833274413341,-0.02338,0.10766,-0.3796800000000001,20.5,1,5422,1781,1949,12107,29.9626171875,16352,27.449763807392387,1013.6966830035592,0,,,,N/A,-1
2024-04-02T10:15:20,0.010169496049999999,0.20398812665,10.104291634149998,0.04077525464971753,-0.0015271630954950385,-0.038179077387375956,-0.012740000000000001,0.10458,-0.39186,20.5,0,5425,1781,1950,12109,29.97765625,16701,27.38453709091458,1013.6944532469813,0,,,,N/A,-1
2024-04-02T10:15:20,0.0047856452,0.24227328824999997,9.97148997985,0.04123340357836604,0.0003054326190990077,-0.03604104905368291,-0.016380000000000002,0.12054000000000001,-0.37618000000000007,20.5,0,5425,1781,1950,12109,29.97765625,16701,27.38453709091458,1013.6944532469813,0,,,,N/A,-1
2024-04-02T10:15:20,-0.013758729949999998,0.19800607015,10.1048898398,0.040317105721069016,-0.0022907446432425577,-0.03726277953007894,-0.01246,0.10822000000000001,-0.38304000000000005,20.5,0,5425,1781,1950,12109,29.97765625,16701,27.38453709091458,1013.6944532469813,0,,,,N/A,10
2024-04-02T10:15:21,0.011365907350000001,0.19800607015,10.039087218299999,0.039858956792420505,-0.0024434609527920616,-0.03756821214917795,-0.014420000000000002,0.11774000000000001,-0.38570000000000004,20.5,0,5425,1781,1950,12109,29.9919140625,17066,27.31373961519474,1013.6945282214979,0,,,,N/A,10
2024-04-02T10:15:21,0.0077766734499999995,0.1878365741,10.03729260135,0.0433714319120591,0.00045814892864851157,-0.039858956792420505,-0.015540000000000002,0.12138000000000002,-0.37576000000000004,20.5,0,5425,1781,1950,12109,29.9919140625,17066,27.31373961519474,1013.6945282214979,0,,,,N/A,10
2024-04-02T10:15:21,0.0077766734499999995,0.19082760235,10.034301573099999,0.037110063220529434,0.001069014166846527,-0.039553524173321496,-0.01666,0.11382,-0.38192000000000004,19.5,0,5425,1781,1950,12109,29.9919140625,17066,27.31373961519474,1013.6945282214979,0,,,,N/A,10
2024-04-02T10:15:21,0.025722842949999998,0.2069791549,10.100702400249999,0.04153883619746505,-0.0018325957145940463,-0.038637226316024474,-0.00854,0.12754000000000001,-0.3738,20.5,0,5425,1781,1950,12109,30.006171875,17361,27.25956883222838,1013.6981901315697,0,,,,N/A,-1
2024-04-02T10:15:21,-0.0263210486,0.18723836844999997,10.03131054485,0.041691552507014555,-0.003207042500539581,-0.04245513405476207,-0.01246,0.12558000000000002,-0.37702,20.5,0,5425,1781,1950,12109,30.006171875,17361,27.25956883222838,1013.6981901315697,0,,,,N/A,-1
2024-04-02T10:15:21,0.14117653339999997,0.20518453794999997,10.0223374601,0.039706240482871004,-0.0018325957145940463,-0.039095375244672985,-0.01946,0.1169,-0.39326000000000005,20.5,0,5425,1781,1950,12109,30.006171875,17361,27.25956883222838,1013.6981901315697,0,,,,N/A,-1
2024-04-02T10:15:21,-0.017946169499999998,0.1806581063,10.000203851049998,0.040622538340168025,-0.0025961772623415654,-0.037110063220529434,-0.014980000000000002,0.12082000000000001,-0.37926000000000004,19.5,0,5425,1781,1950,12109,30.0196484375,17681,27.18876425136467,1013.6969814661948,0,,,,N/A,-1
2024-04-02T10:15:21,0.0167497582,0.1878365741,10.045069274799998,0.040317105721069016,-0.0003054326190990077,-0.039095375244672985,-0.01666,0.11718,-0.3808,20.5,0,5425,1781,1950,12109,30.0196484375,17681,27.18876425136467,1013.6969814661948,0,,,,N/A,-1
2024-04-02T10:15:21,0.00059820565,0.19800607015,10.039685423949999,0.04260785036431157,0.0022907446432425577,-0.038484510006474966,-0.02114,0.11354,-0.38556000000000007,20.5,0,5425,1781,1950,12109,30.0196484375,17681,27.18876425136467,1013.6969814661948,0,,,,N/A,-1
2024-04-02T10:15:21,0.005982056499999999,0.22073788485,10.040283629599998,0.038942658935123484,-0.004581489286485115,-0.03741549583962844,-0.022820000000000003,0.13258,-0.38388000000000005,20.5,1,5420,1779,1946,12099,30.0329296875,18029,27.112449784382832,1013.7008334645283,0,,,,N/A,-1
2024-04-02T10:15:21,-0.027517459899999996,0.20458633229999998,10.046863891749998,0.039858956792420505,-0.0025961772623415654,-0.04092797095926703,-0.017220000000000003,0.12278000000000001,-0.38010000000000005,19.5,1,5420,1779,1946,12099,30.0329296875,18029,27.112449784382832,1013.7008334645283,0,,,,N/A,-1
2024-04-02T10:15:21,0.014356935599999999,0.19561324754999998,10.015158992299998,0.041844268816564056,0.0,-0.039858956792420505,-0.02338,0.10570000000000002,-0.3861200000000001,20.5,1,5420,1779,1946,12099,30.0329296875,18029,27.112449784382832,1013.7008334645283,0,,,,N/A,11
2024-04-02T10:15:21,0.038883367249999995,0.20398812665,10.027123105299998,0.04245513405476207,-0.0027488935718910697,-0.03756821214917795,-0.01414,0.12474,-0.38220000000000004,19.5,1,5420,1779,1946,12099,30.0469921875,18374,27.058331766088784,1013.7005845489947,0,,,,N/A,11
2024-04-02T10:15:21,-0.0011964113,0.17766707805,10.052845948249999,0.040317105721069016,-0.003207042500539581,-0.03695734691097993,-0.01386,0.11998000000000002,-0.38444000000000006,20.5,1,5420,1779,1946,12099,30.0469921875,18374,27.058331766088784,1013.7005845489947,0,,,,N/A,11
2024-04-02T10:15:21,-0.010169496049999999,0.20039889274999997,10.028319516599998,0.038637226316024474,-0.002138028333693054,-0.038942658935123484,-0.011620000000000002,0.11606000000000001,-0.39382000000000006,20.5,1,5420,1779,1946,12099,30.0469921875,18374,27.058331766088784,1013.7005845489947,0,,,,N/A,-1
2024-04-02T10:15:21,-0.01734796385,0.20877377184999998,10.0701939121,0.039095375244672985,-0.0024434609527920616,-0.04016438941151951,-0.024220000000000002,0.11746000000000001,-0.39032000000000006,20.5,1,5420,1779,1946,12099,30.060078125,18684,26.998631059590465,1013.7005265278382,0,,,,N/A,-1
2024-04-02T10:15:22,0.005383850849999999,0.1950150419,10.04207824655,0.04535674393620265,0.0006108652381980154,-0.00015271630954950385,-0.01386,0.10458,-0.38822,19.5,1,5420,1779,1946,12099,30.060078125,18684,26.998631059590465,1013.7005265278382,0,,,,N/A,-1
2024-04-02T10:15:22,0.021535403399999997,0.18723836844999997,10.024730282699998,0.04428772976935611,0.0016798794050445422,-0.04092797095926703,-0.010780000000000001,0.12754000000000001,-0.37646,20.5,0,5419,1778,1946,12096,30.07296875,19003,26.922378724506725,1013.7037354982053,0,,,,N/A,-1
2024-04-02T10:15:22,-0.013758729949999998,0.1950150419,10.018150020550001,0.03726277953007894,-0.03756821214917795,-0.03588833274413341,-0.012740000000000001,0.11522000000000002,-0.38864000000000004,20.5,0,5419,1778,1946,12096,30.07296875,19003,26.922378724506725,1013.7037354982053,0,,,,N/A,-1
2024-04-02T10:15:22,-0.0083748791,0.19381863059999999,10.0510513313,0.043982297150257116,-0.0015271630954950385,-0.03543018381548489,-0.008260000000000002,0.10458,-0.39872,20.5,0,5419,1778,1946,12096,30.07296875,19003,26.922378724506725,1013.7037354982053,0,,,,N/A,7
2024-04-02T10:15:22,-0.029312076849999997,0.18305092890000002,10.0103733471,0.04276056667386108,-0.00473420559603462,-0.03726277953007894,-0.010500000000000002,0.10766,-0.3899,20.5,0,5419,1778,1946,12096,29.4973828125,16984,26.589986654818198,1013.7148662523649,0,,,,N/A,7
2024-04-02T10:15:22,0.0191425808,0.1782652837,10.05643518215,0.04306599929296009,0.0009162978572970231,-0.0355829001250344,-0.018340000000000002,0.11158000000000001,-0.39452000000000004,20.5,0,5419,1778,1946,12096,29.4973828125,16984,26.589986654818198,1013.7148662523649,0,,,,N/A,-1
2024-04-02T10:15:23,0.00418743955,0.2009970984,10.04566748045,0.04459316238845512,-0.001069014166846527,-0.04001167310197001,-0.020300000000000002,0.12026,-0.38122,20.5,1,5422,1781,1949,12109,29.211640625,17876,26.556405339619367,1013.6829153670847,0,,,,N/A,-1
2024-04-02T10:15:23,-0.01854437515,0.19920248144999997,10.052247742599999,0.0033597588100890844,-0.004123340357836604,-0.03634648167278191,-0.00966,0.12110000000000001,-0.38164000000000003,20.5,1,5422,1781,1949,12109,29.211640625,17876,26.556405339619367,1013.6829153670847,0,,,,N/A,-1
2024-04-02T10:15:23,0.0083748791,0.19740786449999997,10.0055877019,0.039400807863771994,-0.003054326190990077,-0.04046982203061852,-0.020020000000000003,0.12362000000000002,-0.38836000000000004,20.5,1,5422,1781,1949,12109,29.211640625,17876,26.556405339619367,1013.6829153670847,0,,,,N/A,-1
2024-04-02T10:15:23,-0.0083748791,0.21475582835,10.0582297991,0.04123340357836604,-0.004276056667386108,-0.03604104905368291,-0.01862,0.10906000000000002,-0.38626000000000005,19.5,1,5422,1781,1949,12109,28.6864453125,16428,26.37792891393227,1013.7030156765456,0,,,,N/A,-1
2024-04-02T10:15:23,0.0502492746,0.1519442351,10.028917722249998,0.04016438941151951,-0.0015271630954950385,-0.03695734691097993,-0.02114,0.10878000000000002,-0.37198000000000003,20.5,1,5422,1781,1949,12109,28.6864453125,16428,26.37792891393227,1013.7030156765456,0,,,,N/A,-1
2024-04-02T10:15:23,-0.0047856452,0.22313070744999997,10.04207824655,0.04291328298341058,-0.001069014166846527,-0.04153883619746505,-0.016380000000000002,0.10878000000000002,-0.38598000000000005,20.5,1,5422,1781,1949,12109,28.6864453125,16428,26.37792891393227,1013.7030156765456,0,,,,N/A,-1
2024-04-02T10:15:23,0.0,0.19082760235,10.039685423949999,0.037110063220529434,-0.00045814892864851157,-0.0357356164345839,-0.019180000000000003,0.12418000000000001,-0.3971800000000001,20.5,1,5422,1781,1949,12109,28.478828125,17491,26.378153091918424,1013.682169494993,0,,,,N/A,-1
2024-04-02T10:15:24,-0.023928225999999997,0.20159530404999998,10.0582297991,0.039095375244672985,-0.0036651914291880926,-0.03787364476827696,-0.017220000000000003,0.11774000000000001,-0.39802000000000004,20.5,0,5420,1780,1947,12103,28.5067578125,18406,26.40225796439539,1013.6725987540326,0,,,,N/A,-1
2024-04-02T10:15:24,-0.020937197749999997,0.2009970984,10.0319087505,0.04260785036431157,-0.0015271630954950385,-0.03756821214917795,-0.01666,0.12138000000000002,-0.39242,20.5,0,5420,1780,1947,12103,28.5067578125,18406,26.40225796439539,1013.6725987540326,0,,,,N/A,-1
2024-04-02T10:15:24,-0.01974078645,0.19441683624999997,10.0223374601,0.041386119887915546,-0.0015271630954950385,-0.03802636107782646,-0.009380000000000001,0.11158000000000001,-0.39886,20.5,0,5420,1780,1947,12103,28.5067578125,18406,26.40225796439539,1013.6725987540326,0,,,,N/A,-1
2024-04-02T10:15:24,0.0191425808,0.20817556619999997,9.985248709799999,0.03924809155422249,-0.0022907446432425577,-0.03588833274413341,-0.0054600000000000004,0.11046,-0.39242,20.5,0,5420,1780,1947,12103,28.2278515625,17404,26.331202917825276,1013.6936124001909,0,,,,N/A,-1
2024-04-02T10:15:24,0.027517459899999996,0.18604195715,10.060622621699999,0.07483099167925689,-0.0024434609527920616,-0.04016438941151951,-0.01778,0.10850000000000001,-0.37870000000000004,20.5,0,5420,1780,1947,12103,28.2278515625,17404,26.331202917825276,1013.6936124001909,0,,,,N/A,-1
2024-04-02T10:15:25,-0.005383850849999999,0.20338992099999997,10.03131054485,0.04474587869800463,-0.0012217304763960308,-0.04046982203061852,-0.014700000000000001,0.12586000000000003,-0.37184000000000006,20.5,0,5427,1782,1948,12106,28.1753125,18471,26.36544577518658,1013.6751955362214,0,,,,N/A,-1
2024-04-02T10:15:25,0.0131605243,0.20458633229999998,10.033703367449998,0.04214970143566306,0.0013744467859455349,-0.038789942625573975,-0.01666,0.12306000000000002,-0.38136000000000003,20.5,0,5427,1782,1948,12106,28.1753125,18471,26.36544577518658,1013.6751955362214,0,,,,N/A,-1
2024-04-02T10:15:25,-0.0047856452,0.19142580799999998,10.01934643185,0.04474587869800463,-0.002901609881440573,-0.0435241482216086,-0.01414,0.11270000000000002,-0.38346,20.5,1,5426,1781,1946,12102,28.1753125,18471,26.36544577518658,1013.6751955362214,0,,,,N/A,-1
2024-04-02T10:15:25,-0.010169496049999999,0.19800607015,10.04207824655,0.04489859500755413,-0.0016798794050445422,-0.03466660226773738,-0.01694,0.11298,-0.37422000000000005,20.5,1,5426,1781,1946,12102,27.8661328125,17233,26.286696393385206,1013.6835266546385,0,,,,N/A,-1
2024-04-02T10:15:25,0.00658026215,0.19621145319999997,10.04985492,0.040622538340168025,-0.00045814892864851157,-0.036193765363232405,-0.015540000000000002,0.10794000000000001,-0.37800000000000006,20.5,1,5426,1781,1946,12102,27.8661328125,17233,26.286696393385206,1013.6835266546385,0,,,,N/A,-1
2024-04-02T10:15:26,0.01734796385,0.20398812665,10.04566748045,0.038637226316024474,-0.0027488935718910697,-0.039706240482871004,-0.013020000000000002,0.12362000000000002,-0.38010000000000005,20.5,1,5426,1782,1948,12105,27.8255078125,18503,26.338254024855377,1013.6703323622908,0,,,,N/A,-1
2024-04-02T10:15:26,-0.014356935599999999,0.21714865095,10.0235338714,0.04230241774521256,0.0018325957145940463,-0.03634648167278191,-0.01946,0.12474,-0.37562000000000006,20.5,1,5426,1782,1948,12105,27.8255078125,18503,26.338254024855377,1013.6703323622908,0,,,,N/A,-1
2024-04-02T10:15:26,-0.005982056499999999,0.19022939669999997,10.040283629599998,0.04306599929296009,-0.0013744467859455349,-0.039095375244672985,-0.020300000000000002,0.11970000000000001,-0.37128000000000005,20.5,1,5426,1782,1948,12105,27.8255078125,18503,26.338254024855377,1013.6703323622908,0,,,,N/A,-1
2024-04-02T10:15:26,0.01615155255,0.20638094924999997,10.007980524499999,0.04581489286485116,-0.0044287729769356115,-0.04016438941151951,-0.0161,0.11634000000000001,-0.3794,20.5,1,5426,1782,1948,12105,27.5755078125,17505,26.32981389341637,1013.6862091133507,0,,,,N/A,-1
2024-04-02T10:15:26,-0.12861421474999998,0.2177468566,10.050453125649998,0.041996985126113565,-0.007788531787024696,-0.040622538340168025,-0.011340000000000001,0.11326,-0.36512000000000006,20.5,1,5426,1782,1948,12105,27.5755078125,17505,26.32981389341637,1013.6862091133507,0,,,,N/A,-1
2024-04-02T10:15:27,0.22073788485,0.08853443620000001,8.626125472999998,0.048258353817643214,-0.009315694882519735,-0.050701814770435276,-0.025060000000000002,0.11858000000000002,-0.37744000000000005,20.5,1,5428,1780,1945,12101,27.583125,18750,26.390573084146627,1013.6612115979749,0,,,,N/A,-1
2024-04-02T10:15:27,-0.13339985995,0.16091731985,9.861420140249999,0.029932396671702752,-0.02428189321837111,-0.0711658002500688,-0.028700000000000003,0.11550000000000002,-0.37282000000000004,20.5,1,5428,1780,1945,12101,27.583125,18750,26.390573084146627,1013.6612115979749,0,,,,N/A,-1
2024-04-02T10:15:27,0.12861421474999998,0.0047856452,10.223334558499998,0.04596760917440065,0.01618792881224741,-0.04550946024575215,-0.01862,0.12138000000000002,-0.37744000000000005,20.5,1,5428,1780,1945,12101,27.583125,18750,26.390573084146627,1013.6612115979749,0,,,,N/A,-1
2024-04-02T10:15:27,-0.0681954441,0.2763710103,10.08036340815,0.04459316238845512,0.004886921905584123,-0.06627887834448468,-0.01106,0.12726,-0.36722000000000005,20.5,1,5428,1780,1945,12101,27.3825390625,17861,26.385960506377135,1013.6759672854798,0,,,,N/A,-1
2024-04-02T10:15:27,-0.014955141249999998,0.28115665549999996,9.952347399049998,0.04260785036431157,-0.038179077387375956,-0.04566217655530165,-0.013300000000000001,0.11466000000000001,-0.37044000000000005,20.5,0,5440,1783,1945,12098,27.3825390625,17861,26.385960506377135,1013.6759672854798,0,,,,N/A,3
2024-04-02T10:15:28,-0.013758729949999998,0.15433705769999997,9.96072227815,0.04428772976935611,0.0018325957145940463,-0.03741549583962844,-0.01694,0.10458,-0.37464000000000003,20.5,1,5249,1738,1902,11810,27.4270703125,19124,26.444116652739098,1013.6545660265289,0,,,,N/A,3
2024-04-02T10:15:28,0.1339980656,0.19142580799999998,10.0534441539,0.03802636107782646,-0.001069014166846527,-0.036499197982331415,-0.0175,0.10934,-0.37744000000000005,20.5,1,5249,1738,1902,11810,27.4270703125,19124,26.444116652739098,1013.6545660265289,0,,,,N/A,3
2024-04-02T10:15:28,0.017946169499999998,0.19800607015,10.052845948249999,0.04016438941151951,-0.005345070834232635,-0.03497203488683638,-0.020300000000000002,0.10738,-0.37282000000000004,20.5,1,5249,1738,1902,11810,27.4270703125,19124,26.444116652739098,1013.6545660265289,0,,,,N/A,-1
2024-04-02T10:15:28,0.005982056499999999,0.16689937635,10.0534441539,0.04214970143566306,-0.0024434609527920616,-0.03344487179134134,-0.01386,0.11942000000000001,-0.39088000000000006,20.5,1,5249,1738,1902,11810,27.260078125,18153,26.469452086816947,1013.6726815637886,0,,,,N/A,-1
2024-04-02T10:15:28,-0.0191425808,0.17108681589999997,10.0654082669,0.043982297150257116,0.0022907446432425577,-0.039095375244672985,-0.009940000000000001,0.11018,-0.3633,20.5,1,5249,1738,1902,11810,27.260078125,18153,26.469452086816947,1013.6726815637886,0,,,,N/A,-1
2024-04-02T10:15:28,0.1351944769,0.19202401365,10.0594262104,0.04077525464971753,-0.00015271630954950385,-0.0355829001250344,-0.014700000000000001,0.10430000000000002,-0.38976000000000005,20.5,1,5249,1738,1902,11810,27.260078125,18153,26.469452086816947,1013.6726815637886,0,,,,N/A,-1
2024-04-02T10:15:28,-0.014955141249999998,0.19322042494999997,10.012167964049999,0.04276056667386108,-0.002901609881440573,-0.038637226316024474,-0.0119,0.11242000000000002,-0.37548000000000004,20.5,1,5249,1738,1902,11810,27.330390625,19586,26.52416678196071,1013.6615912650008,0,,,,N/A,15
2024-04-02T10:15:29,-0.005982056499999999,0.18604195715,10.0558369765,0.04520402762665314,-0.001069014166846527,-0.04046982203061852,-0.0119,0.11186000000000001,-0.37268000000000007,20.5,1,4972,1671,1843,11443,27.5755078125,20559,26.581603287600462,1013.643314431516,0,,,,N/A,15
2024-04-02T10:15:29,-0.023330020349999998,0.1890329854,10.0295159279,0.04153883619746505,-0.0022907446432425577,-0.039858956792420505,-0.015540000000000002,0.11270000000000002,-0.37254000000000004,20.5,1,4972,1671,1843,11443,27.5755078125,20559,26.581603287600462,1013.643314431516,0,,,,N/A,-1
2024-04-02T10:15:29,-0.23988046564999999,0.18245272324999998,9.94277610865,0.04642575810304917,0.007177666548826681,-0.03802636107782646,-0.014980000000000002,0.10626000000000001,-0.37996,20.5,1,4972,1671,1843,11443,27.5755078125,20559,26.581603287600462,1013.643314431516,0,,,,N/A,-1
2024-04-02T10:15:29,-0.022133609050000003,0.20458633229999998,10.12223780365,0.04230241774521256,0.0,-0.04153883619746505,-0.020860000000000004,0.10402000000000002,-0.37744000000000005,20.5,1,4972,1671,1843,11443,27.46828125,19677,26.562282011468607,1013.6741497864044,0,,,,N/A,-1
2024-04-02T10:15:29,0.023928225999999997,0.1878365741,10.036096190049998,0.03924809155422249,-0.0033597588100890844,-0.03634648167278191,-0.01694,0.10010000000000001,-0.38822,20.5,1,4972,1671,1843,11443,27.46828125,19677,26.562282011468607,1013.6741497864044,0,,,,N/A,-1
2024-04-02T10:15:30,-0.0251246373,0.19322042494999997,10.01934643185,0.03695734691097993,-0.001069014166846527,-0.0355829001250344,-0.019180000000000003,0.10430000000000002,-0.37856000000000006,20.5,1,4920,1659,1832,11383,27.5528515625,20947,26.601750125103234,1013.6632211191285,0,,,,N/A,-1
2024-04-02T10:15:30,-0.005383850849999999,0.18843477974999998,10.094720343749998,0.043676864531158106,0.00045814892864851157,-0.039400807863771994,-0.012180000000000002,0.10206000000000001,-0.37842000000000003,20.5,1,4920,1659,1832,11383,27.5528515625,20947,26.601750125103234,1013.6632211191285,0,,,,N/A,-1
2024-04-02T10:15:30,-0.0029910282499999996,0.18245272324999998,10.0558369765,0.040622538340168025,0.001069014166846527,-0.03665191429188092,-0.01946,0.10878000000000002,-0.38262000000000007,20.5,1,4920,1659,1832,11383,27.5528515625,20947,26.601750125103234,1013.6632211191285,0,,,,N/A,-1
2024-04-02T10:15:30,0.0167497582,0.20279171534999998,10.034899778749999,0.039095375244672985,-0.0007635815477475193,-0.03756821214917795,-0.015260000000000001,0.10626000000000001,-0.37282000000000004,20.5,1,4920,1659,1832,11383,27.3747265625,19806,26.57141905576951,1013.6738275942012,0,,,,N/A,-1
2024-04-02T10:15:30,0.12382856954999999,0.18604195715,10.019944637499998,0.04001167310197001,-0.004886921905584123,-0.039553524173321496,-0.020860000000000004,0.11746000000000001,-0.38136000000000003,20.5,1,4920,1659,1832,11383,27.3747265625,19806,26.57141905576951,1013.6738275942012,0,,,,N/A,13
2024-04-02T10:15:31,-0.00658026215,0.18245272324999998,9.9972128228,0.041386119887915546,0.0003054326190990077,-0.038789942625573975,-0.01414,0.11046,-0.38220000000000004,20.5,0,4922,1659,1832,11382,27.433125,21242,26.630752680827,1013.6591711949773,0,,,,N/A,13
2024-04-02T10:15:31,-0.025722842949999998,0.19142580799999998,10.0929257268,0.039095375244672985,-0.004886921905584123,-0.0355829001250344,-0.014980000000000002,0.10374000000000001,-0.36904000000000003,20.5,0,4922,1659,1832,11382,27.433125,21242,26.630752680827,1013.6591711949773,0,,,,N/A,13
2024-04-02T10:15:31,-0.011964112999999998,0.179461695,10.042676452199998,0.04214970143566306,0.00045814892864851157,-0.03695734691097993,-0.01414,0.10794000000000001,-0.37870000000000004,20.5,0,4922,1659,1832,11382,27.433125,21242,26.630752680827,1013.6591711949773,0,,,,N/A,13
2024-04-02T10:15:31,-0.0167497582,0.20817556619999997,10.05643518215,0.04077525464971753,0.00045814892864851157,-0.03741549583962844,-0.014700000000000001,0.10514000000000001,-0.38024,20.5,0,4922,1659,1832,11382,27.256953125,20032,26.62247961528857,1013.6836144572902,0,,,,N/A,13
2024-04-02T10:15:31,-0.01734796385,0.17706887240000002,10.087541875949999,0.04413501345980661,0.0007635815477475193,-0.03772092845872745,-0.01666,0.10542000000000001,-0.38388000000000005,20.5,0,4922,1659,1832,11382,27.256953125,20032,26.62247961528857,1013.6836144572902,0,,,,N/A,11
2024-04-02T10:15:32,-0.0017946169499999999,0.20398812665,10.04925671435,0.0435241482216086,-0.0056505034533316425,-0.038179077387375956,-0.01386,0.10066000000000001,-0.38850000000000007,20.5,1,4927,1660,1833,11386,27.323359375,21480,26.671491090387793,1013.6571629813226,0,,,,N/A,11
2024-04-02T10:15:32,-0.020338992099999998,0.1890329854,10.060024416049998,0.04001167310197001,-0.00015271630954950385,-0.038637226316024474,-0.012180000000000002,0.10318000000000001,-0.38696,20.5,1,4927,1660,1833,11386,27.323359375,21480,26.671491090387793,1013.6571629813226,0,,,,N/A,11
2024-04-02T10:15:32,-0.0095712904,0.18185451760000002,10.043274657849999,0.041080687268816536,-0.001069014166846527,-0.03497203488683638,-0.008260000000000002,0.10710000000000001,-0.37632000000000004,20.5,1,4925,1660,1833,11388,27.323359375,21480,26.671491090387793,1013.6571629813226,0,,,,N/A,11
2024-04-02T10:15:32,-0.01256231865,0.18604195715,10.0366943957,0.04474587869800463,-0.0027488935718910697,-0.04016438941151951,-0.009100000000000002,0.11214000000000002,-0.37198000000000003,20.5,1,4925,1660,1833,11388,27.1883984375,20499,26.677384635534366,1013.6743512099982,0,,,,N/A,11
2024-04-02T10:15:32,-0.017946169499999998,0.1878365741,10.027123105299998,0.04001167310197001,-0.0013744467859455349,-0.038637226316024474,-0.014980000000000002,0.11130000000000001,-0.36960000000000004,20.5,1,4925,1660,1833,11388,27.1883984375,20499,26.677384635534366,1013.6743512099982,0,,,,N/A,5
2024-04-02T10:15:33,-0.0131605243,0.21475582835,10.067801089499998,0.0433714319120591,-0.0018325957145940463,-0.03420845333908886,-0.0161,0.11466000000000001,-0.37604000000000004,20.5,1,4921,1659,1833,11386,27.28078125,22088,26.722966097148305,1013.6603175673561,0,,,,N/A,7
2024-04-02T10:15:33,-0.0131605243,0.18963119104999998,10.039685423949999,0.040622538340168025,-0.0012217304763960308,-0.03695734691097993,-0.02198,0.10794000000000001,-0.37716000000000005,20.5,1,4921,1659,1833,11386,27.28078125,22088,26.722966097148305,1013.6603175673561,0,,,,N/A,7
2024-04-02T10:15:33,-0.0083748791,0.1890329854,10.03131054485,0.04581489286485116,-0.002901609881440573,-0.038942658935123484,-0.009380000000000001,0.10094000000000002,-0.37744000000000005,20.5,1,4921,1659,1833,11386,27.13625,20844,26.733582175034673,1013.6742224922667,0,,,,N/A,7
2024-04-02T10:15:33,-0.01734796385,0.16929219894999997,10.01934643185,0.041844268816564056,-0.0019853120241435504,-0.0357356164345839,-0.010500000000000002,0.11186000000000001,-0.37744000000000005,20.5,1,4921,1659,1833,11386,27.13625,20844,26.733582175034673,1013.6742224922667,0,,,,N/A,7
2024-04-02T10:15:33,0.0023928226,0.14416756165,10.078568791199999,0.04718933965079669,0.0007635815477475193,-0.03420845333908886,-0.00238,0.10486000000000001,-0.38402000000000003,20.5,1,4921,1659,1833,11386,27.13625,20844,26.733582175034673,1013.6742224922667,0,,,,N/A,7
2024-04-02T10:15:34,-0.014356935599999999,0.18604195715,10.0055877019,0.039706240482871004,-0.0009162978572970231,-0.0355829001250344,-0.01666,0.11746000000000001,-0.37674,20.5,1,4921,1659,1833,11386,27.227265625,22440,26.77907866172954,1013.656174482695,0,,,,N/A,7
2024-04-02T10:15:34,-0.014955141249999998,0.1950150419,10.039087218299999,0.041996985126113565,-0.0044287729769356115,-0.03497203488683638,-0.006860000000000001,0.11886000000000001,-0.38094000000000006,20.5,1,4921,1659,1833,11386,27.227265625,22440,26.77907866172954,1013.656174482695,0,,,,N/A,7
2024-04-02T10:15:34,0.005982056499999999,0.18664016279999998,10.04925671435,0.04581489286485116,-0.001069014166846527,-0.04153883619746505,-0.0175,0.11074,-0.37534,20.5,1,4916,1657,1832,11383,27.4907421875,23671,26.838165509446796,1013.643210974854,0,,,,N/A,7
2024-04-02T10:15:34,-0.0167497582,0.1519442351,10.06720288385,0.04382958084070761,0.038331793696925465,-0.039553524173321496,-0.01022,0.11438000000000001,-0.36526000000000003,20.5,1,4916,1657,1832,11383,27.4907421875,23671,26.838165509446796,1013.643210974854,0,,,,N/A,-1
2024-04-02T10:15:34,-0.03649054465,0.18604195715,10.0354979844,0.0435241482216086,-0.003207042500539581,-0.03741549583962844,-0.014420000000000002,0.11718,-0.37982000000000005,20.5,1,4916,1657,1832,11383,27.4450390625,22829,26.81262261636462,1013.6752075061097,0,,,,N/A,-1
2024-04-02T10:15:34,-0.03529413334999999,0.18185451760000002,10.0546405652,0.04214970143566306,-0.0024434609527920616,-0.039400807863771994,-0.015260000000000001,0.11858000000000002,-0.37198000000000003,20.5,1,4916,1657,1831,11380,27.4450390625,22829,26.81262261636462,1013.6752075061097,0,,,,N/A,-1
                                                                                                                                                                                                                                                                                                                                                                                                                                                                                                                                                                                                                                                                                                                                                                                                                                                                                                                                                                                                                                                                                                                                                                                                                                                                                                                                                                                                                                                                                                                                          