Timestamp,Accel_X,Accel_Y,Accel_Z,Gyro_X,Gyro_Y,Gyro_Z,Mag_X,Mag_Y,Mag_Z,LSM9DS1_Temp,Proximity,Color_R,Color_G,Color_B,Color_C,BME680_Temp,Gas,Humidity,Pressure,Switch_Pressed,GPS_Latitude,GPS_Longitude,GPS_Speed,GPS_Timestamp
2024-03-23T21:51:03,-7.6319076827,-3.32063956315,6.163911017599999,0.03741549583962844,-0.012064588454410803,-0.03054326190990077,0.2079,0.11046,-0.47572000000000003,1.5,4,0,0,0,0,33.574921875,688790,100,695.662002676745,0,40.689176,-73.991915,,1:51:2
2024-03-23T21:51:03,-7.6486574409,-3.3254252083499996,6.18963386055,0.03390302071998985,0.01069014166846527,-0.04016438941151951,0.20622000000000001,0.11046,-0.46942000000000006,1.5,4,0,0,0,0,33.574921875,688790,100,695.662002676745,0,40.689176,-73.991915,,1:51:2
2024-03-23T21:51:03,-7.67677310645,-3.309871861449999,6.209972852649999,0.03359758810089085,0.010231992739816757,-0.03497203488683638,0.20622000000000001,0.11046,-0.46942000000000006,1.5,4,0,0,0,0,33.574921875,688790,100,695.662002676745,0,40.689176,-73.991915,,1:51:2
2024-03-23T21:51:03,-7.655237703049999,-3.30388980495,6.140580997249999,0.029932396671702752,0.015424347264499889,-0.036804630601430424,0.20958000000000002,0.11018,-0.45738000000000006,1.5,4,0,0,0,0,33.574921875,688790,100,695.662002676745,0,40.689176,-73.991915,0.9,1:51:2
2024-03-23T21:51:03,-7.644470001349999,-3.3164521235999995,6.215954909150001,0.0357356164345839,0.010231992739816757,-0.03359758810089085,0.20342000000000002,0.10262,-0.47824000000000005,1.5,4,0,0,0,0,33.574921875,688790,100,695.662002676745,0,40.689176,-73.991915,0.9,1:51:2
2024-03-23T21:51:03,-7.66600540475,-3.33858573265,6.081358637899999,0.03344487179134134,0.012522737383059314,-0.036499197982331415,0.19978000000000004,0.09730000000000001,-0.4561200000000001,1.5,4,0,0,0,0,5.9012890625,47962,57.72365959494872,1008.6391351933172,0,40.689185,-73.99192,0.9,1:51:3
2024-03-23T21:51:04,-7.639684356149999,-3.3427731722,6.222535171299999,0.03344487179134134,0.007330382858376185,-0.03283400655314333,0.20398000000000002,0.10374000000000001,-0.4601800000000001,1.5,4,0,0,0,0,5.9012890625,47962,57.72365959494872,1008.6391351933172,0,40.689185,-73.99192,0.9,1:51:3
2024-03-23T21:51:04,-7.772486010449999,-3.2973095427999994,6.1316079125,0.03390302071998985,0.009315694882519735,-0.03512475119638588,0.20398000000000002,0.11130000000000001,-0.47040000000000004,1.5,4,0,0,0,0,5.9012890625,47962,57.72365959494872,1008.6391351933172,0,40.689185,-73.99192,0.9,1:51:3
2024-03-23T21:51:04,-7.6540412917500005,-3.3272198252999994,6.1447684368,0.03329215548179184,0.01145372321621279,-0.03237585762449482,0.20622000000000001,0.10234,-0.45640000000000003,1.5,4,0,0,0,0,5.9012890625,47962,57.72365959494872,1008.6391351933172,0,40.689185,-73.99192,0.96,1:51:3
2024-03-23T21:51:04,-7.6749784895,-3.3146575066499997,6.1800625701500005,0.030848694528999777,0.007941248096574201,-0.037110063220529434,0.20482000000000003,0.09982,-0.45990000000000003,1.5,4,0,0,0,0,5.9012890625,47962,57.72365959494872,1008.6391351933172,0,40.689185,-73.99192,0.96,1:51:3
2024-03-23T21:51:04,-7.644470001349999,-3.3296126479,6.185446420999999,0.0355829001250344,0.007635815477475193,-0.03390302071998985,0.20202,0.10458,-0.46816,1.5,4,0,0,0,0,6.1596875,52794,57.83138537483303,1008.6440241462084,0,40.689195,-73.991928,0.96,1:51:4
2024-03-23T21:51:04,-7.6582287312999995,-3.3296126479,6.174678719299999,0.0355829001250344,0.013897184169004852,-0.028099800957108706,0.19950000000000004,0.09674,-0.46354,1.5,4,0,0,0,0,6.1596875,52794,57.83138537483303,1008.6440241462084,0,40.689195,-73.991928,0.96,1:51:4
2024-03-23T21:51:04,-7.6390861505,-3.3254252083499996,6.122634827750001,0.031459559767197796,0.008704829644321718,-0.03451388595818787,0.20398000000000002,0.09730000000000001,-0.46648,1.5,4,0,0,0,0,6.1596875,52794,57.83138537483303,1008.6440241462084,0,40.689195,-73.991928,0.96,1:51:4
2024-03-23T21:51:04,-7.6343005053,-3.329014442249999,6.1579289611,0.030848694528999777,0.007635815477475193,-0.03512475119638588,0.20062000000000002,0.10038000000000001,-0.46102000000000004,1.5,4,0,0,0,0,6.1596875,52794,57.83138537483303,1008.6440241462084,0,40.689195,-73.991928,1.12,1:51:4
2024-03-23T21:51:04,-7.6008009889,-3.3475588174,6.13100970685,0.03787364476827696,0.01069014166846527,-0.03375030441044035,0.20566000000000004,0.10654000000000001,-0.46620000000000006,1.5,4,0,0,0,0,6.1596875,52794,57.83138537483303,1008.6440241462084,0,40.689195,-73.991928,1.12,1:51:4
2024-03-23T21:51:04,-7.661817965199999,-3.32183597445,6.04486809325,0.037110063220529434,0.010537425358915765,-0.03451388595818787,0.20342000000000002,0.10122000000000002,-0.46102000000000004,1.5,4,0,0,0,0,6.5378125,59663,57.9533763202853,1008.6574224657547,0,40.689205,-73.991931,1.12,1:51:5
2024-03-23T21:51:05,-7.5122665527,-3.3403803495999997,6.17168769105,0.02901609881440573,0.01145372321621279,-0.0319177086958463,0.20818,0.0987,-0.46452000000000004,1.5,3,2,1,1,3,6.94171875,66954,58.03339718189402,1008.6632355610237,0,40.689205,-73.991931,1.12,1:51:5
2024-03-23T21:51:05,-7.6271220375,-3.3415767608999998,6.2021961791999995,0.03344487179134134,0.012064588454410803,-0.03634648167278191,0.20426000000000002,0.09506,-0.46354,1.5,3,2,1,1,3,6.94171875,66954,58.03339718189402,1008.6632355610237,0,40.689205,-73.991931,1.12,1:51:5
2024-03-23T21:51:05,-7.631309477049999,-3.32063956315,6.1579289611,0.03222314131494531,0.00916297857297023,-0.03054326190990077,0.20622000000000001,0.09730000000000001,-0.46074000000000004,1.5,3,2,1,1,3,6.94171875,66954,58.03339718189402,1008.6632355610237,0,40.689205,-73.991931,1.22,1:51:5
2024-03-23T21:51:05,-7.6426753843999995,-3.3116664784,6.16929486845,0.03527746750593539,0.0119118721448613,-0.03634648167278191,0.20062000000000002,0.10206000000000001,-0.47040000000000004,1.5,3,2,1,1,3,6.94171875,66954,58.03339718189402,1008.6632355610237,0,40.689205,-73.991931,1.22,1:51:5
2024-03-23T21:51:05,-7.625925626199998,-3.33978214395,6.13340252945,0.03588833274413341,0.013744467859455347,-0.03313943917224234,0.20062000000000002,0.10206000000000001,-0.47040000000000004,1.5,3,2,1,1,3,6.94171875,66954,58.03339718189402,1008.6632355610237,0,40.689213,-73.991928,1.22,1:51:6
2024-03-23T21:51:06,-7.7096744172,-3.3128628897,6.147759465049999,0.036193765363232405,0.00946841119206924,-0.03252857393404432,0.20370000000000002,0.10738,-0.46662000000000003,1.5,3,2,1,1,3,6.7993359375,65346,57.796268763800725,1008.6876121626508,0,40.689213,-73.991928,1.22,1:51:6
2024-03-23T21:51:06,-7.617550747099999,-3.314059301,6.161518194999999,0.03390302071998985,0.007941248096574201,-0.0357356164345839,0.20034000000000002,0.09814000000000002,-0.45164000000000004,1.5,3,2,1,1,3,6.7993359375,65346,57.796268763800725,1008.6876121626508,0,40.689213,-73.991928,1.22,1:51:6
2024-03-23T21:51:06,-7.637889739199999,-3.2955149258499996,6.145964848099999,0.036804630601430424,0.012675453692608819,-0.036499197982331415,0.20034000000000002,0.09814000000000002,-0.45164000000000004,1.5,3,2,1,1,3,6.7993359375,65346,57.796268763800725,1008.6876121626508,0,40.689213,-73.991928,1.22,1:51:6
2024-03-23T21:51:06,-7.584649436349999,-3.3050862162499994,6.15134869895,0.03451388595818787,0.006261368691529657,-0.031764992386296806,0.19894000000000003,0.10122000000000002,-0.45234,1.5,3,2,1,1,3,6.7993359375,65346,57.796268763800725,1008.6876121626508,0,40.689213,-73.991928,1.22,1:51:6
2024-03-23T21:51:06,-7.630113065749999,-3.3248270026999998,6.167500251499999,0.029474247743054245,0.008246680715673207,-0.030390545600351267,0.20482000000000003,0.10094000000000002,-0.45542,1.5,3,2,1,1,3,6.7993359375,65346,57.796268763800725,1008.6876121626508,0,40.689213,-73.991928,1.22,1:51:6
2024-03-23T21:51:06,-7.663014376499999,-3.3266216196499996,6.1698930741,0.03802636107782646,0.012217304763960308,-0.03222314131494531,0.20286,0.10150000000000002,-0.46480000000000005,1.5,3,2,1,1,3,6.5878125,65754,57.58377055790531,1008.6945619092521,0,40.689213,-73.991928,1.22,1:51:6
2024-03-23T21:51:06,-7.6205417753499995,-3.2883364580500003,6.163911017599999,0.03390302071998985,0.00916297857297023,-0.03420845333908886,0.20006000000000004,0.09926,-0.45976000000000006,1.5,3,2,1,1,3,6.5878125,65754,57.58377055790531,1008.6945619092521,0,40.689213,-73.991928,1.19,1:51:6
2024-03-23T21:51:06,-7.626523831849999,-3.3152557123,6.195615917049999,0.03283400655314333,0.012522737383059314,-0.03237585762449482,0.19222000000000003,0.10542000000000001,-0.46074000000000004,1.5,3,2,1,1,3,6.5878125,65754,57.58377055790531,1008.6945619092521,0,40.689213,-73.991928,1.19,1:51:6
2024-03-23T21:51:06,-7.644470001349999,-3.32183597445,6.197410534,0.03390302071998985,0.010231992739816757,-0.028710666195306725,0.19222000000000003,0.10542000000000001,-0.46074000000000004,1.5,3,2,1,1,3,6.5878125,65754,57.58377055790531,1008.6945619092521,0,40.689215,-73.991928,1.19,1:51:7
2024-03-23T21:51:07,-7.63848794485,-3.3092736557999998,6.197410534,0.02733621940936119,0.011301006906663285,-0.03054326190990077,0.20006000000000004,0.10038000000000001,-0.4660600000000001,1.5,3,2,1,1,3,6.6684765625,76068,57.68379106135474,1008.6793082352929,0,40.689215,-73.991928,1.19,1:51:7
2024-03-23T21:51:07,-7.6564341143500005,-3.31106827275,6.16450922325,0.03512475119638588,0.01145372321621279,-0.03390302071998985,0.20566000000000004,0.10038000000000001,-0.44828,1.5,3,2,1,1,3,6.6684765625,76068,57.68379106135474,1008.6793082352929,0,40.689215,-73.991928,1.19,1:51:7
2024-03-23T21:51:07,-7.637889739199999,-3.3284162366,6.2153567034999995,0.03420845333908886,0.004123340357836604,-0.03207042500539581,0.20566000000000004,0.10038000000000001,-0.44828,1.5,3,2,1,1,3,6.6684765625,76068,57.68379106135474,1008.6793082352929,0,40.689215,-73.991928,1.08,1:51:7
2024-03-23T21:51:07,-7.6564341143500005,-3.3272198252999994,6.089733516999999,0.03313943917224234,0.010995574287564279,-0.0319177086958463,0.19894000000000003,0.0987,-0.45108000000000004,1.5,3,2,1,1,3,6.6684765625,76068,57.68379106135474,1008.6793082352929,0,40.689215,-73.991928,1.08,1:51:7
2024-03-23T21:51:07,-7.692326453349999,-3.3188449462,6.22672261085,0.03313943917224234,0.010842857978014774,-0.03497203488683638,0.20034000000000002,0.09646,-0.46354,1.5,3,2,1,1,3,6.6684765625,76068,57.68379106135474,1008.6793082352929,0,40.689221,-73.991931,1.08,1:51:8
2024-03-23T21:51:08,-7.681558751649999,-3.32303238575,6.12143841645,0.03268129024359383,0.010537425358915765,-0.03237585762449482,0.19782000000000002,0.09086000000000001,-0.46172,1.5,3,1,1,1,3,6.553828125,76275,57.46988811847467,1008.687739134223,0,40.689221,-73.991931,1.08,1:51:8
2024-03-23T21:51:08,-7.649255646549999,-3.2949167202,6.173482308,0.03512475119638588,0.010537425358915765,-0.03497203488683638,0.2009,0.09926,-0.46928000000000003,1.5,3,1,1,1,3,6.553828125,76275,57.46988811847467,1008.687739134223,0,40.689221,-73.991931,1.08,1:51:8
2024-03-23T21:51:08,-7.724629558449999,-3.29192569195,6.20518720745,0.03543018381548489,0.007330382858376185,-0.030848694528999777,0.19894000000000003,0.09534000000000001,-0.46284000000000003,1.5,3,1,1,1,3,6.553828125,76275,57.46988811847467,1008.687739134223,0,40.689221,-73.991931,1.1,1:51:8
2024-03-23T21:51:08,-7.668398227349999,-3.3008987767,6.2733826515499995,0.03497203488683638,0.009926560120717751,-0.03726277953007894,0.20118,0.09114000000000001,-0.45444000000000007,1.5,3,1,1,1,3,6.553828125,76275,57.46988811847467,1008.687739134223,0,40.689221,-73.991931,1.1,1:51:8
2024-03-23T21:51:08,-7.6522466748,-3.30867545015,6.207580030049999,0.03344487179134134,0.009010262263420728,-0.03543018381548489,0.20426000000000002,0.0959,-0.4438000000000001,1.5,3,1,1,1,3,6.553828125,76275,57.46988811847467,1008.687739134223,0,40.689221,-73.991931,1.1,1:51:9
2024-03-23T21:51:09,-7.683951574249999,-3.3373893213500003,6.1351971463999995,0.03375030441044035,0.010079276430267254,-0.03390302071998985,0.20146,0.10066000000000001,-0.45682000000000006,1.5,3,2,1,1,3,6.4079296875,77182,57.29139181186248,1008.6955820588406,0,40.689221,-73.991931,1.1,1:51:9
2024-03-23T21:51:09,-7.639684356149999,-3.3164521235999995,6.165705634549999,0.03390302071998985,0.007177666548826681,-0.038179077387375956,0.20006000000000004,0.09842000000000002,-0.46270000000000006,1.5,3,2,1,1,3,6.4079296875,77182,57.29139181186248,1008.6955820588406,0,40.689221,-73.991931,1.1,1:51:9
2024-03-23T21:51:09,-7.639684356149999,-3.27278311115,6.187839243599999,0.030085112981252257,0.013133602621257331,-0.029168815123955236,0.20062000000000002,0.09282000000000001,-0.45766,1.5,3,2,1,1,3,6.4079296875,77182,57.29139181186248,1008.6955820588406,0,40.689221,-73.991931,1.04,1:51:9
2024-03-23T21:51:09,-7.6205417753499995,-3.3104700671,6.159723578049999,0.03436116964863837,0.010384709049366262,-0.030085112981252257,0.20258,0.10094000000000002,-0.46382000000000007,1.5,3,2,1,1,3,6.4079296875,77182,57.29139181186248,1008.6955820588406,0,40.689221,-73.991931,1.04,1:51:9
2024-03-23T21:51:09,-7.6498538522,-3.3242287970499995,6.171089485399999,0.0355829001250344,0.0068722339297276735,-0.03405573702953936,0.20286,0.09534000000000001,-0.46438000000000007,1.5,3,2,1,1,3,6.4079296875,77182,57.29139181186248,1008.6955820588406,0,40.689223,-73.991926,1.04,1:51:10
2024-03-23T21:51:10,-7.6103722793,-3.33499649875,6.1938213001,0.03420845333908886,0.009010262263420728,-0.03344487179134134,0.19558,0.10514000000000001,-0.4601800000000001,1.5,3,1,1,1,3,6.2880078125,78620,57.13550129115093,1008.6984890751622,0,40.689223,-73.991926,1.04,1:51:10
2024-03-23T21:51:10,-7.672585666899999,-3.32183597445,6.119045593849998,0.038331793696925465,0.013286318930806834,-0.03924809155422249,0.19726000000000002,0.10850000000000001,-0.46102000000000004,1.5,3,1,1,1,3,6.2880078125,78620,57.13550129115093,1008.6984890751622,0,40.689223,-73.991926,1.04,1:51:10
2024-03-23T21:51:10,-7.61934536405,-3.31106827275,6.2105710583,0.031154127148098783,0.009621127501618741,-0.030085112981252257,0.19726000000000002,0.10850000000000001,-0.46102000000000004,1.5,3,1,1,1,3,6.2880078125,78620,57.13550129115093,1008.6984890751622,0,40.689223,-73.991926,0.94,1:51:10
2024-03-23T21:51:10,-7.645068206999999,-3.3284162366,6.1758751306,0.029626964052603746,0.010231992739816757,-0.03420845333908886,0.19922000000000004,0.0987,-0.46326000000000006,1.5,3,1,1,1,3,6.2880078125,78620,57.13550129115093,1008.6984890751622,0,40.689223,-73.991926,0.94,1:51:10
2024-03-23T21:51:10,-7.60498842845,-3.3343982930999996,6.2045890018,0.03756821214917795,0.010842857978014774,-0.03329215548179184,0.20034000000000002,0.10570000000000002,-0.45920000000000005,1.5,3,1,1,1,3,6.2880078125,78620,57.13550129115093,1008.6984890751622,0,40.689225,-73.991921,0.94,1:51:11
2024-03-23T21:51:11,-7.6941210703,-3.3116664784,6.22672261085,0.03924809155422249,0.012675453692608819,-0.03390302071998985,0.19418000000000002,0.10682000000000001,-0.4537400000000001,1.5,3,2,1,1,3,6.192109375,80881,57.008348126089324,1008.7070582149754,0,40.689225,-73.991921,0.94,1:51:11
2024-03-23T21:51:11,-7.680960546,-3.32183597445,6.203392590499999,0.03634648167278191,0.008704829644321718,-0.031459559767197796,0.19614,0.10094000000000002,-0.4571,1.5,3,2,1,1,3,6.192109375,80881,57.008348126089324,1008.7070582149754,0,40.689225,-73.991921,0.94,1:51:11
2024-03-23T21:51:11,-7.604390222799999,-3.29312210325,6.123233033399999,0.030085112981252257,0.011759155835311796,-0.03252857393404432,0.19754000000000002,0.11018,-0.4606,1.5,3,2,1,1,3,6.192109375,80881,57.008348126089324,1008.7070582149754,0,40.689225,-73.991921,0.94,1:51:11
2024-03-23T21:51:11,-7.6522466748,-3.3284162366,6.22074055435,0.03390302071998985,0.010384709049366262,-0.03436116964863837,0.20678000000000002,0.10318000000000001,-0.46830000000000005,1.5,3,2,1,1,3,6.192109375,80881,57.008348126089324,1008.7070582149754,0,40.689225,-73.991921,0.94,1:51:11
2024-03-23T21:51:11,-7.685746191199999,-3.3200413575,6.22672261085,0.03268129024359383,0.008399397025222712,-0.0355829001250344,0.20398000000000002,0.10710000000000001,-0.45752000000000004,1.5,3,2,1,1,3,6.192109375,80881,57.008348126089324,1008.7070582149754,0,40.689225,-73.991921,0.94,1:51:11
2024-03-23T21:51:11,-7.683353368600001,-3.3332018817999995,6.1938213001,0.03375030441044035,0.008552113334772215,-0.03405573702953936,0.20398000000000002,0.10710000000000001,-0.45752000000000004,1.5,3,2,1,1,3,6.122578125,83523,56.8843545978213,1008.7027776528798,0,40.689225,-73.991921,0.94,1:51:11
2024-03-23T21:51:11,-7.613363307549999,-3.3074790388499995,6.1962141227,0.03512475119638588,0.01145372321621279,-0.03604104905368291,0.19894000000000003,0.10458,-0.47250000000000003,1.5,3,2,1,1,3,6.122578125,83523,56.8843545978213,1008.7027776528798,0,40.689225,-73.991921,0.86,1:51:11
2024-03-23T21:51:11,-7.664808993449999,-3.290131075,6.226124405199999,0.0316122760767473,0.010384709049366262,-0.03298672286269283,0.19838000000000003,0.10346000000000001,-0.45542,1.5,3,2,1,1,3,6.122578125,83523,56.8843545978213,1008.7027776528798,0,40.689225,-73.991921,0.86,1:51:11
2024-03-23T21:51:11,-7.637889739199999,-3.3176485348999996,6.18125898145,0.03283400655314333,0.012675453692608819,-0.03298672286269283,0.19838000000000003,0.11018,-0.45304,1.5,3,2,1,1,3,6.122578125,83523,56.8843545978213,1008.7027776528798,0,40.689221,-73.991915,0.86,1:51:12
2024-03-23T21:51:12,-7.663014376499999,-3.3200413575,6.13579535205,0.03390302071998985,0.007788531787024696,-0.03420845333908886,0.19698000000000002,0.10542000000000001,-0.46032000000000006,1.5,3,2,1,1,3,6.3128125,94464,56.99652235506487,1008.6864928812524,0,40.689221,-73.991915,0.86,1:51:12
2024-03-23T21:51:12,-7.610970484949999,-3.3158539179499997,6.205785413099999,0.03329215548179184,0.008704829644321718,-0.03604104905368291,0.19782000000000002,0.10486000000000001,-0.46746000000000004,1.5,3,2,1,1,3,6.3128125,94464,56.99652235506487,1008.6864928812524,0,40.689221,-73.991915,0.86,1:51:12
2024-03-23T21:51:12,-7.60857766235,-3.3176485348999996,6.142375614199999,0.0316122760767473,0.012370021073509813,-0.030237829290801762,0.20538000000000003,0.10626000000000001,-0.46942000000000006,1.5,3,2,1,1,3,6.3128125,94464,56.99652235506487,1008.6864928812524,0,40.689221,-73.991915,0.75,1:51:12
2024-03-23T21:51:12,-7.618747158399999,-3.29910415975,6.1005012187,0.0319177086958463,0.0044287729769356115,-0.03420845333908886,0.2079,0.09646,-0.47418000000000005,1.5,3,2,1,1,3,6.3128125,94464,56.99652235506487,1008.6864928812524,0,40.689221,-73.991915,0.75,1:51:12
2024-03-23T21:51:12,-7.6498538522,-3.3403803495999997,6.197410534,0.03543018381548489,0.013897184169004852,-0.028710666195306725,0.2079,0.09646,-0.47418000000000005,1.5,3,2,1,1,3,6.3128125,94464,56.99652235506487,1008.6864928812524,0,40.689223,-73.991906,0.75,1:51:13
2024-03-23T21:51:13,-7.619943569699999,-3.3104700671,6.1776697475499995,0.03390302071998985,0.008704829644321718,-0.03375030441044035,0.19782000000000002,0.09954,-0.45416,1.5,4,2,1,1,3,6.292109375,93418,56.80087130937821,1008.6932653145498,0,40.689223,-73.991906,0.75,1:51:13
2024-03-23T21:51:13,-7.641478973099999,-3.3074790388499995,6.158527166749999,0.03466660226773738,0.008552113334772215,-0.030085112981252257,0.19978000000000004,0.10178000000000001,-0.46396000000000004,1.5,4,2,1,1,3,6.292109375,93418,56.80087130937821,1008.6932653145498,0,40.689223,-73.991906,0.75,1:51:13
2024-03-23T21:51:13,-7.668996432999999,-3.3074790388499995,6.1579289611,0.03726277953007894,0.008552113334772215,-0.03298672286269283,0.19950000000000004,0.10262,-0.46648,1.5,4,2,1,1,3,6.292109375,93418,56.80087130937821,1008.6932653145498,0,40.689223,-73.991906,0.77,1:51:13
2024-03-23T21:51:13,-7.5828548194,-3.3272198252999994,6.12742047295,0.03375030441044035,0.01069014166846527,-0.03588833274413341,0.19950000000000004,0.10038000000000001,-0.45542,1.5,4,2,1,1,3,6.292109375,93418,56.80087130937821,1008.6932653145498,0,40.689223,-73.991906,0.77,1:51:13
2024-03-23T21:51:13,-7.626523831849999,-3.31106827275,6.176473336249999,0.031459559767197796,0.010842857978014774,-0.03604104905368291,0.19950000000000004,0.10038000000000001,-0.45542,1.5,4,2,1,1,3,6.292109375,93418,56.80087130937821,1008.6932653145498,0,40.689225,-73.991904,0.77,1:51:14
2024-03-23T21:51:14,-7.599604577599999,-3.33619291005,6.1776697475499995,0.03283400655314333,0.008246680715673207,-0.030390545600351267,0.20566000000000004,0.09730000000000001,-0.46158000000000005,1.5,3,2,1,1,3,6.2204296875,93521,56.631729672855016,1008.702701009164,0,40.689225,-73.991904,0.77,1:51:14
2024-03-23T21:51:14,-7.618747158399999,-3.3182467405500002,6.145964848099999,0.03634648167278191,0.0068722339297276735,-0.031459559767197796,0.19642,0.0987,-0.46648,1.5,3,2,1,1,3,6.2204296875,93521,56.631729672855016,1008.702701009164,0,40.689225,-73.991904,0.77,1:51:14
2024-03-23T21:51:14,-7.507480907499999,-3.32303238575,6.13579535205,0.03604104905368291,0.015882496193148403,-0.030390545600351267,0.2023,0.10682000000000001,-0.4590600000000001,1.5,3,2,1,1,3,6.2204296875,93521,56.631729672855016,1008.702701009164,0,40.689225,-73.991904,0.81,1:51:14
2024-03-23T21:51:14,-7.57388173465,-3.3391839383,6.1328043237999985,0.03451388595818787,0.009010262263420728,-0.03665191429188092,0.19894000000000003,0.10262,-0.46130000000000004,1.5,3,2,1,1,3,6.2204296875,93521,56.631729672855016,1008.702701009164,0,40.689225,-73.991904,0.81,1:51:14
2024-03-23T21:51:14,-7.634898710949999,-3.3074790388499995,6.176473336249999,0.03604104905368291,0.0119118721448613,-0.03420845333908886,0.19894000000000003,0.10262,-0.46130000000000004,1.5,3,2,1,1,3,6.2204296875,93521,56.631729672855016,1008.702701009164,0,40.689223,-73.9919,0.81,1:51:15
2024-03-23T21:51:15,-7.636095122249999,-3.32183597445,6.226124405199999,0.03329215548179184,0.010384709049366262,-0.03252857393404432,0.20370000000000002,0.09758000000000001,-0.46340000000000003,1.5,3,1,1,1,3,6.156171875,94148,56.47647484437934,1008.7141913029777,0,40.689223,-73.9919,0.81,1:51:15
2024-03-23T21:51:15,-7.653443086099999,-3.3343982930999996,6.2117674696,0.03695734691097993,0.01145372321621279,-0.03207042500539581,0.20538000000000003,0.0959,-0.46340000000000003,1.5,3,1,1,1,3,6.156171875,94148,56.47647484437934,1008.7141913029777,0,40.689223,-73.9919,0.81,1:51:15
2024-03-23T21:51:15,-7.60498842845,-3.3308090591999995,6.1722858967,0.03130684345764829,0.006108652381980154,-0.03222314131494531,0.20706000000000002,0.0987,-0.45794000000000007,1.5,3,1,1,1,3,6.156171875,94148,56.47647484437934,1008.7141913029777,0,40.689223,-73.9919,0.69,1:51:15
2024-03-23T21:51:15,-7.6941210703,-3.3068808331999993,6.1196437994999995,0.0357356164345839,0.00946841119206924,-0.03298672286269283,0.20398000000000002,0.10150000000000002,-0.4543000000000001,1.5,3,1,1,1,3,6.156171875,94148,56.47647484437934,1008.7141913029777,0,40.689223,-73.9919,0.69,1:51:15
2024-03-23T21:51:15,-7.624131009249999,-3.3104700671,6.150152287649999,0.03405573702953936,0.005345070834232635,-0.031459559767197796,0.20398000000000002,0.10150000000000002,-0.4543000000000001,1.5,3,1,1,1,3,6.156171875,94148,56.47647484437934,1008.7141913029777,0,40.689223,-73.9919,0.69,1:51:16
2024-03-23T21:51:16,-7.647461029599999,-3.3236305913999997,6.198008739649999,0.03756821214917795,0.008246680715673207,-0.03481931857728687,0.20146,0.10066000000000001,-0.45108000000000004,1.5,3,2,1,1,3,6.10265625,93907,56.34186592967502,1008.7142983630255,0,40.689223,-73.9919,0.69,1:51:16
2024-03-23T21:51:16,-7.6516484691499995,-3.34097855525,6.1040904525999995,0.03695734691097993,0.006719517620178169,-0.029626964052603746,0.20202,0.10206000000000001,-0.45766,1.5,3,2,1,1,3,6.10265625,93907,56.34186592967502,1008.7142983630255,0,40.689223,-73.9919,0.69,1:51:16
2024-03-23T21:51:16,-7.6426753843999995,-3.3056844218999997,6.134598940749999,0.036499197982331415,0.012980886311707827,-0.030237829290801762,0.20202,0.10206000000000001,-0.45766,1.5,3,2,1,1,3,6.10265625,93907,56.34186592967502,1008.7142983630255,0,40.689223,-73.9919,0.69,1:51:16
2024-03-23T21:51:16,-7.60618483975,-3.314059301,6.1579289611,0.03634648167278191,0.009773843811168246,-0.03451388595818787,0.20538000000000003,0.09366000000000001,-0.46984000000000004,1.5,3,2,1,1,3,6.10265625,93907,56.34186592967502,1008.7142983630255,0,40.689223,-73.9919,0.69,1:51:16
2024-03-23T21:51:16,-7.621139980999999,-3.30269339365,6.1698930741,0.031001410838549282,0.006719517620178169,-0.03375030441044035,0.2009,0.10094000000000002,-0.46830000000000005,1.5,3,2,1,1,3,6.10265625,93907,56.34186592967502,1008.7142983630255,0,40.689223,-73.9919,0.69,1:51:16
2024-03-23T21:51:16,-7.637889739199999,-3.3553354908499995,6.1244294447,0.02977968036215325,0.009315694882519735,-0.030085112981252257,0.20846,0.0987,-0.46690000000000004,1.5,3,2,1,1,3,6.060078125,94857,56.227871089838885,1008.7206451273759,0,40.689223,-73.9919,0.69,1:51:16
2024-03-23T21:51:16,-7.6498538522,-3.32063956315,6.139384585949999,0.028099800957108706,0.008552113334772215,-0.03695734691097993,0.19978000000000004,0.09618,-0.46620000000000006,1.5,3,2,1,1,3,6.060078125,94857,56.227871089838885,1008.7206451273759,0,40.689223,-73.9919,0.68,1:51:16
2024-03-23T21:51:16,-7.670192844299999,-3.3158539179499997,6.1776697475499995,0.029474247743054245,0.013133602621257331,-0.0319177086958463,0.2023,0.09982,-0.46970000000000006,1.5,3,2,1,1,3,6.060078125,94857,56.227871089838885,1008.7206451273759,0,40.689223,-73.9919,0.68,1:51:16
2024-03-23T21:51:16,-7.6295148601000005,-3.3224341800999997,6.149554082000001,0.03665191429188092,0.009621127501618741,-0.03405573702953936,0.2023,0.09982,-0.46970000000000006,1.5,3,2,1,1,3,6.060078125,94857,56.227871089838885,1008.7206451273759,0,40.689225,-73.991903,0.68,1:51:17
2024-03-23T21:51:17,-7.659425142599999,-3.29312210325,6.1782679532,0.03527746750593539,0.011301006906663285,-0.03466660226773738,0.2009,0.1029,-0.46438000000000007,1.5,3,2,1,1,3,6.270625,105999,56.33541694715249,1008.7039121075944,0,40.689225,-73.991903,0.68,1:51:17
2024-03-23T21:51:17,-7.649255646549999,-3.3062826275499995,6.088537105699999,0.03527746750593539,0.012064588454410803,-0.03283400655314333,0.20762000000000003,0.09534000000000001,-0.4711,1.5,3,2,1,1,3,6.270625,105999,56.33541694715249,1008.7039121075944,0,40.689225,-73.991903,0.68,1:51:17
2024-03-23T21:51:17,-7.506284496199999,-3.3170503292499998,6.120242005150001,0.036804630601430424,0.008704829644321718,-0.03283400655314333,0.20398000000000002,0.10262,-0.4655000000000001,1.5,3,2,1,1,3,6.270625,105999,56.33541694715249,1008.7039121075944,0,40.689225,-73.991903,0.74,1:51:17
2024-03-23T21:51:17,-7.6516484691499995,-3.3308090591999995,6.16091998935,0.03344487179134134,0.012522737383059314,-0.03344487179134134,0.20902,0.09478000000000002,-0.4620000000000001,1.5,3,2,1,1,3,6.270625,105999,56.33541694715249,1008.7039121075944,0,40.689225,-73.991903,0.74,1:51:17
2024-03-23T21:51:17,-7.654639497399999,-3.3152557123,6.122634827750001,0.03313943917224234,0.008704829644321718,-0.03497203488683638,0.20902,0.09478000000000002,-0.4620000000000001,1.5,3,2,1,1,3,6.270625,105999,56.33541694715249,1008.7039121075944,0,40.689225,-73.991903,0.74,1:51:18
2024-03-23T21:51:18,-7.671987461249999,-3.3236305913999997,6.272784445899999,0.03405573702953936,0.009621127501618741,-0.03359758810089085,0.20146,0.09982,-0.46872,1.5,3,2,1,1,3,6.2618359375,103782,56.15467949568637,1008.7064592044867,0,40.689225,-73.991903,0.74,1:51:18
2024-03-23T21:51:18,-7.609175867999999,-3.3158539179499997,6.090331722649999,0.03329215548179184,0.012980886311707827,-0.03405573702953936,0.20706000000000002,0.09674,-0.44716,1.5,3,2,1,1,3,6.2618359375,103782,56.15467949568637,1008.7064592044867,0,40.689225,-73.991903,0.74,1:51:18
2024-03-23T21:51:18,-7.632505888349999,-3.2949167202,6.165705634549999,0.031459559767197796,0.009621127501618741,-0.031154127148098783,0.20706000000000002,0.09674,-0.44716,1.5,3,2,1,1,3,6.2618359375,103782,56.15467949568637,1008.7064592044867,0,40.689225,-73.991903,0.65,1:51:18
2024-03-23T21:51:18,-7.624131009249999,-3.329014442249999,6.1447684368,0.03756821214917795,0.011759155835311796,-0.03313943917224234,0.20006000000000004,0.09254000000000001,-0.45346000000000003,1.5,3,2,1,1,3,6.2618359375,103782,56.15467949568637,1008.7064592044867,0,40.689225,-73.991903,0.65,1:51:18
2024-03-23T21:51:18,-7.615157924499999,-3.3182467405500002,6.166303840199999,0.0355829001250344,0.013133602621257331,-0.0319177086958463,0.20286,0.09114000000000001,-0.4501,1.5,3,2,1,1,3,6.2618359375,103782,56.15467949568637,1008.7064592044867,0,40.689226,-73.991903,0.65,1:51:19
2024-03-23T21:51:19,-7.626523831849999,-3.2835508128499997,6.14895587635,0.03390302071998985,0.009315694882519735,-0.031764992386296806,0.20398000000000002,0.10710000000000001,-0.46942000000000006,1.5,3,2,1,1,3,6.1993359375,102896,55.97440574935124,1008.7070794482643,0,40.689226,-73.991903,0.65,1:51:19
2024-03-23T21:51:19,-7.6008009889,-3.3320054704999995,6.2165531148,0.03481931857728687,0.010537425358915765,-0.03405573702953936,0.19950000000000004,0.10038000000000001,-0.46158000000000005,1.5,3,2,1,1,3,6.1993359375,102896,55.97440574935124,1008.7070794482643,0,40.689226,-73.991903,0.65,1:51:19
2024-03-23T21:51:19,-7.6540412917500005,-3.2997023654,6.196812328349999,0.03466660226773738,0.0068722339297276735,-0.0319177086958463,0.19950000000000004,0.10038000000000001,-0.46158000000000005,1.5,3,2,1,1,3,6.1993359375,102896,55.97440574935124,1008.7070794482643,0,40.689226,-73.991903,0.64,1:51:19
2024-03-23T21:51:19,-7.6103722793,-3.3284162366,6.1351971463999995,0.03375030441044035,0.015577063574049392,-0.0319177086958463,0.20454000000000003,0.10346000000000001,-0.4748800000000001,1.5,3,2,1,1,3,6.1993359375,102896,55.97440574935124,1008.7070794482643,0,40.689226,-73.991903,0.64,1:51:19
2024-03-23T21:51:19,-7.666603610399998,-3.3032915992999996,6.163312811949998,0.036804630601430424,0.007941248096574201,-0.03298672286269283,0.20762000000000003,0.09842000000000002,-0.45738000000000006,1.5,3,2,1,1,3,6.1993359375,102896,55.97440574935124,1008.7070794482643,0,40.68923,-73.991904,0.64,1:51:20
2024-03-23T21:51:20,-7.67916592905,-3.32781803095,6.236293901249999,0.03405573702953936,0.00946841119206924,-0.030695978219450276,0.20118,0.09842000000000002,-0.45458000000000004,1.5,3,2,1,1,3,6.1423046875,103337,55.865397440999885,1008.7047565049083,0,40.68923,-73.991904,0.64,1:51:20
2024-03-23T21:51:20,-7.689933630749999,-3.3266216196499996,6.1304115012,0.03298672286269283,0.007941248096574201,-0.031764992386296806,0.20510000000000003,0.09786000000000002,-0.46970000000000006,1.5,3,2,1,1,3,6.1423046875,103337,55.865397440999885,1008.7047565049083,0,40.68923,-73.991904,0.64,1:51:20
2024-03-23T21:51:20,-7.644470001349999,-3.32183597445,6.1519469046,0.03237585762449482,0.013439035240356337,-0.03222314131494531,0.20146,0.09730000000000001,-0.46648,1.5,3,2,1,1,3,6.1423046875,103337,55.865397440999885,1008.7047565049083,0,40.68923,-73.991904,0.7,1:51:20
2024-03-23T21:51:20,-7.628916654449999,-3.3236305913999997,6.31645345835,0.037110063220529434,0.007635815477475193,-0.03405573702953936,0.20370000000000002,0.10038000000000001,-0.45682000000000006,1.5,3,2,1,1,3,6.1423046875,103337,55.865397440999885,1008.7047565049083,0,40.68923,-73.991904,0.7,1:51:20
2024-03-23T21:51:20,-7.62772024315,-3.3170503292499998,6.1782679532,0.03283400655314333,0.005345070834232635,-0.03313943917224234,0.20342000000000002,0.09758000000000001,-0.44758000000000003,1.5,3,2,1,1,3,6.1423046875,103337,55.865397440999885,1008.7047565049083,0,40.689235,-73.991904,0.7,1:51:21
2024-03-23T21:51:21,-7.643871795699999,-3.3080772444999993,6.18484821535,0.031154127148098783,0.009315694882519735,-0.03466660226773738,0.20398000000000002,0.10234,-0.46648,1.5,4,2,1,1,3,6.0969921875,103719,55.72579788221502,1008.7047954274811,0,40.689235,-73.991904,0.7,1:51:21
2024-03-23T21:51:21,-7.66121975955,-3.31944315185,6.136991763349999,0.03405573702953936,0.009621127501618741,-0.030848694528999777,0.19950000000000004,0.10598,-0.4631200000000001,1.5,4,2,1,1,3,6.0969921875,103719,55.72579788221502,1008.7047954274811,0,40.689235,-73.991904,0.7,1:51:21
2024-03-23T21:51:21,-7.578069174199999,-3.3104700671,6.17168769105,0.03344487179134134,0.010384709049366262,-0.03268129024359383,0.19978000000000004,0.10150000000000002,-0.47222000000000003,1.5,4,2,1,1,3,6.0969921875,103719,55.72579788221502,1008.7047954274811,0,40.689235,-73.991904,0.7,1:51:21
2024-03-23T21:51:21,-7.683951574249999,-3.3308090591999995,6.1567325498,0.02855794988575722,0.00946841119206924,-0.03390302071998985,0.20118,0.10262,-0.46396000000000004,1.5,2,2,1,1,3,6.0969921875,103719,55.72579788221502,1008.7047954274811,0,40.689235,-73.991904,0.7,1:51:21
2024-03-23T21:51:21,-7.6498538522,-3.32183597445,6.148357670699999,0.03405573702953936,0.013591751549905842,-0.03436116964863837,0.20202,0.1029,-0.4555600000000001,1.5,2,2,1,1,3,6.0969921875,103719,55.72579788221502,1008.7047954274811,0,40.689235,-73.991904,0.7,1:51:21
2024-03-23T21:51:21,-7.70309415505,-3.3266216196499996,6.156134344149999,0.03451388595818787,0.009010262263420728,-0.03359758810089085,0.19978000000000004,0.10150000000000002,-0.46592000000000006,1.5,2,2,1,1,3,6.0598828125,104231,55.6128286005075,1008.7047610432984,0,40.689235,-73.991904,0.7,1:51:21
2024-03-23T21:51:21,-7.671389255599999,-3.3164521235999995,6.095715573500001,0.03237585762449482,0.010537425358915765,-0.03268129024359383,0.19950000000000004,0.10430000000000002,-0.45640000000000003,1.5,2,2,1,1,3,6.0598828125,104231,55.6128286005075,1008.7047610432984,0,40.689235,-73.991904,0.81,1:51:21
2024-03-23T21:51:21,-7.683353368600001,-3.31106827275,6.2141602922,0.03130684345764829,0.009621127501618741,-0.0355829001250344,0.20622000000000001,0.10318000000000001,-0.4655000000000001,1.5,2,2,1,1,3,6.0598828125,104231,55.6128286005075,1008.7047610432984,0,40.689235,-73.991904,0.81,1:51:21
2024-03-23T21:51:21,-7.6319076827,-3.3212377687999997,6.16809845715,0.036193765363232405,0.010079276430267254,-0.03420845333908886,0.20622000000000001,0.10318000000000001,-0.4655000000000001,1.5,2,2,1,1,3,6.0598828125,104231,55.6128286005075,1008.7047610432984,0,40.689235,-73.991903,0.81,1:51:22
2024-03-23T21:51:22,-7.686344396849999,-3.3182467405500002,6.212963880899999,0.030848694528999777,0.007941248096574201,-0.03497203488683638,0.20202,0.10178000000000001,-0.46158000000000005,1.5,3,2,1,1,3,6.2766796875,114796,55.72701456960516,1008.6846743644414,0,40.689235,-73.991903,0.81,1:51:22
2024-03-23T21:51:22,-7.600202783249999,-3.3188449462,6.207580030049999,0.0357356164345839,0.010842857978014774,-0.03436116964863837,0.20006000000000004,0.11158000000000001,-0.46592000000000006,1.5,3,2,1,1,3,6.2766796875,114796,55.72701456960516,1008.6846743644414,0,40.689235,-73.991903,0.81,1:51:22
2024-03-23T21:51:22,-7.593024315449999,-3.329014442249999,6.153741521549999,0.03543018381548489,0.0070249502392771765,-0.03451388595818787,0.20006000000000004,0.11158000000000001,-0.46592000000000006,1.5,3,2,1,1,3,6.2766796875,114796,55.72701456960516,1008.6846743644414,0,40.689235,-73.991903,0.74,1:51:22
2024-03-23T21:51:22,-7.637889739199999,-3.3260234139999993,6.186642832299999,0.031001410838549282,0.006414085001079162,-0.03359758810089085,0.2023,0.10794000000000001,-0.4690000000000001,1.5,3,2,1,1,3,6.2766796875,114796,55.72701456960516,1008.6846743644414,0,40.689235,-73.991903,0.74,1:51:22
2024-03-23T21:51:22,-7.66002334825,-3.3056844218999997,6.163312811949998,0.04001167310197001,0.010995574287564279,-0.03405573702953936,0.19642,0.10990000000000001,-0.45794000000000007,1.5,3,2,1,1,3,6.2766796875,114796,55.72701456960516,1008.6846743644414,0,40.689236,-73.991901,0.74,1:51:23
2024-03-23T21:51:23,-7.728816998,-3.3200413575,6.2117674696,0.03283400655314333,0.012675453692608819,-0.030085112981252257,0.20874,0.09758000000000001,-0.46382000000000007,1.5,3,2,1,1,3,6.27375,111681,55.55393981174707,1008.6884053878587,0,40.689236,-73.991901,0.74,1:51:23
2024-03-23T21:51:23,-7.69830850985,-3.3338000874499993,6.172884102349999,0.03588833274413341,0.009773843811168246,-0.03283400655314333,0.20734000000000002,0.09982,-0.4711,1.5,3,2,1,1,3,6.27375,111681,55.55393981174707,1008.6884053878587,0,40.689236,-73.991901,0.74,1:51:23
2024-03-23T21:51:23,-7.623532803599999,-3.3164521235999995,6.1531433159,0.03405573702953936,0.007177666548826681,-0.03420845333908886,0.20398000000000002,0.09506,-0.47502000000000005,1.5,3,2,1,1,3,6.27375,111681,55.55393981174707,1008.6884053878587,0,40.689236,-73.991901,0.72,1:51:23
2024-03-23T21:51:23,-7.628916654449999,-3.3080772444999993,6.201597973549998,0.03359758810089085,0.007483099167925688,-0.03268129024359383,0.20426000000000002,0.09926,-0.46746000000000004,1.5,3,2,1,1,3,6.27375,111681,55.55393981174707,1008.6884053878587,0,40.689236,-73.991901,0.72,1:51:23
2024-03-23T21:51:23,-7.643871795699999,-3.3116664784,6.2422759577499995,0.03527746750593539,0.012064588454410803,-0.03268129024359383,0.20426000000000002,0.09926,-0.46746000000000004,1.5,3,2,1,1,3,6.27375,111681,55.55393981174707,1008.6884053878587,0,40.689233,-73.991898,0.72,1:51:24
2024-03-23T21:51:24,-7.60738125105,-3.2985059540999995,6.17049127975,0.03772092845872745,0.01114829059711378,-0.03420845333908886,0.19922000000000004,0.10038000000000001,-0.45570000000000005,1.5,4,1,1,1,3,6.2176953125,110438,55.43890952280038,1008.6894694254552,0,40.689233,-73.991898,0.72,1:51:24
2024-03-23T21:51:24,-7.66361258215,-3.31346109535,6.163911017599999,0.03313943917224234,0.010842857978014774,-0.030848694528999777,0.1953,0.10122000000000002,-0.45164000000000004,1.5,4,1,1,1,3,6.2176953125,110438,55.43890952280038,1008.6894694254552,0,40.689233,-73.991898,0.72,1:51:24
2024-03-23T21:51:24,-7.5182486092,-3.3200413575,6.142375614199999,0.031001410838549282,0.012217304763960308,-0.029626964052603746,0.20006000000000004,0.09394000000000001,-0.4625600000000001,1.5,4,1,1,1,3,6.2176953125,110438,55.43890952280038,1008.6894694254552,0,40.689233,-73.991898,0.56,1:51:24
2024-03-23T21:51:24,-7.6067830453999985,-3.32063956315,6.16450922325,0.03359758810089085,0.010537425358915765,-0.03252857393404432,0.20398000000000002,0.10178000000000001,-0.46172,1.5,4,1,1,1,3,6.2176953125,110438,55.43890952280038,1008.6894694254552,0,40.689233,-73.991898,0.56,1:51:24
2024-03-23T21:51:24,-7.653443086099999,-3.3266216196499996,6.1543397272,0.03268129024359383,0.010842857978014774,-0.03390302071998985,0.20398000000000002,0.10178000000000001,-0.46172,1.5,4,1,1,1,3,6.2176953125,110438,55.43890952280038,1008.6894694254552,0,40.689238,-73.991886,0.56,1:51:25
2024-03-23T21:51:25,-7.7228349415,-3.2913274863,6.197410534,0.03268129024359383,0.01145372321621279,-0.03420845333908886,0.19754000000000002,0.09478000000000002,-0.46130000000000004,1.5,3,2,1,1,3,6.1633984375,108731,55.34971263300473,1008.6917397857472,0,40.689238,-73.991886,0.56,1:51:25
2024-03-23T21:51:25,-7.67677310645,-3.3284162366,6.158527166749999,0.03252857393404432,0.006719517620178169,-0.03420845333908886,0.20818,0.10066000000000001,-0.46648,1.5,3,2,1,1,3,6.1633984375,108731,55.34971263300473,1008.6917397857472,0,40.689238,-73.991886,0.56,1:51:25
2024-03-23T21:51:25,-7.641478973099999,-3.3092736557999998,6.18484821535,0.0316122760767473,0.010537425358915765,-0.03604104905368291,0.20538000000000003,0.09758000000000001,-0.45864000000000005,1.5,3,2,1,1,3,6.1633984375,108731,55.34971263300473,1008.6917397857472,0,40.689238,-73.991886,0.67,1:51:25
2024-03-23T21:51:25,-7.6540412917500005,-3.3367911156999996,6.149554082000001,0.03436116964863837,0.00946841119206924,-0.03130684345764829,0.19866000000000003,0.09730000000000001,-0.4466,1.5,3,2,1,1,3,6.1633984375,108731,55.34971263300473,1008.6917397857472,0,40.689238,-73.991886,0.67,1:51:25
2024-03-23T21:51:25,-7.637889739199999,-3.3152557123,6.191428477500001,0.030085112981252257,0.008857545953871223,-0.03054326190990077,0.19866000000000003,0.09730000000000001,-0.4466,1.5,3,2,1,1,3,6.1633984375,108731,55.34971263300473,1008.6917397857472,0,40.689241,-73.991885,0.67,1:51:26
2024-03-23T21:51:26,-7.618747158399999,-3.35892472475,6.181857187099999,0.03741549583962844,0.008857545953871223,-0.03375030441044035,0.18886,0.09814000000000002,-0.46564000000000005,1.5,3,2,1,1,3,6.1196484375,108871,55.2809142668761,1008.6909479032342,0,40.689241,-73.991885,0.67,1:51:26
2024-03-23T21:51:26,-7.636095122249999,-3.3272198252999994,6.171089485399999,0.03634648167278191,0.010231992739816757,-0.03329215548179184,0.20342000000000002,0.09926,-0.46830000000000005,1.5,3,2,1,1,3,6.1196484375,108871,55.2809142668761,1008.6909479032342,0,40.689241,-73.991885,0.67,1:51:26
2024-03-23T21:51:26,-7.807181938149999,-3.3170503292499998,6.194419505749999,0.03543018381548489,0.012522737383059314,-0.03268129024359383,0.19138000000000002,0.09842000000000002,-0.46662000000000003,1.5,3,2,1,1,3,6.1196484375,108871,55.2809142668761,1008.6909479032342,0,40.689241,-73.991885,0.67,1:51:26
2024-03-23T21:51:26,-7.640282561799999,-3.2859436354499993,6.190232066199998,0.03497203488683638,0.006719517620178169,-0.03390302071998985,0.20286,0.0959,-0.45738000000000006,1.5,3,2,1,1,3,6.1196484375,108871,55.2809142668761,1008.6909479032342,0,40.689241,-73.991885,0.67,1:51:26
2024-03-23T21:51:26,-7.6564341143500005,-3.337987527,6.116652771249999,0.030390545600351267,0.009926560120717751,-0.029168815123955236,0.20174,0.0903,-0.45990000000000003,1.5,3,2,1,1,3,6.1196484375,108871,55.2809142668761,1008.6909479032342,0,40.689241,-73.991885,0.67,1:51:26
2024-03-23T21:51:26,-7.5948189324,-3.33619291005,6.1531433159,0.03375030441044035,0.009621127501618741,-0.03787364476827696,0.20062000000000002,0.09842000000000002,-0.44772,1.5,3,2,1,1,3,6.0837109375,107965,55.244942146319886,1008.692884104807,0,40.689241,-73.991885,0.67,1:51:26
2024-03-23T21:51:26,-7.603193811499999,-3.3308090591999995,6.16929486845,0.03420845333908886,0.0070249502392771765,-0.03359758810089085,0.1967,0.09282000000000001,-0.4571,1.5,3,2,1,1,3,6.0837109375,107965,55.244942146319886,1008.692884104807,0,40.689241,-73.991885,0.73,1:51:26
2024-03-23T21:51:26,-7.664210787799999,-3.3260234139999993,6.166902045849999,0.03283400655314333,0.010384709049366262,-0.0316122760767473,0.19138000000000002,0.10066000000000001,-0.45682000000000006,1.5,3,2,1,1,3,6.0837109375,107965,55.244942146319886,1008.692884104807,0,40.689241,-73.991885,0.73,1:51:26
2024-03-23T21:51:26,-7.6343005053,-3.29431851455,6.179464364499999,0.03359758810089085,0.009621127501618741,-0.0319177086958463,0.19082000000000002,0.09282000000000001,-0.4529,1.5,3,2,1,1,3,6.0837109375,107965,55.244942146319886,1008.692884104807,0,40.689241,-73.99188,0.73,1:51:27
2024-03-23T21:51:27,-7.655237703049999,-3.3128628897,6.1908302718499995,0.03313943917224234,0.006108652381980154,-0.03604104905368291,0.2023,0.09926,-0.47180000000000005,1.5,3,1,1,1,3,6.301875,119427,55.35899365772805,1008.6733342905883,0,40.689241,-73.99188,0.73,1:51:27
2024-03-23T21:51:27,-7.668996432999999,-3.32063956315,6.16091998935,0.02932153143350474,0.010231992739816757,-0.030237829290801762,0.20426000000000002,0.09730000000000001,-0.46158000000000005,1.5,3,1,1,1,3,6.301875,119427,55.35899365772805,1008.6733342905883,0,40.689241,-73.99188,0.73,1:51:27
2024-03-23T21:51:27,-7.60618483975,-3.2997023654,6.1543397272,0.031459559767197796,0.010231992739816757,-0.03497203488683638,0.20034000000000002,0.09926,-0.46032000000000006,1.5,3,1,1,1,3,6.301875,119427,55.35899365772805,1008.6733342905883,0,40.689241,-73.99188,0.72,1:51:27
2024-03-23T21:51:27,-7.66361258215,-3.3391839383,6.218945937399999,0.03390302071998985,0.011301006906663285,-0.03207042500539581,0.1967,0.09282000000000001,-0.44758000000000003,1.5,3,1,1,1,3,6.301875,119427,55.35899365772805,1008.6733342905883,0,40.689241,-73.99188,0.72,1:51:27
2024-03-23T21:51:27,-7.6582287312999995,-3.3146575066499997,6.173482308,0.03527746750593539,0.010842857978014774,-0.03329215548179184,0.1967,0.09282000000000001,-0.44758000000000003,1.5,3,1,1,1,3,6.301875,119427,55.35899365772805,1008.6733342905883,0,40.689238,-73.991866,0.72,1:51:28
2024-03-23T21:51:28,-7.6462646183,-3.34097855525,6.148357670699999,0.03283400655314333,0.006108652381980154,-0.03543018381548489,0.2009,0.09394000000000001,-0.4676,1.5,3,2,1,1,3,6.303046875,115661,55.25056065301292,1008.6752999384969,0,40.689238,-73.991866,0.72,1:51:28
2024-03-23T21:51:28,-7.692326453349999,-3.3314072648499997,6.18125898145,0.02977968036215325,0.011301006906663285,-0.03772092845872745,0.19586,0.09506,-0.4578000000000001,1.5,3,2,1,1,3,6.303046875,115661,55.25056065301292,1008.6752999384969,0,40.689238,-73.991866,0.72,1:51:28
2024-03-23T21:51:28,-7.50927552445,-3.3032915992999996,6.187839243599999,0.02825251726665821,0.0070249502392771765,-0.036804630601430424,0.19250000000000003,0.10262,-0.4625600000000001,1.5,3,2,1,1,3,6.303046875,115661,55.25056065301292,1008.6752999384969,0,40.689238,-73.991866,0.66,1:51:28
2024-03-23T21:51:28,-7.663014376499999,-3.3242287970499995,6.2309100503999995,0.03527746750593539,0.007330382858376185,-0.03207042500539581,0.20174,0.09282000000000001,-0.45766,1.5,3,2,1,1,3,6.303046875,115661,55.25056065301292,1008.6752999384969,0,40.689238,-73.991866,0.66,1:51:28
2024-03-23T21:51:28,-7.633702299649999,-3.3104700671,6.1441702311499995,0.03207042500539581,0.0070249502392771765,-0.031764992386296806,0.20174,0.09282000000000001,-0.45766,1.5,3,2,1,1,3,6.303046875,115661,55.25056065301292,1008.6752999384969,0,40.68924,-73.991854,0.66,1:51:29
2024-03-23T21:51:29,-7.6498538522,-3.3260234139999993,6.22672261085,0.03604104905368291,0.012064588454410803,-0.031154127148098783,0.20678000000000002,0.10430000000000002,-0.4543000000000001,1.5,3,2,1,1,3,6.24484375,112425,55.224830185448056,1008.6866003039239,0,40.68924,-73.991854,0.66,1:51:29
2024-03-23T21:51:29,-7.70309415505,-3.3152557123,6.1800625701500005,0.03726277953007894,0.012064588454410803,-0.02977968036215325,0.20762000000000003,0.0987,-0.46970000000000006,1.5,3,2,1,1,3,6.24484375,112425,55.224830185448056,1008.6866003039239,0,40.68924,-73.991854,0.66,1:51:29
2024-03-23T21:51:29,-7.647461029599999,-3.3236305913999997,6.236293901249999,0.03420845333908886,0.012522737383059314,-0.03405573702953936,0.20762000000000003,0.0987,-0.46970000000000006,1.5,3,2,1,1,3,6.24484375,112425,55.224830185448056,1008.6866003039239,0,40.68924,-73.991854,0.66,1:51:29
2024-03-23T21:51:29,-7.6103722793,-3.30867545015,6.08195684355,0.02977968036215325,0.008857545953871223,-0.03222314131494531,0.2009,0.10234,-0.45738000000000006,1.5,3,2,1,1,3,6.24484375,112425,55.224830185448056,1008.6866003039239,0,40.68924,-73.991854,0.66,1:51:29
2024-03-23T21:51:29,-7.655237703049999,-3.3200413575,6.156134344149999,0.03252857393404432,0.008552113334772215,-0.03604104905368291,0.20846,0.09394000000000001,-0.46088000000000007,1.5,3,2,1,1,3,6.24484375,112425,55.224830185448056,1008.6866003039239,0,40.689241,-73.991848,0.66,1:51:30
2024-03-23T21:51:30,-7.645068206999999,-3.3062826275499995,6.1932230944499995,0.037110063220529434,0.010231992739816757,-0.028863382504856226,0.20566000000000004,0.10262,-0.46158000000000005,1.5,3,2,1,1,3,6.1940625,111533,55.21909537244185,1008.686130888201,0,40.689241,-73.991848,0.66,1:51:30
2024-03-23T21:51:30,-7.668398227349999,-3.3146575066499997,6.1244294447,0.03359758810089085,0.01114829059711378,-0.03405573702953936,0.20258,0.09842000000000002,-0.45458000000000004,1.5,3,2,1,1,3,6.1940625,111533,55.21909537244185,1008.686130888201,0,40.689241,-73.991848,0.66,1:51:30
2024-03-23T21:51:30,-7.6247292148999986,-3.329014442249999,6.2404813408,0.03313943917224234,0.007483099167925688,-0.031154127148098783,0.20258,0.09842000000000002,-0.45458000000000004,1.5,3,2,1,1,3,6.1940625,111533,55.21909537244185,1008.686130888201,0,40.689241,-73.991848,0.74,1:51:30
2024-03-23T21:51:30,-7.688737219449999,-3.3314072648499997,6.179464364499999,0.03451388595818787,0.008552113334772215,-0.03252857393404432,0.20454000000000003,0.10262,-0.46802000000000005,1.5,3,2,1,1,3,6.1940625,111533,55.21909537244185,1008.686130888201,0,40.689241,-73.991848,0.74,1:51:30
2024-03-23T21:51:30,-7.66002334825,-3.31346109535,6.189035654899999,0.03481931857728687,0.008399397025222712,-0.03359758810089085,0.20650000000000002,0.10234,-0.46424000000000004,1.5,3,2,1,1,3,6.1940625,111533,55.21909537244185,1008.686130888201,0,40.689243,-73.99184,0.74,1:51:31
2024-03-23T21:51:31,-7.66959463865,-3.309871861449999,6.186642832299999,0.028710666195306725,0.009315694882519735,-0.03359758810089085,0.19362000000000001,0.0959,-0.46046000000000004,1.5,3,1,1,1,3,6.151875,111460,55.2270993583095,1008.6845090242439,0,40.689243,-73.99184,0.74,1:51:31
2024-03-23T21:51:31,-7.643871795699999,-3.3266216196499996,6.2021961791999995,0.03313943917224234,0.012980886311707827,-0.03313943917224234,0.20370000000000002,0.10430000000000002,-0.46774000000000004,1.5,3,1,1,1,3,6.151875,111460,55.2270993583095,1008.6845090242439,0,40.689243,-73.99184,0.74,1:51:31
2024-03-23T21:51:31,-7.609175867999999,-3.3236305913999997,6.167500251499999,0.03252857393404432,0.008857545953871223,-0.03390302071998985,0.20482000000000003,0.10514000000000001,-0.45248,1.5,3,1,1,1,3,6.151875,111460,55.2270993583095,1008.6845090242439,0,40.689243,-73.99184,0.74,1:51:31
2024-03-23T21:51:31,-7.66121975955,-3.3092736557999998,6.206383618749999,0.03924809155422249,0.01114829059711378,-0.03466660226773738,0.1967,0.10346000000000001,-0.45528,1.5,3,1,1,1,3,6.151875,111460,55.2270993583095,1008.6845090242439,0,40.689243,-73.99184,0.74,1:51:31
2024-03-23T21:51:31,-7.61216689625,-3.3068808331999993,6.192026683149999,0.0355829001250344,0.009926560120717751,-0.03313943917224234,0.19894000000000003,0.10066000000000001,-0.46942000000000006,1.5,3,1,1,1,3,6.151875,111460,55.2270993583095,1008.6845090242439,0,40.689243,-73.99184,0.74,1:51:31
2024-03-23T21:51:31,-7.640282561799999,-3.3296126479,6.201597973549998,0.03268129024359383,0.009621127501618741,-0.0316122760767473,0.20594000000000004,0.09842000000000002,-0.45934,1.5,3,1,1,1,3,6.1176953125,111020,55.24877491494378,1008.6859425145984,0,40.689243,-73.99184,0.74,1:51:31
2024-03-23T21:51:31,-7.6223363922999985,-3.3182467405500002,6.268597006349999,0.03344487179134134,0.010842857978014774,-0.03512475119638588,0.19978000000000004,0.09478000000000002,-0.46382000000000007,1.5,3,1,1,1,3,6.1176953125,111020,55.24877491494378,1008.6859425145984,0,40.689243,-73.99184,0.75,1:51:31
2024-03-23T21:51:31,-7.5529445369,-3.3200413575,6.165705634549999,0.03543018381548489,0.012370021073509813,-0.036193765363232405,0.20622000000000001,0.09786000000000002,-0.46284000000000003,1.5,3,1,1,1,3,6.1176953125,111020,55.24877491494378,1008.6859425145984,0,40.689243,-73.99184,0.75,1:51:31
2024-03-23T21:51:31,-7.652844880449999,-3.3188449462,6.192026683149999,0.03466660226773738,0.009010262263420728,-0.03375030441044035,0.20398000000000002,0.10710000000000001,-0.46046000000000004,1.5,3,1,1,1,3,6.1176953125,111020,55.24877491494378,1008.6859425145984,0,40.689241,-73.991838,0.75,1:51:32
2024-03-23T21:51:32,-7.674380283849999,-3.3367911156999996,6.178866158849999,0.03344487179134134,0.008552113334772215,-0.03268129024359383,0.20314000000000002,0.10570000000000002,-0.4655000000000001,1.5,3,2,1,1,3,6.335859375,122817,55.38201029540913,1008.6698154875811,0,40.689241,-73.991838,0.75,1:51:32
2024-03-23T21:51:32,-7.6582287312999995,-3.3248270026999998,6.174678719299999,0.03802636107782646,0.00946841119206924,-0.0316122760767473,0.20902,0.09758000000000001,-0.45584,1.5,3,2,1,1,3,6.335859375,122817,55.38201029540913,1008.6698154875811,0,40.689241,-73.991838,0.75,1:51:32
2024-03-23T21:51:32,-7.6307112714,-3.309871861449999,6.13340252945,0.031764992386296806,0.010995574287564279,-0.03268129024359383,0.2009,0.10710000000000001,-0.45976000000000006,1.5,3,2,1,1,3,6.335859375,122817,55.38201029540913,1008.6698154875811,0,40.689241,-73.991838,0.56,1:51:32
2024-03-23T21:51:32,-7.642077178749999,-3.31944315185,6.20279438485,0.028405233576207715,0.007788531787024696,-0.03466660226773738,0.20818,0.09478000000000002,-0.46046000000000004,1.5,3,2,1,1,3,6.335859375,122817,55.38201029540913,1008.6698154875811,0,40.689241,-73.991838,0.56,1:51:32
2024-03-23T21:51:32,-7.643871795699999,-3.34097855525,6.174678719299999,0.03481931857728687,0.012828170002158324,-0.03222314131494531,0.20370000000000002,0.10150000000000002,-0.46116,1.5,3,2,1,1,3,6.335859375,122817,55.38201029540913,1008.6698154875811,0,40.689243,-73.991836,0.56,1:51:33
2024-03-23T21:51:33,-7.616354335799999,-3.3296126479,6.186642832299999,0.03787364476827696,0.012217304763960308,-0.03436116964863837,0.20678000000000002,0.10010000000000001,-0.46564000000000005,1.5,2,2,1,1,3,6.3380078125,120021,55.31837372305425,1008.6837944615612,0,40.689243,-73.991836,0.56,1:51:33
2024-03-23T21:51:33,-7.65763052565,-3.3625139586499997,6.206981824400001,0.03237585762449482,0.009315694882519735,-0.0316122760767473,0.20594000000000004,0.10010000000000001,-0.46522,1.5,2,2,1,1,3,6.3380078125,120021,55.31837372305425,1008.6837944615612,0,40.689243,-73.991836,0.56,1:51:33
2024-03-23T21:51:33,-7.6678000217,-3.3248270026999998,6.138786380299999,0.03802636107782646,0.012980886311707827,-0.030695978219450276,0.20734000000000002,0.10682000000000001,-0.46074000000000004,1.5,2,2,1,1,3,6.3380078125,120021,55.31837372305425,1008.6837944615612,0,40.689243,-73.991836,0.45,1:51:33
2024-03-23T21:51:33,-7.652844880449999,-3.3445677891499996,6.1052868639,0.037110063220529434,0.007788531787024696,-0.03359758810089085,0.21098000000000003,0.10122000000000002,-0.46830000000000005,1.5,2,2,1,1,3,6.3380078125,120021,55.31837372305425,1008.6837944615612,0,40.689243,-73.991836,0.45,1:51:33
2024-03-23T21:51:33,-7.6564341143500005,-3.31944315185,6.1507504933,0.0355829001250344,0.012217304763960308,-0.03420845333908886,0.19698000000000002,0.10962000000000001,-0.4508000000000001,1.5,2,2,1,1,3,6.3380078125,120021,55.31837372305425,1008.6837944615612,0,40.689248,-73.991841,0.45,1:51:34
2024-03-23T21:51:34,-7.62532742055,-3.3272198252999994,6.1752769249499995,0.03420845333908886,0.009315694882519735,-0.03466660226773738,0.20370000000000002,0.09786000000000002,-0.45990000000000003,1.5,3,2,1,1,3,6.2825390625,117269,55.28655019377535,1008.678941191352,0,40.689248,-73.991841,0.45,1:51:34
2024-03-23T21:51:34,-7.66002334825,-3.3116664784,6.235097489949999,0.031154127148098783,0.012370021073509813,-0.031459559767197796,0.20034000000000002,0.10150000000000002,-0.46508000000000005,1.5,3,2,1,1,3,6.2825390625,117269,55.28655019377535,1008.678941191352,0,40.689248,-73.991841,0.45,1:51:34
2024-03-23T21:51:34,-7.6785677234,-3.3170503292499998,6.212963880899999,0.03512475119638588,0.010842857978014774,-0.030237829290801762,0.2093,0.10010000000000001,-0.4537400000000001,1.5,3,2,1,1,3,6.2825390625,117269,55.28655019377535,1008.678941191352,0,40.689248,-73.991841,0.48,1:51:34
2024-03-23T21:51:34,-7.6283184488,-3.29192569195,6.22074055435,0.03634648167278191,0.011301006906663285,-0.0319177086958463,0.2023,0.09058000000000001,-0.45878,1.5,3,2,1,1,3,6.2825390625,117269,55.28655019377535,1008.678941191352,0,40.689248,-73.991841,0.48,1:51:34
2024-03-23T21:51:34,-7.637889739199999,-3.3266216196499996,6.2081782357,0.03298672286269283,0.0068722339297276735,-0.03420845333908886,0.20006000000000004,0.1029,-0.46466,1.5,3,2,1,1,3,6.2825390625,117269,55.28655019377535,1008.678941191352,0,40.689255,-73.991845,0.48,1:51:35
2024-03-23T21:51:35,-7.657032319999999,-3.3050862162499994,6.215954909150001,0.03329215548179184,0.011606439525762293,-0.030085112981252257,0.20118,0.10570000000000002,-0.46382000000000007,1.5,3,2,1,1,3,6.2301953125,115900,55.248709029755574,1008.6827754050128,0,40.689255,-73.991845,0.48,1:51:35
2024-03-23T21:51:35,-7.6115686905999995,-3.3146575066499997,6.176473336249999,0.03451388595818787,0.012675453692608819,-0.03329215548179184,0.20622000000000001,0.10038000000000001,-0.46774000000000004,1.5,3,2,1,1,3,6.2301953125,115900,55.248709029755574,1008.6827754050128,0,40.689255,-73.991845,0.48,1:51:35
2024-03-23T21:51:35,-7.618747158399999,-3.3056844218999997,6.28534676455,0.029932396671702752,0.010231992739816757,-0.03237585762449482,0.20902,0.10542000000000001,-0.46592000000000006,1.5,3,2,1,1,3,6.2301953125,115900,55.248709029755574,1008.6827754050128,0,40.689255,-73.991845,0.51,1:51:35
2024-03-23T21:51:35,-7.6307112714,-3.2913274863,6.18245539275,0.03481931857728687,0.009010262263420728,-0.03252857393404432,0.21070000000000003,0.09674,-0.46480000000000005,2.5,3,2,1,1,3,6.2301953125,115900,55.248709029755574,1008.6827754050128,0,40.689255,-73.991845,0.51,1:51:35
2024-03-23T21:51:35,-7.6516484691499995,-3.3326036761499997,6.1621164006499995,0.038637226316024474,0.008552113334772215,-0.03329215548179184,0.21070000000000003,0.09674,-0.46480000000000005,1.5,3,2,1,1,3,6.2301953125,115900,55.248709029755574,1008.6827754050128,0,40.689251,-73.991846,0.51,1:51:36
2024-03-23T21:51:36,-7.655237703049999,-3.35174625695,6.1531433159,0.036499197982331415,0.008552113334772215,-0.031459559767197796,0.20286,0.10122000000000002,-0.46130000000000004,1.5,3,1,1,1,3,6.18859375,115188,55.23762670955958,1008.6890585840374,0,40.689251,-73.991846,0.51,1:51:36
2024-03-23T21:51:36,-7.6390861505,-3.33978214395,6.173482308,0.03375030441044035,0.00916297857297023,-0.03420845333908886,0.19782000000000002,0.09674,-0.4555600000000001,1.5,3,1,1,1,3,6.18859375,115188,55.23762670955958,1008.6890585840374,0,40.689251,-73.991846,0.51,1:51:36
2024-03-23T21:51:36,-7.634898710949999,-3.33499649875,6.149554082000001,0.03420845333908886,0.01466076571675237,-0.03420845333908886,0.19614,0.1029,-0.4543000000000001,1.5,3,1,1,1,3,6.18859375,115188,55.23762670955958,1008.6890585840374,0,40.689251,-73.991846,0.51,1:51:36
2024-03-23T21:51:36,-7.64088076745,-3.3343982930999996,6.221338759999999,0.02977968036215325,0.012217304763960308,-0.029168815123955236,0.20370000000000002,0.09702000000000001,-0.46396000000000004,1.5,3,1,1,1,3,6.18859375,115188,55.23762670955958,1008.6890585840374,0,40.689251,-73.991846,0.51,1:51:36
2024-03-23T21:51:36,-7.634898710949999,-3.34217496655,6.159723578049999,0.03481931857728687,0.012522737383059314,-0.03344487179134134,0.20538000000000003,0.10542000000000001,-0.47124000000000005,1.5,3,1,1,1,3,6.18859375,115188,55.23762670955958,1008.6890585840374,0,40.689251,-73.991846,0.51,1:51:36
2024-03-23T21:51:36,-7.624131009249999,-3.309871861449999,6.1591253724,0.03512475119638588,0.010079276430267254,-0.03237585762449482,0.20566000000000004,0.10318000000000001,-0.45920000000000005,1.5,3,1,1,1,3,6.154609375,115503,55.214642985478775,1008.6925537792663,0,40.689251,-73.991846,0.51,1:51:36
2024-03-23T21:51:36,-7.631309477049999,-3.3032915992999996,6.2285172277999985,0.03451388595818787,0.008552113334772215,-0.03390302071998985,0.19754000000000002,0.09758000000000001,-0.45598,1.5,3,1,1,1,3,6.154609375,115503,55.214642985478775,1008.6925537792663,0,40.689251,-73.991846,0.35,1:51:36
2024-03-23T21:51:36,-7.666603610399998,-3.3170503292499998,6.110072509099999,0.03741549583962844,0.011606439525762293,-0.03527746750593539,0.20286,0.10822000000000001,-0.46340000000000003,1.5,3,1,1,1,3,6.154609375,115503,55.214642985478775,1008.6925537792663,0,40.689251,-73.991846,0.35,1:51:36
2024-03-23T21:51:36,-7.6247292148999986,-3.33499649875,6.189035654899999,0.031154127148098783,0.009621127501618741,-0.031154127148098783,0.20622000000000001,0.10402000000000002,-0.45108000000000004,1.5,3,1,1,1,3,6.154609375,115503,55.214642985478775,1008.6925537792663,0,40.689251,-73.991845,0.35,1:51:37
2024-03-23T21:51:37,-7.614559718849999,-3.3212377687999997,6.165705634549999,0.03420845333908886,0.010079276430267254,-0.03268129024359383,0.20594000000000004,0.10178000000000001,-0.4543000000000001,1.5,3,2,1,1,3,6.373359375,126499,55.32876619473436,1008.6721877786902,0,40.689251,-73.991845,0.35,1:51:37
2024-03-23T21:51:37,-7.6462646183,-3.3511480512999996,6.2087764413499995,0.038179077387375956,0.010537425358915765,-0.03527746750593539,0.20678000000000002,0.10822000000000001,-0.45654,2.5,3,2,1,1,3,6.373359375,126499,55.32876619473436,1008.6721877786902,0,40.689251,-73.991845,0.35,1:51:37
2024-03-23T21:51:37,-7.600202783249999,-3.3050862162499994,6.167500251499999,0.03512475119638588,0.013286318930806834,-0.03420845333908886,0.20566000000000004,0.09786000000000002,-0.46382000000000007,1.5,3,2,1,1,3,6.373359375,126499,55.32876619473436,1008.6721877786902,0,40.689251,-73.991845,0.2,1:51:37
2024-03-23T21:51:37,-7.5690960894499995,-3.3104700671,6.18963386055,0.03436116964863837,0.008093964406123704,-0.03207042500539581,0.20818,0.09842000000000002,-0.4711,1.5,3,2,1,1,3,6.373359375,126499,55.32876619473436,1008.6721877786902,0,40.689251,-73.991845,0.2,1:51:37
2024-03-23T21:51:37,-7.640282561799999,-3.3176485348999996,6.165107428899999,0.03222314131494531,0.006566801310628666,-0.0357356164345839,0.20818,0.09842000000000002,-0.4711,1.5,3,2,1,1,3,6.373359375,126499,55.32876619473436,1008.6721877786902,0,40.689251,-73.991846,0.2,1:51:38
2024-03-23T21:51:38,-7.663014376499999,-3.3326036761499997,6.14536664245,0.03543018381548489,0.007483099167925688,-0.03252857393404432,0.2009,0.09926,-0.46648,1.5,3,1,1,1,3,6.376875,122996,55.252530986419515,1008.6850016558486,0,40.689251,-73.991846,0.2,1:51:38
2024-03-23T21:51:38,-7.66002334825,-3.3242287970499995,6.1447684368,0.0316122760767473,0.009926560120717751,-0.03252857393404432,0.19866000000000003,0.10346000000000001,-0.4543000000000001,1.5,3,1,1,1,3,6.376875,122996,55.252530986419515,1008.6850016558486,0,40.689251,-73.991846,0.2,1:51:38
2024-03-23T21:51:38,-7.6366933279,-3.33499649875,6.128018678599999,0.03588833274413341,0.010231992739816757,-0.031459559767197796,0.20258,0.09674,-0.4494,1.5,3,1,1,1,3,6.376875,122996,55.252530986419515,1008.6850016558486,0,40.689251,-73.991846,0.23,1:51:38
2024-03-23T21:51:38,-7.582256613749999,-3.3188449462,6.163911017599999,0.03481931857728687,0.009010262263420728,-0.03283400655314333,0.19782000000000002,0.0987,-0.46046000000000004,1.5,3,1,1,1,3,6.376875,122996,55.252530986419515,1008.6850016558486,0,40.689251,-73.991846,0.23,1:51:38
2024-03-23T21:51:38,-7.62173818665,-3.3146575066499997,6.179464364499999,0.031001410838549282,0.008093964406123704,-0.031764992386296806,0.20118,0.0987,-0.44226000000000004,1.5,3,1,1,1,3,6.376875,122996,55.252530986419515,1008.6850016558486,0,40.689256,-73.991848,0.23,1:51:39
2024-03-23T21:51:39,-7.624131009249999,-3.3308090591999995,6.1471612594,0.03543018381548489,0.00946841119206924,-0.031764992386296806,0.19838000000000003,0.09926,-0.45570000000000005,1.5,3,2,1,1,3,6.3204296875,120622,55.19507580862374,1008.6958112533257,0,40.689256,-73.991848,0.23,1:51:39
2024-03-23T21:51:39,-7.5936225210999995,-3.3248270026999998,6.141179202899999,0.03451388595818787,0.010231992739816757,-0.03329215548179184,0.20174,0.09982,-0.47068000000000004,1.5,3,2,1,1,3,6.3204296875,120622,55.19507580862374,1008.6958112533257,0,40.689256,-73.991848,0.23,1:51:39
2024-03-23T21:51:39,-7.5110701413999985,-3.3146575066499997,6.152545110249999,0.036499197982331415,0.007330382858376185,-0.03451388595818787,0.20174,0.09982,-0.47068000000000004,1.5,3,2,1,1,3,6.3204296875,120622,55.19507580862374,1008.6958112533257,0,40.689256,-73.991848,0.36,1:51:39
2024-03-23T21:51:39,-7.655835908699999,-3.309871861449999,6.17049127975,0.03390302071998985,0.008399397025222712,-0.03268129024359383,0.19614,0.10318000000000001,-0.46886000000000005,1.5,3,2,1,1,3,6.3204296875,120622,55.19507580862374,1008.6958112533257,0,40.689256,-73.991848,0.36,1:51:39
2024-03-23T21:51:39,-7.810172966399999,-3.30867545015,6.14297381985,0.03466660226773738,0.013286318930806834,-0.03222314131494531,0.20174,0.10150000000000002,-0.46452000000000004,1.5,3,2,1,1,3,6.3204296875,120622,55.19507580862374,1008.6958112533257,0,40.689258,-73.991848,0.36,1:51:40
2024-03-23T21:51:40,-7.65882693695,-3.3182467405500002,6.174678719299999,0.03451388595818787,0.009926560120717751,-0.0316122760767473,0.2079,0.10178000000000001,-0.46536000000000005,1.5,2,2,1,1,3,6.2700390625,118838,55.15747420183577,1008.708116387897,0,40.689258,-73.991848,0.36,1:51:40
2024-03-23T21:51:40,-7.698906715499999,-3.3427731722,6.195615917049999,0.0319177086958463,0.010231992739816757,-0.03344487179134134,0.20006000000000004,0.1029,-0.46004,2.5,2,2,1,1,3,6.2700390625,118838,55.15747420183577,1008.708116387897,0,40.689258,-73.991848,0.36,1:51:40
2024-03-23T21:51:40,-7.661817965199999,-3.3272198252999994,6.12742047295,0.03497203488683638,0.008552113334772215,-0.0319177086958463,0.20006000000000004,0.1029,-0.46004,1.5,2,2,1,1,3,6.2700390625,118838,55.15747420183577,1008.708116387897,0,40.689258,-73.991848,0.26,1:51:40
2024-03-23T21:51:40,-7.651050263499999,-3.3242287970499995,6.101697629999999,0.03481931857728687,0.008857545953871223,-0.03283400655314333,0.19922000000000004,0.09534000000000001,-0.4585000000000001,1.5,2,2,1,1,3,6.2700390625,118838,55.15747420183577,1008.708116387897,0,40.689258,-73.991848,0.26,1:51:40
2024-03-23T21:51:40,-7.668996432999999,-3.3373893213500003,6.20279438485,0.038637226316024474,0.008857545953871223,-0.03207042500539581,0.20566000000000004,0.09646,-0.46186000000000005,1.5,2,2,1,1,3,6.2700390625,118838,55.15747420183577,1008.708116387897,0,40.689255,-73.991848,0.26,1:51:41
2024-03-23T21:51:41,-7.6366933279,-3.28953286935,6.1986069453,0.03359758810089085,0.011759155835311796,-0.03390302071998985,0.21042000000000002,0.10850000000000001,-0.46116,1.5,3,2,1,1,3,6.2253125,118090,55.13966520861553,1008.7126210703188,0,40.689255,-73.991848,0.26,1:51:41
2024-03-23T21:51:41,-7.65882693695,-3.290131075,6.165107428899999,0.0319177086958463,0.0119118721448613,-0.031459559767197796,0.20146,0.10626000000000001,-0.46592000000000006,2.5,3,2,1,1,3,6.2253125,118090,55.13966520861553,1008.7126210703188,0,40.689255,-73.991848,0.26,1:51:41
2024-03-23T21:51:41,-7.6426753843999995,-3.3547372851999993,6.18484821535,0.03481931857728687,0.010384709049366262,-0.03588833274413341,0.20146,0.10626000000000001,-0.46592000000000006,1.5,3,2,1,1,3,6.2253125,118090,55.13966520861553,1008.7126210703188,0,40.689255,-73.991848,0.26,1:51:41
2024-03-23T21:51:41,-7.6540412917500005,-3.3074790388499995,6.218945937399999,0.031459559767197796,0.008552113334772215,-0.03207042500539581,0.20706000000000002,0.10094000000000002,-0.46088000000000007,1.5,3,2,1,1,3,6.2253125,118090,55.13966520861553,1008.7126210703188,0,40.689255,-73.991848,0.26,1:51:41
2024-03-23T21:51:41,-7.6737820782,-3.3200413575,6.1441702311499995,0.03268129024359383,0.009773843811168246,-0.030237829290801762,0.2093,0.09982,-0.47208000000000006,1.5,3,2,1,1,3,6.2253125,118090,55.13966520861553,1008.7126210703188,0,40.689255,-73.991848,0.26,1:51:41
2024-03-23T21:51:41,-7.66361258215,-3.3188449462,6.2165531148,0.036499197982331415,0.01114829059711378,-0.03252857393404432,0.20034000000000002,0.09982,-0.45822,1.5,3,2,1,1,3,6.1883984375,117760,55.12274300369936,1008.718121107756,0,40.689255,-73.991848,0.26,1:51:41
2024-03-23T21:51:41,-7.637889739199999,-3.3128628897,6.2021961791999995,0.03252857393404432,0.01114829059711378,-0.03268129024359383,0.20034000000000002,0.0987,-0.46690000000000004,1.5,3,2,1,1,3,6.1883984375,117760,55.12274300369936,1008.718121107756,0,40.689255,-73.991848,0.18,1:51:41
2024-03-23T21:51:41,-7.604390222799999,-3.3266216196499996,6.186044626649999,0.028710666195306725,0.00946841119206924,-0.031459559767197796,0.20706000000000002,0.09954,-0.46382000000000007,2.5,3,2,1,1,3,6.1883984375,117760,55.12274300369936,1008.718121107756,0,40.689255,-73.991848,0.18,1:51:41
2024-03-23T21:51:41,-7.641478973099999,-3.3314072648499997,6.16450922325,0.03451388595818787,0.009315694882519735,-0.0316122760767473,0.19222000000000003,0.10234,-0.45696000000000003,1.5,3,2,1,1,3,6.1883984375,117760,55.12274300369936,1008.718121107756,0,40.68926,-73.99185,0.18,1:51:42
2024-03-23T21:51:42,-7.625925626199998,-3.3092736557999998,6.14297381985,0.030390545600351267,0.008399397025222712,-0.03588833274413341,0.20146,0.10094000000000002,-0.4620000000000001,1.5,3,2,1,1,3,6.4036328125,129608,55.26833185409705,1008.7022106532543,0,40.68926,-73.99185,0.18,1:51:42
2024-03-23T21:51:42,-7.762316514399998,-3.3182467405500002,6.1950177114,0.030237829290801762,0.00946841119206924,-0.02901609881440573,0.20062000000000002,0.11158000000000001,-0.46648,1.5,3,2,1,1,3,6.4036328125,129608,55.26833185409705,1008.7022106532543,0,40.68926,-73.99185,0.18,1:51:42
2024-03-23T21:51:42,-7.6965138929,-3.3338000874499993,6.209374646999999,0.03252857393404432,0.012522737383059314,-0.03390302071998985,0.20062000000000002,0.11158000000000001,-0.46648,1.5,3,2,1,1,3,6.4036328125,129608,55.26833185409705,1008.7022106532543,0,40.68926,-73.99185,0.25,1:51:42
2024-03-23T21:51:42,-7.660621553899999,-3.3272198252999994,6.224927993899999,0.0357356164345839,0.013439035240356337,-0.03313943917224234,0.20146,0.10906000000000002,-0.47558000000000006,2.5,3,2,1,1,3,6.4036328125,129608,55.26833185409705,1008.7022106532543,0,40.68926,-73.99185,0.25,1:51:42
2024-03-23T21:51:42,-7.655835908699999,-3.3068808331999993,6.17049127975,0.03512475119638588,0.008704829644321718,-0.03283400655314333,0.21014000000000002,0.10122000000000002,-0.45836000000000005,1.5,3,2,1,1,3,6.4036328125,129608,55.26833185409705,1008.7022106532543,0,40.689261,-73.99185,0.25,1:51:43
2024-03-23T21:51:43,-7.740182905349999,-3.32063956315,6.20040156225,0.03344487179134134,0.008704829644321718,-0.03497203488683638,0.2009,0.10318000000000001,-0.45864000000000005,2.5,3,2,1,1,3,6.4016796875,126689,55.17235365015763,1008.7266054095098,0,40.689261,-73.99185,0.25,1:51:43
2024-03-23T21:51:43,-7.649255646549999,-3.3116664784,6.136393557699999,0.031459559767197796,0.010079276430267254,-0.0316122760767473,0.20846,0.10626000000000001,-0.46648,1.5,3,2,1,1,3,6.4016796875,126689,55.17235365015763,1008.7266054095098,0,40.689261,-73.99185,0.25,1:51:43
2024-03-23T21:51:43,-7.631309477049999,-3.33499649875,6.171089485399999,0.03527746750593539,0.007941248096574201,-0.03527746750593539,0.2009,0.10066000000000001,-0.4614400000000001,1.5,3,2,1,1,3,6.4016796875,126689,55.17235365015763,1008.7266054095098,0,40.689261,-73.99185,0.29,1:51:43
2024-03-23T21:51:43,-7.642077178749999,-3.3403803495999997,6.16929486845,0.03252857393404432,0.013744467859455347,-0.02977968036215325,0.19138000000000002,0.10374000000000001,-0.45416,1.5,3,2,1,1,3,6.4016796875,126689,55.17235365015763,1008.7266054095098,0,40.689261,-73.99185,0.29,1:51:43
2024-03-23T21:51:43,-7.657032319999999,-3.31106827275,6.1621164006499995,0.03481931857728687,0.010995574287564279,-0.03420845333908886,0.19138000000000002,0.10374000000000001,-0.45416,1.5,3,2,1,1,3,6.4016796875,126689,55.17235365015763,1008.7266054095098,0,40.689258,-73.991851,0.29,1:51:44
2024-03-23T21:51:44,-7.6540412917500005,-3.32781803095,6.185446420999999,0.03344487179134134,0.013591751549905842,-0.02977968036215325,0.20062000000000002,0.10682000000000001,-0.47278000000000003,1.5,2,2,1,1,3,6.3383984375,123446,55.13329239117776,1008.732868376071,0,40.689258,-73.991851,0.29,1:51:44
2024-03-23T21:51:44,-7.654639497399999,-3.3326036761499997,6.16091998935,0.03451388595818787,0.010384709049366262,-0.03329215548179184,0.20454000000000003,0.10570000000000002,-0.45948,1.5,2,2,1,1,3,6.3383984375,123446,55.13329239117776,1008.732868376071,0,40.689258,-73.991851,0.29,1:51:44
2024-03-23T21:51:44,-7.680960546,-3.3463624060999995,6.2105710583,0.031459559767197796,0.010231992739816757,-0.031154127148098783,0.19894000000000003,0.10094000000000002,-0.4631200000000001,1.5,2,2,1,1,3,6.3383984375,123446,55.13329239117776,1008.732868376071,0,40.689258,-73.991851,0.26,1:51:44
2024-03-23T21:51:44,-7.631309477049999,-3.3176485348999996,6.206981824400001,0.03436116964863837,0.009315694882519735,-0.030848694528999777,0.19866000000000003,0.09450000000000001,-0.4660600000000001,1.5,2,2,1,1,3,6.3383984375,123446,55.13329239117776,1008.732868376071,0,40.689258,-73.991851,0.26,1:51:44
2024-03-23T21:51:44,-7.666603610399998,-3.3080772444999993,6.1908302718499995,0.03375030441044035,0.007788531787024696,-0.03512475119638588,0.19222000000000003,0.10710000000000001,-0.47264000000000006,2.5,2,2,1,1,3,6.3383984375,123446,55.13329239117776,1008.732868376071,0,40.689258,-73.99185,0.26,1:51:45
2024-03-23T21:51:45,-7.654639497399999,-3.3284162366,6.16809845715,0.030695978219450276,0.007177666548826681,-0.03405573702953936,0.19614,0.10346000000000001,-0.45892,2.5,3,2,1,1,3,6.281953125,122460,55.08226410470208,1008.7367473044676,0,40.689258,-73.99185,0.26,1:51:45
2024-03-23T21:51:45,-7.53739119,-3.3373893213500003,6.152545110249999,0.0319177086958463,0.00946841119206924,-0.03344487179134134,0.19642,0.10262,-0.45038000000000006,2.5,3,2,1,1,3,6.281953125,122460,55.08226410470208,1008.7367473044676,0,40.689258,-73.99185,0.26,1:51:45
2024-03-23T21:51:45,-7.655835908699999,-3.34217496655,6.1686966628,0.0316122760767473,0.010079276430267254,-0.03313943917224234,0.19390000000000002,0.0987,-0.46158000000000005,1.5,3,2,1,1,3,6.281953125,122460,55.08226410470208,1008.7367473044676,0,40.689258,-73.99185,0.17,1:51:45
2024-03-23T21:51:45,-7.63729153355,-3.3164521235999995,6.14895587635,0.036499197982331415,0.006566801310628666,-0.03695734691097993,0.19502,0.09730000000000001,-0.47208000000000006,2.5,3,2,1,1,3,6.281953125,122460,55.08226410470208,1008.7367473044676,0,40.689258,-73.99185,0.17,1:51:45
2024-03-23T21:51:45,-7.666603610399998,-3.3044880105999996,6.1722858967,0.03527746750593539,0.009315694882519735,-0.03436116964863837,0.19642,0.10178000000000001,-0.46074000000000004,1.5,3,2,1,1,3,6.281953125,122460,55.08226410470208,1008.7367473044676,0,40.689263,-73.991851,0.17,1:51:46
2024-03-23T21:51:46,-7.651050263499999,-3.3050862162499994,6.129215089899999,0.030695978219450276,0.010384709049366262,-0.03283400655314333,0.20034000000000002,0.10038000000000001,-0.45584,1.5,3,2,1,1,3,6.235078125,121665,55.0450911249619,1008.7428351162536,0,40.689263,-73.991851,0.17,1:51:46
2024-03-23T21:51:46,-7.668398227349999,-3.3272198252999994,6.1567325498,0.03420845333908886,0.012522737383059314,-0.0355829001250344,0.19586,0.10402000000000002,-0.46228,1.5,3,2,1,1,3,6.235078125,121665,55.0450911249619,1008.7428351162536,0,40.689263,-73.991851,0.17,1:51:46
2024-03-23T21:51:46,-7.683353368600001,-3.3314072648499997,6.1519469046,0.03512475119638588,0.008399397025222712,-0.031764992386296806,0.20370000000000002,0.09618,-0.4655000000000001,1.5,3,2,1,1,3,6.235078125,121665,55.0450911249619,1008.7428351162536,0,40.689263,-73.991851,0.17,1:51:46
2024-03-23T21:51:46,-7.655237703049999,-3.3427731722,6.1531433159,0.03451388595818787,0.0056505034533316425,-0.03344487179134134,0.2009,0.09674,-0.4548600000000001,2.5,3,2,1,1,3,6.235078125,121665,55.0450911249619,1008.7428351162536,0,40.689263,-73.991851,0.17,1:51:46
2024-03-23T21:51:46,-7.635496916599999,-3.3284162366,6.17049127975,0.038789942625573975,0.012522737383059314,-0.03512475119638588,0.19502,0.09450000000000001,-0.46480000000000005,1.5,3,2,1,1,3,6.235078125,121665,55.0450911249619,1008.7428351162536,0,40.689263,-73.991851,0.17,1:51:46
2024-03-23T21:51:46,-7.62173818665,-3.3164521235999995,6.123233033399999,0.031764992386296806,0.008246680715673207,-0.03054326190990077,0.19558,0.10402000000000002,-0.47740000000000005,1.5,3,2,1,1,3,6.1962109375,121841,55.03433617096037,1008.7416006889684,0,40.689263,-73.991851,0.17,1:51:46
2024-03-23T21:51:46,-7.6319076827,-3.2967113371499996,6.1603217837,0.03298672286269283,0.010842857978014774,-0.03481931857728687,0.19754000000000002,0.09618,-0.46424000000000004,2.5,3,2,1,1,3,6.1962109375,121841,55.03433617096037,1008.7416006889684,0,40.689263,-73.991851,0.24,1:51:46
2024-03-23T21:51:46,-7.628916654449999,-3.3254252083499996,6.1340007351,0.03313943917224234,0.008552113334772215,-0.03313943917224234,0.1967,0.10346000000000001,-0.4676,1.5,3,2,1,1,3,6.1962109375,121841,55.03433617096037,1008.7416006889684,0,40.689263,-73.991851,0.24,1:51:46
2024-03-23T21:51:46,-7.63729153355,-3.3248270026999998,6.171089485399999,0.03466660226773738,0.008704829644321718,-0.0319177086958463,0.19474,0.09982,-0.4678800000000001,2.5,3,2,1,1,3,6.1962109375,121841,55.03433617096037,1008.7416006889684,0,40.689263,-73.991848,0.24,1:51:47
2024-03-23T21:51:47,-7.6959156872499985,-3.3445677891499996,6.14656305375,0.03466660226773738,0.010079276430267254,-0.03543018381548489,0.20202,0.10654000000000001,-0.4625600000000001,1.5,3,2,1,1,3,6.4126171875,133716,55.16082730217066,1008.7259267005355,0,40.689263,-73.991848,0.24,1:51:47
2024-03-23T21:51:47,-7.67916592905,-3.32303238575,6.214758497849999,0.0357356164345839,0.008246680715673207,-0.03237585762449482,0.20062000000000002,0.09730000000000001,-0.45514000000000004,1.5,3,2,1,1,3,6.4126171875,133716,55.16082730217066,1008.7259267005355,0,40.689263,-73.991848,0.24,1:51:47
2024-03-23T21:51:47,-7.665407199099999,-3.32303238575,6.165107428899999,0.036499197982331415,0.009010262263420728,-0.031001410838549282,0.19810000000000003,0.10542000000000001,-0.4590600000000001,1.5,3,2,1,1,3,6.4126171875,133716,55.16082730217066,1008.7259267005355,0,40.689263,-73.991848,0.13,1:51:47
2024-03-23T21:51:47,-7.623532803599999,-3.3427731722,6.1435720255,0.0319177086958463,0.013133602621257331,-0.03420845333908886,0.1953,0.09814000000000002,-0.4520600000000001,1.5,3,2,1,1,3,6.4126171875,133716,55.16082730217066,1008.7259267005355,0,40.689263,-73.991848,0.13,1:51:47
2024-03-23T21:51:47,-7.6582287312999995,-3.34097855525,6.159723578049999,0.03481931857728687,0.0070249502392771765,-0.03344487179134134,0.19334000000000004,0.10934,-0.45346000000000003,2.5,3,2,1,1,3,6.4126171875,133716,55.16082730217066,1008.7259267005355,0,40.689263,-73.991846,0.13,1:51:48
2024-03-23T21:51:48,-7.6564341143500005,-3.2913274863,6.142375614199999,0.028710666195306725,0.008552113334772215,-0.03497203488683638,0.19810000000000003,0.09954,-0.45416,1.5,3,2,1,1,3,6.4079296875,130309,55.070974793800936,1008.7370883401738,0,40.689263,-73.991846,0.13,1:51:48
2024-03-23T21:51:48,-7.662416170849999,-3.32781803095,6.1286168842499995,0.031001410838549282,0.010231992739816757,-0.030390545600351267,0.20006000000000004,0.09674,-0.46648,1.5,3,2,1,1,3,6.4079296875,130309,55.070974793800936,1008.7370883401738,0,40.689263,-73.991846,0.13,1:51:48
2024-03-23T21:51:48,-7.609175867999999,-3.32303238575,6.235097489949999,0.03283400655314333,0.010842857978014774,-0.03359758810089085,0.19838000000000003,0.10682000000000001,-0.45766,1.5,3,2,1,1,3,6.4079296875,130309,55.070974793800936,1008.7370883401738,0,40.689263,-73.991846,0.13,1:51:48
2024-03-23T21:51:48,-7.65045205785,-3.3248270026999998,6.186642832299999,0.03588833274413341,0.013133602621257331,-0.030390545600351267,0.19866000000000003,0.09702000000000001,-0.4531800000000001,1.5,3,2,1,1,3,6.4079296875,130309,55.070974793800936,1008.7370883401738,0,40.689263,-73.991846,0.13,1:51:48
2024-03-23T21:51:48,-7.5110701413999985,-3.31106827275,6.1782679532,0.03451388595818787,0.011759155835311796,-0.03252857393404432,0.19866000000000003,0.09702000000000001,-0.4531800000000001,2.5,3,2,1,1,3,6.4079296875,130309,55.070974793800936,1008.7370883401738,0,40.689261,-73.991848,0.13,1:51:49
2024-03-23T21:51:49,-7.604390222799999,-3.3068808331999993,6.1591253724,0.03268129024359383,0.01114829059711378,-0.03359758810089085,0.20426000000000002,0.10374000000000001,-0.45500000000000007,2.5,3,2,1,1,3,6.34875,127938,54.99414566752249,1008.731210022841,0,40.689261,-73.991848,0.13,1:51:49
2024-03-23T21:51:49,-7.566105061199999,-3.3308090591999995,6.230311844749999,0.03436116964863837,0.008399397025222712,-0.03390302071998985,0.20678000000000002,0.09618,-0.4555600000000001,2.5,3,2,1,1,3,6.34875,127938,54.99414566752249,1008.731210022841,0,40.689261,-73.991848,0.13,1:51:49
2024-03-23T21:51:49,-7.674380283849999,-3.31944315185,6.23390107865,0.03344487179134134,0.01145372321621279,-0.03298672286269283,0.20062000000000002,0.10122000000000002,-0.46396000000000004,1.5,3,2,1,1,3,6.34875,127938,54.99414566752249,1008.731210022841,0,40.689261,-73.991848,0.2,1:51:49
2024-03-23T21:51:49,-7.6498538522,-3.3523444625999996,6.108277892149999,0.03481931857728687,0.008552113334772215,-0.03405573702953936,0.20342000000000002,0.10570000000000002,-0.47152000000000005,1.5,3,2,1,1,3,6.34875,127938,54.99414566752249,1008.731210022841,0,40.689261,-73.991848,0.2,1:51:49
2024-03-23T21:51:49,-7.664808993449999,-3.30269339365,6.20040156225,0.03695734691097993,0.010384709049366262,-0.038484510006474966,0.20370000000000002,0.10738,-0.47040000000000004,1.5,3,2,1,1,3,6.34875,127938,54.99414566752249,1008.731210022841,0,40.68926,-73.991846,0.2,1:51:50
2024-03-23T21:51:50,-7.63729153355,-3.3164521235999995,6.1962141227,0.03298672286269283,0.011606439525762293,-0.0319177086958463,0.19726000000000002,0.09702000000000001,-0.46676000000000006,2.5,3,2,1,1,3,6.2926953125,124631,54.93683271971594,1008.7374760822473,0,40.68926,-73.991846,0.2,1:51:50
2024-03-23T21:51:50,-7.643273590049999,-3.3248270026999998,6.166902045849999,0.03237585762449482,0.00595593607243065,-0.03405573702953936,0.19698000000000002,0.09478000000000002,-0.47096000000000005,2.5,3,2,1,1,3,6.2926953125,124631,54.93683271971594,1008.7374760822473,0,40.68926,-73.991846,0.2,1:51:50
2024-03-23T21:51:50,-7.6462646183,-3.3200413575,6.1573307554499985,0.03420845333908886,0.009926560120717751,-0.03329215548179184,0.2009,0.09282000000000001,-0.45864000000000005,1.5,3,2,1,1,3,6.2926953125,124631,54.93683271971594,1008.7374760822473,0,40.68926,-73.991846,0.23,1:51:50
2024-03-23T21:51:50,-7.6749784895,-3.3373893213500003,6.14656305375,0.03512475119638588,0.008399397025222712,-0.030390545600351267,0.20034000000000002,0.09982,-0.4572400000000001,2.5,3,2,1,1,3,6.2926953125,124631,54.93683271971594,1008.7374760822473,0,40.68926,-73.991846,0.23,1:51:50
2024-03-23T21:51:50,-7.641478973099999,-3.3272198252999994,6.17168769105,0.03924809155422249,0.010384709049366262,-0.037110063220529434,0.20034000000000002,0.09982,-0.4572400000000001,1.5,3,2,1,1,3,6.2926953125,124631,54.93683271971594,1008.7374760822473,0,40.689256,-73.991841,0.23,1:51:51
2024-03-23T21:51:51,-7.578667379849999,-3.3403803495999997,6.174678719299999,0.03390302071998985,0.01145372321621279,-0.03054326190990077,0.19726000000000002,0.11382,-0.45542,1.5,3,2,1,1,3,6.2481640625,124081,54.94456530610747,1008.752684918187,0,40.689256,-73.991841,0.23,1:51:51
2024-03-23T21:51:51,-7.666603610399998,-3.35054984565,6.119045593849998,0.036499197982331415,0.009621127501618741,-0.031001410838549282,0.19194000000000003,0.10374000000000001,-0.4660600000000001,1.5,3,2,1,1,3,6.2481640625,124081,54.94456530610747,1008.752684918187,0,40.689256,-73.991841,0.23,1:51:51
2024-03-23T21:51:51,-7.665407199099999,-3.36849601515,6.12143841645,0.0319177086958463,0.005192354524683131,-0.030695978219450276,0.19194000000000003,0.10374000000000001,-0.4660600000000001,1.5,3,2,1,1,3,6.2481640625,124081,54.94456530610747,1008.752684918187,0,40.689256,-73.991841,0.23,1:51:51
2024-03-23T21:51:51,-7.6271220375,-3.314059301,6.167500251499999,0.03252857393404432,0.010842857978014774,-0.03375030441044035,0.19950000000000004,0.10514000000000001,-0.46802000000000005,1.5,3,2,1,1,3,6.2481640625,124081,54.94456530610747,1008.752684918187,0,40.689256,-73.991841,0.23,1:51:51
2024-03-23T21:51:51,-7.652844880449999,-3.3074790388499995,6.1316079125,0.03130684345764829,0.007788531787024696,-0.03497203488683638,0.2023,0.10598,-0.46942000000000006,1.5,3,2,1,1,3,6.2481640625,124081,54.94456530610747,1008.752684918187,0,40.689256,-73.991841,0.23,1:51:51
2024-03-23T21:51:51,-7.6319076827,-3.27397952245,6.2021961791999995,0.036499197982331415,0.010842857978014774,-0.03268129024359383,0.19782000000000002,0.10122000000000002,-0.4678800000000001,2.5,3,2,1,1,3,6.2098828125,123536,54.97212474140508,1008.754163965557,0,40.689256,-73.991841,0.23,1:51:51
2024-03-23T21:51:51,-7.668996432999999,-3.3188449462,6.150152287649999,0.0355829001250344,0.008552113334772215,-0.03313943917224234,0.19362000000000001,0.10066000000000001,-0.46088000000000007,2.5,3,2,1,1,3,6.2098828125,123536,54.97212474140508,1008.754163965557,0,40.689256,-73.991841,0.2,1:51:51
2024-03-23T21:51:51,-7.6540412917500005,-3.3056844218999997,6.244070574699999,0.031001410838549282,0.01069014166846527,-0.031764992386296806,0.19558,0.09954,-0.46592000000000006,1.5,3,2,1,1,3,6.2098828125,123536,54.97212474140508,1008.754163965557,0,40.689256,-73.991841,0.2,1:51:51
2024-03-23T21:51:51,-7.66361258215,-3.3260234139999993,6.191428477500001,0.03695734691097993,0.007941248096574201,-0.03359758810089085,0.2079,0.09338,-0.4478600000000001,2.5,3,2,1,1,3,6.2098828125,123536,54.97212474140508,1008.754163965557,0,40.689255,-73.991843,0.2,1:51:52
2024-03-23T21:51:52,-7.641478973099999,-3.3158539179499997,6.166902045849999,0.031459559767197796,0.008399397025222712,-0.03420845333908886,0.19838000000000003,0.09254000000000001,-0.46396000000000004,1.5,4,2,1,1,3,6.425703125,135433,55.07936240659873,1008.7513340750155,0,40.689255,-73.991843,0.2,1:51:52
2024-03-23T21:51:52,-7.642077178749999,-3.3044880105999996,6.206981824400001,0.03741549583962844,0.00916297857297023,-0.03375030441044035,0.20258,0.09562000000000001,-0.47474000000000005,2.5,4,2,1,1,3,6.425703125,135433,55.07936240659873,1008.7513340750155,0,40.689255,-73.991843,0.2,1:51:52
2024-03-23T21:51:52,-7.65763052565,-3.3104700671,6.16450922325,0.028405233576207715,0.007483099167925688,-0.03436116964863837,0.1953,0.0959,-0.4719400000000001,1.5,4,2,1,1,3,6.425703125,135433,55.07936240659873,1008.7513340750155,0,40.689255,-73.991843,0.32,1:51:52
2024-03-23T21:51:52,-7.644470001349999,-3.31106827275,6.1447684368,0.03420845333908886,0.01069014166846527,-0.03329215548179184,0.20062000000000002,0.09450000000000001,-0.45822,2.5,4,2,1,1,3,6.425703125,135433,55.07936240659873,1008.7513340750155,0,40.689255,-73.991843,0.32,1:51:52
2024-03-23T21:51:52,-7.637889739199999,-3.309871861449999,6.194419505749999,0.03298672286269283,0.0068722339297276735,-0.03313943917224234,0.18942,0.10206000000000001,-0.46956000000000003,2.5,4,2,1,1,3,6.425703125,135433,55.07936240659873,1008.7513340750155,0,40.689255,-73.991841,0.32,1:51:53
2024-03-23T21:51:53,-7.653443086099999,-3.32183597445,6.203392590499999,0.03741549583962844,0.014813482026301873,-0.03375030441044035,0.19950000000000004,0.09338,-0.46774000000000004,1.5,3,2,1,1,3,6.4190625,131733,55.02758762031656,1008.7626789982045,0,40.689255,-73.991841,0.32,1:51:53
2024-03-23T21:51:53,-7.6271220375,-3.3092736557999998,6.165705634549999,0.03359758810089085,0.011606439525762293,-0.03054326190990077,0.19446000000000002,0.10010000000000001,-0.47600000000000003,1.5,3,2,1,1,3,6.4190625,131733,55.02758762031656,1008.7626789982045,0,40.689255,-73.991841,0.32,1:51:53
2024-03-23T21:51:53,-7.661817965199999,-3.3212377687999997,6.18245539275,0.030695978219450276,0.010079276430267254,-0.03604104905368291,0.19446000000000002,0.10010000000000001,-0.47600000000000003,1.5,3,2,1,1,3,6.4190625,131733,55.02758762031656,1008.7626789982045,0,40.689255,-73.991841,0.29,1:51:53
2024-03-23T21:51:53,-7.5984081663,-3.2745777280999997,6.1962141227,0.03207042500539581,0.009773843811168246,-0.031459559767197796,0.19082000000000002,0.09982,-0.47376000000000007,2.5,3,2,1,1,3,6.4190625,131733,55.02758762031656,1008.7626789982045,0,40.689255,-73.991841,0.29,1:51:53
2024-03-23T21:51:53,-7.643273590049999,-3.314059301,6.136991763349999,0.03420845333908886,0.010995574287564279,-0.036499197982331415,0.19978000000000004,0.09618,-0.46242,1.5,3,2,1,1,3,6.4190625,131733,55.02758762031656,1008.7626789982045,0,40.689256,-73.991845,0.29,1:51:54
2024-03-23T21:51:54,-7.617550747099999,-3.309871861449999,6.1782679532,0.03252857393404432,0.008093964406123704,-0.03283400655314333,0.19754000000000002,0.10234,-0.46480000000000005,2.5,3,2,1,1,3,6.358515625,128132,55.00799901000897,1008.7683421475349,0,40.689256,-73.991845,0.29,1:51:54
2024-03-23T21:51:54,-7.786842946049999,-3.3427731722,6.140580997249999,0.036804630601430424,0.009315694882519735,-0.03268129024359383,0.19558,0.10206000000000001,-0.46452000000000004,1.5,3,2,1,1,3,6.358515625,128132,55.00799901000897,1008.7683421475349,0,40.689256,-73.991845,0.29,1:51:54
2024-03-23T21:51:54,-7.6917282476999995,-3.33499649875,6.2141602922,0.031459559767197796,0.007330382858376185,-0.03420845333908886,0.19558,0.10206000000000001,-0.46452000000000004,1.5,3,2,1,1,3,6.358515625,128132,55.00799901000897,1008.7683421475349,0,40.689256,-73.991845,0.31,1:51:54
2024-03-23T21:51:54,-7.671389255599999,-3.3427731722,6.154937932849999,0.0319177086958463,0.006414085001079162,-0.03436116964863837,0.20650000000000002,0.09926,-0.46774000000000004,2.5,3,2,1,1,3,6.358515625,128132,55.00799901000897,1008.7683421475349,0,40.689256,-73.991845,0.31,1:51:54
2024-03-23T21:51:54,-7.65045205785,-3.3302108535499997,6.2045890018,0.03497203488683638,0.009773843811168246,-0.03375030441044035,0.19810000000000003,0.10542000000000001,-0.46368000000000004,1.5,3,2,1,1,3,6.358515625,128132,55.00799901000897,1008.7683421475349,0,40.68926,-73.991848,0.31,1:51:55
2024-03-23T21:51:55,-7.659425142599999,-3.2973095427999994,6.1447684368,0.03543018381548489,0.01114829059711378,-0.03405573702953936,0.19446000000000002,0.09282000000000001,-0.46564000000000005,1.5,3,2,1,1,3,6.301484375,127358,55.020694558121,1008.7660526655251,0,40.68926,-73.991848,0.31,1:51:55
2024-03-23T21:51:55,-7.702495949399999,-3.3296126479,6.1686966628,0.0355829001250344,0.006414085001079162,-0.0357356164345839,0.20146,0.10346000000000001,-0.47418000000000005,1.5,3,2,1,1,3,6.301484375,127358,55.020694558121,1008.7660526655251,0,40.68926,-73.991848,0.31,1:51:55
2024-03-23T21:51:55,-7.671389255599999,-3.3200413575,6.139384585949999,0.03695734691097993,0.007177666548826681,-0.031459559767197796,0.19642,0.10346000000000001,-0.4536,1.5,3,2,1,1,3,6.301484375,127358,55.020694558121,1008.7660526655251,0,40.68926,-73.991848,0.28,1:51:55
2024-03-23T21:51:55,-7.6426753843999995,-3.3355947043999996,6.247659808599999,0.03802636107782646,0.012370021073509813,-0.0319177086958463,0.19838000000000003,0.09842000000000002,-0.46872,2.5,3,2,1,1,3,6.301484375,127358,55.020694558121,1008.7660526655251,0,40.68926,-73.991848,0.28,1:51:55
2024-03-23T21:51:55,-7.65763052565,-3.3050862162499994,6.185446420999999,0.03344487179134134,0.008246680715673207,-0.03543018381548489,0.19026,0.09646,-0.45766,2.5,3,2,1,1,3,6.301484375,127358,55.020694558121,1008.7660526655251,0,40.689256,-73.991846,0.28,1:51:56
2024-03-23T21:51:56,-7.68514798555,-3.35054984565,6.24347236905,0.03802636107782646,0.008399397025222712,-0.03298672286269283,0.19754000000000002,0.09646,-0.45122,2.5,3,2,1,1,3,6.2520703125,126499,55.02150057407507,1008.7678829922036,0,40.689256,-73.991846,0.28,1:51:56
2024-03-23T21:51:56,-7.6271220375,-3.3224341800999997,6.2297136391,0.0319177086958463,0.01069014166846527,-0.03588833274413341,0.20146,0.10570000000000002,-0.46298,1.5,3,2,1,1,3,6.2520703125,126499,55.02150057407507,1008.7678829922036,0,40.689256,-73.991846,0.28,1:51:56
2024-03-23T21:51:56,-7.6761749007999995,-3.2997023654,6.178866158849999,0.03375030441044035,0.010842857978014774,-0.03268129024359383,0.20146,0.10570000000000002,-0.46298,1.5,3,2,1,1,3,6.2520703125,126499,55.02150057407507,1008.7678829922036,0,40.689256,-73.991846,0.28,1:51:56
2024-03-23T21:51:56,-7.60259560585,-3.3254252083499996,6.095715573500001,0.03252857393404432,0.006261368691529657,-0.03329215548179184,0.19838000000000003,0.09450000000000001,-0.4676,1.5,3,2,1,1,3,6.2520703125,126499,55.02150057407507,1008.7678829922036,0,40.689256,-73.991846,0.28,1:51:56
2024-03-23T21:51:56,-7.649255646549999,-3.2733813167999997,6.186642832299999,0.03543018381548489,0.01114829059711378,-0.036193765363232405,0.19782000000000002,0.09898,-0.46522,1.5,3,2,1,1,3,6.2520703125,126499,55.02150057407507,1008.7678829922036,0,40.689256,-73.991846,0.28,1:51:56
2024-03-23T21:51:56,-7.683951574249999,-3.30388980495,6.23390107865,0.03313943917224234,0.007177666548826681,-0.03695734691097993,0.20370000000000002,0.09254000000000001,-0.46858000000000005,1.5,3,2,1,1,3,6.211640625,126404,55.02332191678909,1008.7692152453405,0,40.689256,-73.991846,0.28,1:51:56
2024-03-23T21:51:56,-7.7324062319,-3.3338000874499993,6.222535171299999,0.03451388595818787,0.01145372321621279,-0.03207042500539581,0.20202,0.10094000000000002,-0.46830000000000005,2.5,3,2,1,1,3,6.211640625,126404,55.02332191678909,1008.7692152453405,0,40.689256,-73.991846,0.37,1:51:56
2024-03-23T21:51:56,-7.633702299649999,-3.3224341800999997,6.2105710583,0.03283400655314333,0.011301006906663285,-0.03283400655314333,0.20034000000000002,0.09674,-0.4614400000000001,1.5,3,2,1,1,3,6.211640625,126404,55.02332191678909,1008.7692152453405,0,40.689256,-73.991846,0.37,1:51:56
2024-03-23T21:51:56,-7.655835908699999,-3.2937203089,6.192026683149999,0.02977968036215325,0.008704829644321718,-0.03390302071998985,0.20034000000000002,0.09674,-0.4614400000000001,1.5,3,2,1,1,3,6.211640625,126404,55.02332191678909,1008.7692152453405,0,40.689258,-73.991845,0.37,1:51:57
2024-03-23T21:51:57,-7.60857766235,-3.3433713778499996,6.18963386055,0.0357356164345839,0.008246680715673207,-0.03802636107782646,0.19978000000000004,0.10010000000000001,-0.47082000000000007,1.5,3,2,1,1,3,6.425703125,137531,55.14316340082217,1008.7565225103294,0,40.689258,-73.991845,0.37,1:51:57
2024-03-23T21:51:57,-7.6893354250999995,-3.32063956315,6.1758751306,0.030848694528999777,0.0070249502392771765,-0.031154127148098783,0.19810000000000003,0.09646,-0.46158000000000005,1.5,3,2,1,1,3,6.425703125,137531,55.14316340082217,1008.7565225103294,0,40.689258,-73.991845,0.37,1:51:57
2024-03-23T21:51:57,-7.692924659,-3.3254252083499996,6.201597973549998,0.0355829001250344,0.0056505034533316425,-0.030390545600351267,0.20062000000000002,0.09646,-0.4641,1.5,3,2,1,1,3,6.425703125,137531,55.14316340082217,1008.7565225103294,0,40.689258,-73.991845,0.19,1:51:57
2024-03-23T21:51:57,-7.64088076745,-3.31944315185,6.19920515095,0.03268129024359383,0.00946841119206924,-0.03130684345764829,0.19418000000000002,0.0931,-0.45934,1.5,3,2,1,1,3,6.425703125,137531,55.14316340082217,1008.7565225103294,0,40.689258,-73.991845,0.19,1:51:57
2024-03-23T21:51:57,-7.60259560585,-3.3164521235999995,6.1328043237999985,0.03313943917224234,0.00595593607243065,-0.03481931857728687,0.19418000000000002,0.0931,-0.45934,1.5,3,2,1,1,3,6.425703125,137531,55.14316340082217,1008.7565225103294,0,40.689255,-73.991841,0.19,1:51:58
2024-03-23T21:51:58,-7.67677310645,-3.3332018817999995,6.1519469046,0.03313943917224234,0.009621127501618741,-0.03634648167278191,0.20286,0.0903,-0.45752000000000004,1.5,4,2,1,1,3,6.4190625,134355,55.065854377517546,1008.7557611552133,0,40.689255,-73.991841,0.19,1:51:58
2024-03-23T21:51:58,-7.626523831849999,-3.3020951879999996,6.201597973549998,0.0355829001250344,0.012522737383059314,-0.03604104905368291,0.19502,0.09478000000000002,-0.45920000000000005,1.5,4,2,1,1,3,6.4190625,134355,55.065854377517546,1008.7557611552133,0,40.689255,-73.991841,0.19,1:51:58
2024-03-23T21:51:58,-7.692924659,-3.3236305913999997,6.1782679532,0.031764992386296806,0.0068722339297276735,-0.03390302071998985,0.19782000000000002,0.09898,-0.4494,1.5,4,2,1,1,3,6.4190625,134355,55.065854377517546,1008.7557611552133,0,40.689255,-73.991841,0.28,1:51:58
2024-03-23T21:51:58,-7.60738125105,-3.3367911156999996,6.128018678599999,0.03222314131494531,0.00946841119206924,-0.03054326190990077,0.19866000000000003,0.10066000000000001,-0.45822,2.5,4,2,1,1,3,6.4190625,134355,55.065854377517546,1008.7557611552133,0,40.689255,-73.991841,0.28,1:51:58
2024-03-23T21:51:58,-7.65882693695,-3.3182467405500002,6.14656305375,0.03237585762449482,0.007941248096574201,-0.03451388595818787,0.19950000000000004,0.09926,-0.46074000000000004,1.5,3,2,1,1,3,6.4190625,134355,55.065854377517546,1008.7557611552133,0,40.689245,-73.991836,0.28,1:51:59
2024-03-23T21:51:59,-7.697710304199999,-3.3200413575,6.1908302718499995,0.03222314131494531,0.014966198335851376,-0.03283400655314333,0.20146,0.0959,-0.45416,1.5,3,2,1,1,3,6.358125,131939,54.99520320499528,1008.7538525424538,0,40.689245,-73.991836,0.28,1:51:59
2024-03-23T21:51:59,-7.6516484691499995,-3.2817561959,6.24107954645,0.03283400655314333,0.012522737383059314,-0.031154127148098783,0.20398000000000002,0.09562000000000001,-0.45304,1.5,3,2,1,1,3,6.358125,131939,54.99520320499528,1008.7538525424538,0,40.689245,-73.991836,0.28,1:51:59
2024-03-23T21:51:59,-7.733602643199999,-3.31226468405,6.1627146063,0.03390302071998985,0.010995574287564279,-0.03543018381548489,0.20398000000000002,0.09562000000000001,-0.45304,1.5,3,2,1,1,3,6.358125,131939,54.99520320499528,1008.7538525424538,0,40.689245,-73.991836,0.56,1:51:59
2024-03-23T21:51:59,-7.6498538522,-3.3200413575,6.153741521549999,0.03298672286269283,0.008246680715673207,-0.03512475119638588,0.19866000000000003,0.09422000000000001,-0.4660600000000001,1.5,3,2,1,1,3,6.358125,131939,54.99520320499528,1008.7538525424538,0,40.689245,-73.991836,0.56,1:51:59
2024-03-23T21:51:59,-7.6462646183,-3.3260234139999993,6.18365180405,0.03252857393404432,0.0070249502392771765,-0.0319177086958463,0.19922000000000004,0.09758000000000001,-0.46662000000000003,2.5,3,2,1,1,3,6.358125,131939,54.99520320499528,1008.7538525424538,0,40.689238,-73.991833,0.56,1:52:0
2024-03-23T21:52:00,-7.548757097349999,-3.3188449462,6.140580997249999,0.03283400655314333,0.007177666548826681,-0.03237585762449482,0.19642,0.10542000000000001,-0.46340000000000003,1.5,3,2,1,1,3,6.2985546875,130208,54.950239647019906,1008.7559507068707,0,40.689238,-73.991833,0.56,1:52:0
2024-03-23T21:52:00,-7.67557669515,-3.3338000874499993,6.10349224695,0.03298672286269283,0.009315694882519735,-0.03588833274413341,0.19306000000000004,0.10346000000000001,-0.45444000000000007,1.5,3,2,1,1,3,6.2985546875,130208,54.950239647019906,1008.7559507068707,0,40.689238,-73.991833,0.56,1:52:0
2024-03-23T21:52:00,-7.61575613015,-3.314059301,6.122634827750001,0.03375030441044035,0.010079276430267254,-0.03329215548179184,0.20118,0.0987,-0.46732000000000007,1.5,3,2,1,1,3,6.2985546875,130208,54.950239647019906,1008.7559507068707,0,40.689238,-73.991833,0.49,1:52:0
2024-03-23T21:52:00,-7.6893354250999995,-3.3463624060999995,6.256632893349999,0.03451388595818787,0.0068722339297276735,-0.03604104905368291,0.19978000000000004,0.09954,-0.46186000000000005,1.5,3,2,1,1,3,6.2985546875,130208,54.950239647019906,1008.7559507068707,0,40.689238,-73.991833,0.49,1:52:0
2024-03-23T21:52:00,-7.663014376499999,-3.32781803095,6.180660775799999,0.031154127148098783,0.007788531787024696,-0.03390302071998985,0.19922000000000004,0.10178000000000001,-0.4571,1.5,3,2,1,1,3,6.2985546875,130208,54.950239647019906,1008.7559507068707,0,40.689235,-73.991831,0.49,1:52:1
2024-03-23T21:52:01,-7.617550747099999,-3.3212377687999997,6.156134344149999,0.03313943917224234,0.01145372321621279,-0.03604104905368291,0.20118,0.0959,-0.45892,1.5,3,2,1,1,3,6.25109375,128817,54.900287665470124,1008.754141675519,0,40.689235,-73.991831,0.49,1:52:1
2024-03-23T21:52:01,-7.6498538522,-3.3248270026999998,6.174678719299999,0.03451388595818787,0.007635815477475193,-0.03252857393404432,0.20370000000000002,0.10094000000000002,-0.46662000000000003,1.5,3,2,1,1,3,6.25109375,128817,54.900287665470124,1008.754141675519,0,40.689235,-73.991831,0.49,1:52:1
2024-03-23T21:52:01,-7.626523831849999,-3.3212377687999997,6.1782679532,0.03543018381548489,0.009926560120717751,-0.03466660226773738,0.19894000000000003,0.09982,-0.46228,1.5,3,2,1,1,3,6.25109375,128817,54.900287665470124,1008.754141675519,0,40.689235,-73.991831,0.49,1:52:1
2024-03-23T21:52:01,-7.626523831849999,-3.3062826275499995,6.1722858967,0.03451388595818787,0.015118914645400881,-0.03207042500539581,0.19838000000000003,0.09926,-0.46396000000000004,1.5,3,2,1,1,3,6.25109375,128817,54.900287665470124,1008.754141675519,0,40.689235,-73.991831,0.49,1:52:1
2024-03-23T21:52:01,-7.668398227349999,-3.2949167202,6.24347236905,0.031764992386296806,0.012980886311707827,-0.031154127148098783,0.20146,0.09618,-0.46228,1.5,3,2,1,1,3,6.25109375,128817,54.900287665470124,1008.754141675519,0,40.689235,-73.991831,0.49,1:52:1
2024-03-23T21:52:01,-7.69830850985,-3.3260234139999993,6.22313337695,0.037110063220529434,0.012522737383059314,-0.031764992386296806,0.20146,0.10010000000000001,-0.4571,1.5,3,2,1,1,3,6.2126171875,127262,54.883218057867104,1008.7483778592785,0,40.689235,-73.991831,0.49,1:52:1
2024-03-23T21:52:01,-7.67916592905,-3.309871861449999,6.227320816499999,0.031001410838549282,0.013897184169004852,-0.03436116964863837,0.20650000000000002,0.09954,-0.45682000000000006,1.5,3,2,1,1,3,6.2126171875,127262,54.883218057867104,1008.7483778592785,0,40.689235,-73.991831,0.26,1:52:1
2024-03-23T21:52:01,-7.701299538099999,-3.3224341800999997,6.1950177114,0.03405573702953936,0.007941248096574201,-0.031154127148098783,0.20902,0.09394000000000001,-0.45640000000000003,1.5,3,2,1,1,3,6.2126171875,127262,54.883218057867104,1008.7483778592785,0,40.689235,-73.991831,0.26,1:52:1
2024-03-23T21:52:01,-7.660621553899999,-3.32781803095,6.2009997679,0.03329215548179184,0.009315694882519735,-0.03359758810089085,0.2023,0.09534000000000001,-0.46480000000000005,1.5,3,2,1,1,3,6.2126171875,127262,54.883218057867104,1008.7483778592785,0,40.689231,-73.99183,0.26,1:52:2
2024-03-23T21:52:02,-7.6205417753499995,-3.32063956315,6.12981329555,0.038179077387375956,0.009926560120717751,-0.03466660226773738,0.20538000000000003,0.09954,-0.46928000000000003,1.5,3,2,1,1,3,6.427265625,139463,55.01576032863139,1008.7245536092979,0,40.689231,-73.99183,0.26,1:52:2
2024-03-23T21:52:02,-7.586444053299999,-3.3200413575,6.211169263949999,0.03481931857728687,0.010384709049366262,-0.03787364476827696,0.19838000000000003,0.09478000000000002,-0.44744000000000006,1.5,3,2,1,1,3,6.427265625,139463,55.01576032863139,1008.7245536092979,0,40.689231,-73.99183,0.26,1:52:2
2024-03-23T21:52:02,-7.671987461249999,-3.3128628897,6.092724545249999,0.03634648167278191,0.010384709049366262,-0.031459559767197796,0.19838000000000003,0.09478000000000002,-0.46578,1.5,3,2,1,1,3,6.427265625,139463,55.01576032863139,1008.7245536092979,0,40.689231,-73.99183,0.04,1:52:2
2024-03-23T21:52:02,-7.719245707599999,-3.32303238575,6.147759465049999,0.038942658935123484,0.0070249502392771765,-0.03252857393404432,0.20594000000000004,0.10122000000000002,-0.46130000000000004,1.5,3,2,1,1,3,6.427265625,139463,55.01576032863139,1008.7245536092979,0,40.689231,-73.99183,0.04,1:52:2
2024-03-23T21:52:02,-7.6486574409,-3.3308090591999995,6.17408051365,0.03054326190990077,0.009621127501618741,-0.0357356164345839,0.20594000000000004,0.10122000000000002,-0.46130000000000004,1.5,3,2,1,1,3,6.427265625,139463,55.01576032863139,1008.7245536092979,0,40.68923,-73.991833,0.04,1:52:3
2024-03-23T21:52:03,-7.6582287312999995,-3.3260234139999993,6.194419505749999,0.03298672286269283,0.009621127501618741,-0.03497203488683638,0.19698000000000002,0.10178000000000001,-0.4719400000000001,1.5,3,2,1,1,3,6.420625,135325,54.93850621180463,1008.734169410708,0,40.68923,-73.991833,0.04,1:52:3
2024-03-23T21:52:03,-7.6307112714,-3.3242287970499995,6.115456359949999,0.03054326190990077,0.010995574287564279,-0.03420845333908886,0.19586,0.09842000000000002,-0.46340000000000003,1.5,3,2,1,1,3,6.420625,135325,54.93850621180463,1008.734169410708,0,40.68923,-73.991833,0.04,1:52:3
2024-03-23T21:52:03,-7.6516484691499995,-3.3092736557999998,6.2488562199,0.03283400655314333,0.016798794050445424,-0.03604104905368291,0.2079,0.09758000000000001,-0.46634000000000003,1.5,3,2,1,1,3,6.420625,135325,54.93850621180463,1008.734169410708,0,40.68923,-73.991833,0.13,1:52:3
2024-03-23T21:52:03,-7.677969517749999,-3.3314072648499997,6.22552619955,0.03802636107782646,0.01069014166846527,-0.036804630601430424,0.20594000000000004,0.09646,-0.46228,2.5,3,2,1,1,3,6.420625,135325,54.93850621180463,1008.734169410708,0,40.68923,-73.991833,0.13,1:52:3
2024-03-23T21:52:03,-7.634898710949999,-3.3308090591999995,6.18365180405,0.031001410838549282,0.006414085001079162,-0.036499197982331415,0.20594000000000004,0.09646,-0.46228,1.5,3,2,1,1,3,6.420625,135325,54.93850621180463,1008.734169410708,0,40.689226,-73.991836,0.13,1:52:4
2024-03-23T21:52:04,-7.659425142599999,-3.32781803095,6.16091998935,0.030848694528999777,0.010842857978014774,-0.03481931857728687,0.20006000000000004,0.09562000000000001,-0.46970000000000006,1.5,3,2,1,1,3,6.3544140625,132665,54.911920664140126,1008.7303350298993,0,40.689226,-73.991836,0.13,1:52:4
2024-03-23T21:52:04,-7.632505888349999,-3.3044880105999996,6.128018678599999,0.030085112981252257,0.010842857978014774,-0.03497203488683638,0.20202,0.09842000000000002,-0.4660600000000001,1.5,3,2,1,1,3,6.3544140625,132665,54.911920664140126,1008.7303350298993,0,40.689226,-73.991836,0.13,1:52:4
2024-03-23T21:52:04,-7.671389255599999,-3.337987527,6.244070574699999,0.04016438941151951,0.007177666548826681,-0.03329215548179184,0.19110000000000002,0.08862,-0.47418000000000005,1.5,3,2,1,1,3,6.3544140625,132665,54.911920664140126,1008.7303350298993,0,40.689226,-73.991836,0.23,1:52:4
2024-03-23T21:52:04,-7.632505888349999,-3.3056844218999997,6.234499284299999,0.03787364476827696,0.012522737383059314,-0.03756821214917795,0.19922000000000004,0.09786000000000002,-0.46158000000000005,1.5,3,2,1,1,3,6.3544140625,132665,54.911920664140126,1008.7303350298993,0,40.689226,-73.991836,0.23,1:52:4
2024-03-23T21:52:04,-7.636095122249999,-3.3284162366,6.17168769105,0.03268129024359383,0.007177666548826681,-0.03130684345764829,0.20258,0.09730000000000001,-0.45640000000000003,1.5,3,2,1,1,3,6.3544140625,132665,54.911920664140126,1008.7303350298993,0,40.689225,-73.99184,0.23,1:52:5
2024-03-23T21:52:05,-7.6462646183,-3.35892472475,6.2177495260999995,0.03466660226773738,0.008704829644321718,-0.031001410838549282,0.21266000000000002,0.10318000000000001,-0.4520600000000001,1.5,3,2,1,1,3,6.2895703125,131017,54.91098981127877,1008.7253175524575,0,40.689225,-73.99184,0.23,1:52:5
2024-03-23T21:52:05,-7.66959463865,-3.2997023654,6.16091998935,0.030237829290801762,0.00946841119206924,-0.03313943917224234,0.20202,0.09758000000000001,-0.45822,1.5,3,2,1,1,3,6.2895703125,131017,54.91098981127877,1008.7253175524575,0,40.689225,-73.99184,0.23,1:52:5
2024-03-23T21:52:05,-7.6390861505,-3.3116664784,6.139384585949999,0.03359758810089085,0.00595593607243065,-0.03252857393404432,0.20202,0.09758000000000001,-0.45822,1.5,3,2,1,1,3,6.2895703125,131017,54.91098981127877,1008.7253175524575,0,40.689225,-73.99184,0.27,1:52:5
2024-03-23T21:52:05,-7.645666412649999,-3.31944315185,6.232106461699999,0.031764992386296806,0.010842857978014774,-0.03512475119638588,0.20314000000000002,0.09786000000000002,-0.46074000000000004,1.5,3,2,1,1,3,6.2895703125,131017,54.91098981127877,1008.7253175524575,0,40.689225,-73.99184,0.27,1:52:5
2024-03-23T21:52:05,-7.63729153355,-3.3302108535499997,6.203990796149999,0.030390545600351267,0.01145372321621279,-0.029474247743054245,0.1967,0.0987,-0.4531800000000001,1.5,2,2,1,1,3,6.2895703125,131017,54.91098981127877,1008.7253175524575,0,40.68922,-73.991841,0.27,1:52:6
2024-03-23T21:52:06,-7.635496916599999,-3.2985059540999995,6.2297136391,0.031001410838549282,0.005192354524683131,-0.03283400655314333,0.20818,0.09478000000000002,-0.44954,1.5,3,2,1,1,3,6.239375,130410,54.93083017279419,1008.718921956719,0,40.68922,-73.991841,0.27,1:52:6
2024-03-23T21:52:06,-7.66121975955,-3.30867545015,6.1579289611,0.03329215548179184,0.012064588454410803,-0.031001410838549282,0.20174,0.09338,-0.45738000000000006,1.5,3,2,1,1,3,6.239375,130410,54.93083017279419,1008.718921956719,0,40.68922,-73.991841,0.27,1:52:6
2024-03-23T21:52:06,-7.612765101899999,-3.3493534343499998,6.1543397272,0.03451388595818787,0.010231992739816757,-0.03466660226773738,0.20174,0.09338,-0.45738000000000006,1.5,3,2,1,1,3,6.239375,130410,54.93083017279419,1008.718921956719,0,40.68922,-73.991841,0.27,1:52:6
2024-03-23T21:52:06,-7.603193811499999,-3.3260234139999993,6.1471612594,0.03390302071998985,0.010537425358915765,-0.0357356164345839,0.20678000000000002,0.09954,-0.4491200000000001,1.5,3,2,1,1,3,6.239375,130410,54.93083017279419,1008.718921956719,0,40.68922,-73.991841,0.27,1:52:6
2024-03-23T21:52:06,-7.6247292148999986,-3.32781803095,6.296114466249999,0.03390302071998985,0.009621127501618741,-0.03497203488683638,0.20118,0.09898,-0.45738000000000006,1.5,3,2,1,1,3,6.239375,130410,54.93083017279419,1008.718921956719,0,40.68922,-73.991841,0.27,1:52:6
2024-03-23T21:52:06,-7.653443086099999,-3.32183597445,6.1471612594,0.03802636107782646,0.008246680715673207,-0.03405573702953936,0.20622000000000001,0.09282000000000001,-0.4601800000000001,1.5,3,2,1,1,3,6.2008984375,129608,54.971113675348725,1008.7166161468568,0,40.68922,-73.991841,0.27,1:52:6
2024-03-23T21:52:06,-7.670791049949999,-3.36729960385,6.0969119848,0.03268129024359383,0.007788531787024696,-0.03726277953007894,0.20006000000000004,0.09366000000000001,-0.46368000000000004,1.5,3,2,1,1,3,6.2008984375,129608,54.971113675348725,1008.7166161468568,0,40.68922,-73.991841,0.34,1:52:6
2024-03-23T21:52:06,-7.616354335799999,-3.3284162366,6.171089485399999,0.03375030441044035,0.007941248096574201,-0.03375030441044035,0.20202,0.09282000000000001,-0.46382000000000007,1.5,3,2,1,1,3,6.2008984375,129608,54.971113675348725,1008.7166161468568,0,40.68922,-73.991841,0.34,1:52:6
2024-03-23T21:52:06,-7.663014376499999,-3.34097855525,6.14297381985,0.03252857393404432,0.009621127501618741,-0.03268129024359383,0.2023,0.0903,-0.47978000000000004,1.5,3,2,1,1,3,6.2008984375,129608,54.971113675348725,1008.7166161468568,0,40.689213,-73.99184,0.34,1:52:7
2024-03-23T21:52:07,-7.588238670249999,-3.3056844218999997,6.13340252945,0.028863382504856226,0.007788531787024696,-0.031459559767197796,0.20986000000000002,0.09422000000000001,-0.4743200000000001,1.5,3,2,1,1,3,6.41671875,141450,55.097484526772305,1008.6878402891963,0,40.689213,-73.99184,0.34,1:52:7
2024-03-23T21:52:07,-7.645068206999999,-3.36849601515,6.129215089899999,0.03344487179134134,0.008093964406123704,-0.029626964052603746,0.20566000000000004,0.09086000000000001,-0.47320000000000007,1.5,3,2,1,1,3,6.41671875,141450,55.097484526772305,1008.6878402891963,0,40.689213,-73.99184,0.34,1:52:7
2024-03-23T21:52:07,-7.67677310645,-3.3146575066499997,6.18125898145,0.03268129024359383,0.009010262263420728,-0.03222314131494531,0.20566000000000004,0.09086000000000001,-0.47320000000000007,1.5,3,2,1,1,3,6.41671875,141450,55.097484526772305,1008.6878402891963,0,40.689213,-73.99184,0.2,1:52:7
2024-03-23T21:52:07,-7.6426753843999995,-3.314059301,6.10708148085,0.030085112981252257,0.009773843811168246,-0.03420845333908886,0.20622000000000001,0.09198,-0.4678800000000001,1.5,3,2,1,1,3,6.41671875,141450,55.097484526772305,1008.6878402891963,0,40.689213,-73.99184,0.2,1:52:7
2024-03-23T21:52:07,-7.652844880449999,-3.3254252083499996,6.1776697475499995,0.03283400655314333,0.008246680715673207,-0.036193765363232405,0.20706000000000002,0.09786000000000002,-0.46228,1.5,3,2,1,1,3,6.41671875,141450,55.097484526772305,1008.6878402891963,0,40.689211,-73.99184,0.2,1:52:8
2024-03-23T21:52:08,-7.621139980999999,-3.3182467405500002,6.1435720255,0.03283400655314333,0.008246680715673207,-0.031001410838549282,0.20314000000000002,0.09730000000000001,-0.46480000000000005,1.5,3,2,1,1,3,6.41515625,137531,55.039901010504664,1008.6869491473255,0,40.689211,-73.99184,0.2,1:52:8
2024-03-23T21:52:08,-7.746763167499999,-3.3451659947999994,6.108277892149999,0.03436116964863837,0.007177666548826681,-0.03420845333908886,0.20202,0.09730000000000001,-0.4713800000000001,1.5,3,2,1,1,3,6.41515625,137531,55.039901010504664,1008.6869491473255,0,40.689211,-73.99184,0.2,1:52:8
2024-03-23T21:52:08,-7.674380283849999,-3.3284162366,6.251847248149999,0.02825251726665821,0.009926560120717751,-0.03451388595818787,0.20034000000000002,0.09198,-0.46172,1.5,3,2,1,1,3,6.41515625,137531,55.039901010504664,1008.6869491473255,0,40.689211,-73.99184,0.16,1:52:8
2024-03-23T21:52:08,-7.692326453349999,-3.3032915992999996,6.1782679532,0.030390545600351267,0.008704829644321718,-0.0316122760767473,0.19894000000000003,0.08778000000000001,-0.47166,1.5,3,2,1,1,3,6.41515625,137531,55.039901010504664,1008.6869491473255,0,40.689211,-73.99184,0.16,1:52:8
2024-03-23T21:52:08,-7.65045205785,-3.3326036761499997,6.1998033565999995,0.03252857393404432,0.007941248096574201,-0.03481931857728687,0.19894000000000003,0.08778000000000001,-0.47166,1.5,3,2,1,1,3,6.41515625,137531,55.039901010504664,1008.6869491473255,0,40.689206,-73.99184,0.16,1:52:9
2024-03-23T21:52:09,-7.660621553899999,-3.3242287970499995,6.2009997679,0.036499197982331415,0.012064588454410803,-0.038179077387375956,0.19726000000000002,0.09086000000000001,-0.4690000000000001,1.5,3,2,1,1,3,6.3540234375,134248,55.026621325636306,1008.6864477608494,0,40.689206,-73.99184,0.16,1:52:9
2024-03-23T21:52:09,-7.75573625225,-3.3146575066499997,6.197410534,0.03313943917224234,0.0119118721448613,-0.03436116964863837,0.20202,0.09730000000000001,-0.4690000000000001,1.5,3,2,1,1,3,6.3540234375,134248,55.026621325636306,1008.6864477608494,0,40.689206,-73.99184,0.16,1:52:9
2024-03-23T21:52:09,-7.652844880449999,-3.3224341800999997,6.145964848099999,0.030848694528999777,0.009773843811168246,-0.031764992386296806,0.20202,0.09730000000000001,-0.4690000000000001,1.5,3,2,1,1,3,6.3540234375,134248,55.026621325636306,1008.6864477608494,0,40.689206,-73.99184,0.27,1:52:9
2024-03-23T21:52:09,-7.647461029599999,-3.3146575066499997,6.20279438485,0.03466660226773738,0.008246680715673207,-0.03604104905368291,0.19922000000000004,0.09730000000000001,-0.4746,1.5,3,2,1,1,3,6.3540234375,134248,55.026621325636306,1008.6864477608494,0,40.689206,-73.99184,0.27,1:52:9
2024-03-23T21:52:09,-7.649255646549999,-3.3266216196499996,6.18245539275,0.036804630601430424,0.012522737383059314,-0.03359758810089085,0.20314000000000002,0.09338,-0.46158000000000005,1.5,3,2,1,1,3,6.3540234375,134248,55.026621325636306,1008.6864477608494,0,40.689206,-73.991835,0.27,1:52:10
2024-03-23T21:52:10,-7.587640464599999,-3.3170503292499998,6.1064832752,0.03543018381548489,0.011301006906663285,-0.03359758810089085,0.20006000000000004,0.09478000000000002,-0.46382000000000007,1.5,3,2,1,1,3,6.298359375,133399,55.02034218848444,1008.6795412629762,0,40.689206,-73.991835,0.27,1:52:10
2024-03-23T21:52:10,-7.6749784895,-3.29312210325,6.214758497849999,0.03695734691097993,0.014049900478554353,-0.031459559767197796,0.20174,0.09674,-0.46214000000000005,1.5,3,2,1,1,3,6.298359375,133399,55.02034218848444,1008.6795412629762,0,40.689206,-73.991835,0.27,1:52:10
2024-03-23T21:52:10,-7.666603610399998,-3.33858573265,6.190232066199998,0.0355829001250344,0.009773843811168246,-0.0316122760767473,0.20174,0.09674,-0.46214000000000005,1.5,3,2,1,1,3,6.298359375,133399,55.02034218848444,1008.6795412629762,0,40.689206,-73.991835,0.18,1:52:10
2024-03-23T21:52:10,-7.651050263499999,-3.314059301,6.129215089899999,0.03313943917224234,0.010842857978014774,-0.03527746750593539,0.19782000000000002,0.09114000000000001,-0.44632000000000005,1.5,3,2,1,1,3,6.298359375,133399,55.02034218848444,1008.6795412629762,0,40.689206,-73.991835,0.18,1:52:10
2024-03-23T21:52:10,-7.70429056635,-3.3146575066499997,6.1184473882,0.030848694528999777,0.007635815477475193,-0.03207042500539581,0.19782000000000002,0.09114000000000001,-0.44632000000000005,1.5,3,2,1,1,3,6.298359375,133399,55.02034218848444,1008.6795412629762,0,40.689205,-73.991831,0.18,1:52:11
2024-03-23T21:52:11,-7.65882693695,-3.3314072648499997,6.13220611815,0.03420845333908886,0.012980886311707827,-0.03436116964863837,0.19754000000000002,0.09142,-0.4641,1.5,4,2,1,1,3,6.241328125,131425,55.0330423951695,1008.6720580686981,0,40.689205,-73.991831,0.18,1:52:11
2024-03-23T21:52:11,-7.648059235249999,-3.3314072648499997,6.1686966628,0.03222314131494531,0.010079276430267254,-0.029474247743054245,0.20398000000000002,0.09534000000000001,-0.45752000000000004,1.5,4,2,1,1,3,6.241328125,131425,55.0330423951695,1008.6720580686981,0,40.689205,-73.991831,0.18,1:52:11
2024-03-23T21:52:11,-7.631309477049999,-3.3020951879999996,6.1800625701500005,0.0319177086958463,0.009926560120717751,-0.03222314131494531,0.19950000000000004,0.09534000000000001,-0.45752000000000004,1.5,4,2,1,1,3,6.241328125,131425,55.0330423951695,1008.6720580686981,0,40.689205,-73.991831,0.18,1:52:11
2024-03-23T21:52:11,-7.6522466748,-3.32781803095,6.1040904525999995,0.031459559767197796,0.01069014166846527,-0.03268129024359383,0.20174,0.09814000000000002,-0.4571,1.5,4,2,1,1,3,6.241328125,131425,55.0330423951695,1008.6720580686981,0,40.689205,-73.991831,0.18,1:52:11
2024-03-23T21:52:11,-7.65882693695,-3.3188449462,6.1579289611,0.03130684345764829,0.012522737383059314,-0.029626964052603746,0.19754000000000002,0.10150000000000002,-0.47894000000000003,1.5,4,2,1,1,3,6.241328125,131425,55.0330423951695,1008.6720580686981,0,40.689205,-73.991831,0.18,1:52:11
2024-03-23T21:52:11,-7.674380283849999,-3.3170503292499998,6.1573307554499985,0.03451388595818787,0.01145372321621279,-0.0319177086958463,0.19810000000000003,0.09254000000000001,-0.47026000000000007,1.5,4,2,1,1,3,6.2034375,131221,55.028773963473675,1008.6672805785763,0,40.689205,-73.991831,0.18,1:52:11
2024-03-23T21:52:11,-7.659425142599999,-3.2985059540999995,6.206383618749999,0.03344487179134134,0.01145372321621279,-0.03344487179134134,0.20006000000000004,0.10038000000000001,-0.46466,1.5,4,2,1,1,3,6.2034375,131221,55.028773963473675,1008.6672805785763,0,40.689205,-73.991831,0.19,1:52:11
2024-03-23T21:52:11,-7.695317481599999,-3.314059301,6.1758751306,0.03252857393404432,0.0119118721448613,-0.03222314131494531,0.19810000000000003,0.09842000000000002,-0.46536000000000005,1.5,4,2,1,1,3,6.2034375,131221,55.028773963473675,1008.6672805785763,0,40.689205,-73.991831,0.19,1:52:11
2024-03-23T21:52:11,-7.533203750449999,-3.3248270026999998,6.1573307554499985,0.03451388595818787,0.008704829644321718,-0.03436116964863837,0.19810000000000003,0.09842000000000002,-0.46536000000000005,1.5,4,2,1,1,3,6.2034375,131221,55.028773963473675,1008.6672805785763,0,40.689203,-73.991825,0.19,1:52:12
2024-03-23T21:52:12,-7.664808993449999,-3.32781803095,6.251847248149999,0.03283400655314333,0.009315694882519735,-0.038484510006474966,0.20734000000000002,0.0931,-0.4676,1.5,3,2,1,1,3,6.4184765625,143251,55.15510858420917,1008.6337164685015,0,40.689203,-73.991825,0.19,1:52:12
2024-03-23T21:52:12,-7.664210787799999,-3.30867545015,6.2153567034999995,0.03405573702953936,0.006108652381980154,-0.03604104905368291,0.21014000000000002,0.0959,-0.46298,1.5,3,2,1,1,3,6.4184765625,143251,55.15510858420917,1008.6337164685015,0,40.689203,-73.991825,0.19,1:52:12
2024-03-23T21:52:12,-7.66361258215,-3.3373893213500003,6.2021961791999995,0.0319177086958463,0.012370021073509813,-0.03390302071998985,0.20566000000000004,0.10234,-0.45304,1.5,3,2,1,1,3,6.4184765625,143251,55.15510858420917,1008.6337164685015,0,40.689203,-73.991825,0.2,1:52:12
2024-03-23T21:52:12,-7.671389255599999,-3.3302108535499997,6.14536664245,0.03527746750593539,0.00595593607243065,-0.03359758810089085,0.20622000000000001,0.09506,-0.46102000000000004,1.5,3,2,1,1,3,6.4184765625,143251,55.15510858420917,1008.6337164685015,0,40.689203,-73.991825,0.2,1:52:12
2024-03-23T21:52:12,-7.633702299649999,-3.32303238575,6.1567325498,0.03512475119638588,0.00946841119206924,-0.03237585762449482,0.20342000000000002,0.09842000000000002,-0.4585000000000001,1.5,3,2,1,1,3,6.4184765625,143251,55.15510858420917,1008.6337164685015,0,40.689201,-73.991823,0.2,1:52:13
2024-03-23T21:52:13,-7.660621553899999,-3.3284162366,6.1447684368,0.02855794988575722,0.012370021073509813,-0.029168815123955236,0.20958000000000002,0.09646,-0.4781,1.5,3,2,1,1,3,6.4130078125,139925,55.077927409713645,1008.6383804163756,0,40.689201,-73.991823,0.2,1:52:13
2024-03-23T21:52:13,-7.7072815945999995,-3.33978214395,6.1698930741,0.03313943917224234,0.008552113334772215,-0.03237585762449482,0.20286,0.09394000000000001,-0.46228,1.5,3,2,1,1,3,6.4130078125,139925,55.077927409713645,1008.6383804163756,0,40.689201,-73.991823,0.2,1:52:13
2024-03-23T21:52:13,-7.65882693695,-3.3296126479,6.2177495260999995,0.03405573702953936,0.012370021073509813,-0.031154127148098783,0.20398000000000002,0.10066000000000001,-0.46508000000000005,1.5,3,2,1,1,3,6.4130078125,139925,55.077927409713645,1008.6383804163756,0,40.689201,-73.991823,0.52,1:52:13
