Timestamp,Accel_X,Accel_Y,Accel_Z,Gyro_X,Gyro_Y,Gyro_Z,Mag_X,Mag_Y,Mag_Z,LSM9DS1_Temp,Proximity,Color_R,Color_G,Color_B,Color_C,BME680_Temp,Gas,Humidity,Pressure,Switch_Pressed,GPS_Latitude,GPS_Longitude,GPS_Speed,GPS_Timestamp,Pad_press
2024-04-02T10:51:38,0.7136593404499999,-0.14177473905,9.72024360685,0.017715091907742446,0.021991148575128558,0.0872010127527667,-0.0012600000000000003,0.23506000000000002,-0.18284,20.5,0,559,419,754,2208,33.574921875,51473,100,695.662002676745,0,,,,N/A,False
2024-04-02T10:51:38,0.7375875664499998,-0.10947163395000001,9.89372324535,0.024129176908821607,0.02107485071783153,0.08552113334772216,0.009380000000000001,0.22918000000000002,-0.18354,20.5,0,559,419,754,2208,33.574921875,51473,100,695.662002676745,0,,,,N/A,False
2024-04-02T10:51:38,0.6987041992,-0.13758729949999998,9.790233667899999,0.020311269170084013,0.022449297503777065,0.08827002691961322,0.009940000000000001,0.22834000000000004,-0.19166000000000002,20.5,0,559,419,754,2208,33.574921875,51473,100,695.662002676745,0,,,,N/A,False
2024-04-02T10:51:39,0.7501498851,-0.12203395259999998,9.963115100749999,0.020005836550985007,0.01893682238413848,0.08735372906231621,0.007980000000000001,0.22246000000000002,-0.18760000000000002,20.5,0,559,419,754,2208,27.2411328125,8948,29.16944626895541,1013.1984763304297,0,,,,N/A,False
2024-04-02T10:51:39,0.7046862557,-0.16031911419999997,9.92482993915,0.019700403931885997,0.020005836550985007,0.08796459430051423,0.007980000000000001,0.23254000000000002,-0.18494000000000002,20.5,0,559,419,754,2208,27.2411328125,8948,29.16944626895541,1013.1984763304297,0,,,,N/A,False
2024-04-02T10:51:39,0.77706913935,-0.12502498085,9.9708917742,0.019394971312786988,0.024434609527920616,0.08796459430051423,0.013580000000000002,0.23282000000000003,-0.18844000000000002,20.5,0,559,419,754,2208,27.2411328125,8948,29.16944626895541,1013.1984763304297,0,,,,N/A,False
2024-04-02T10:51:39,0.7214360139,-0.11724830739999999,9.90209812445,0.022449297503777065,0.02168571595602955,0.08842274322916273,0.013020000000000002,0.23114,-0.19194000000000003,20.5,0,559,419,754,2208,27.4661328125,10554,29.21633935029159,1013.1756239707585,0,,,,N/A,False
2024-04-02T10:51:39,0.7339983325499999,-0.16091731985,9.819545744749998,0.01863138976503947,0.019394971312786988,0.08933904108645975,0.006860000000000001,0.23198000000000002,-0.18088,20.5,0,559,419,754,2208,27.4661328125,10554,29.21633935029159,1013.1756239707585,0,,,,N/A,False
2024-04-02T10:51:39,0.7142575461,-0.16630117069999997,9.8440721764,0.01893682238413848,0.021227567027381034,0.0867428638241182,0.01386,0.22750000000000004,-0.19418000000000002,20.5,0,559,419,754,2208,27.8544140625,12250,29.24922367414526,1013.168964200841,0,,,,N/A,False
2024-04-02T10:51:39,0.7603193811499999,-0.11365907349999999,9.878768104099999,0.019700403931885997,0.024434609527920616,0.08659014751456869,0.005180000000000001,0.22778000000000004,-0.17836000000000002,20.5,0,559,419,754,2208,27.8544140625,12250,29.24922367414526,1013.168964200841,0,,,,N/A,False
2024-04-02T10:51:39,0.6987041992,-0.12382856954999999,9.855438083749998,0.023671027980173096,0.015729779883598898,0.08521570072862314,0.007980000000000001,0.21882000000000001,-0.18816000000000002,20.5,0,559,419,754,2208,28.285859375,13969,29.280315521885164,1013.169936077233,0,,,,N/A,False
2024-04-02T10:51:39,0.693918554,-0.14895320685,9.862616551549998,0.021532999646480044,0.02336559536107409,0.0867428638241182,0.00042,0.23086,-0.18634000000000003,20.5,0,565,424,761,2220,28.285859375,13969,29.280315521885164,1013.169936077233,0,,,,N/A,False
2024-04-02T10:51:39,0.7052844613499999,-0.11365907349999999,9.80159957525,0.020005836550985007,0.024129176908821607,0.0872010127527667,0.0037800000000000004,0.23198000000000002,-0.1778,20.5,0,565,424,761,2220,28.285859375,13969,29.280315521885164,1013.169936077233,0,,,,N/A,False
2024-04-02T10:51:39,0.7453642399,-0.13339985995,9.807581631749999,0.019242255003237483,0.021991148575128558,0.08903360846736075,0.00574,0.23282000000000003,-0.19096000000000002,20.5,0,565,424,761,2220,28.7044140625,15683,29.288051586253502,1013.1846994781157,0,,,,N/A,False
2024-04-02T10:51:39,0.7238288365,-0.13758729949999998,10.06122082735,0.022754730122876075,0.02504547476611863,0.08903360846736075,0.007420000000000001,0.23842000000000002,-0.18704,20.5,0,565,424,761,2220,28.7044140625,15683,29.288051586253502,1013.1846994781157,0,,,,N/A,False
2024-04-02T10:51:39,0.7142575461,-0.1112662509,10.021141048799999,0.020922134408282028,0.019242255003237483,0.08811731061006371,0.0071400000000000005,0.23562000000000002,-0.19362000000000001,20.5,0,565,424,761,2220,29.0829296875,17534,29.286844129657677,1013.1741529068455,0,,,,N/A,False
2024-04-02T10:51:40,0.73998038905,-0.17228322719999997,9.871589636299998,0.02061670178918302,0.019853120241435502,0.08933904108645975,0.0009800000000000002,0.23058,-0.19012,20.5,0,565,424,761,2220,29.0829296875,17534,29.286844129657677,1013.1741529068455,0,,,,N/A,False
2024-04-02T10:51:40,-0.22013967919999997,0.14416756165,7.655237703049999,0.7667885902480588,-4.699997142695531,-2.5103506963747444,0.00574,0.23226000000000002,-0.18200000000000002,19.5,0,565,424,761,2220,29.0829296875,17534,29.286844129657677,1013.1741529068455,0,,,,N/A,False
2024-04-02T10:51:40,0.7010970218,-0.29371897415,10.0175518149,0.05894849548610849,-0.08216137453763307,-0.05772676500971245,0.009100000000000002,0.23450000000000004,-0.18914,20.5,0,565,424,761,2220,29.416328125,19334,29.253798850514958,1013.1803104048893,0,,,,N/A,False
2024-04-02T10:51:40,0.7339983325499999,-0.12023933564999999,9.966106128999998,0.039858956792420505,-0.014049900478554353,-0.051618112627732304,0.013300000000000001,0.22722000000000003,-0.16870000000000002,20.5,0,565,424,761,2220,29.416328125,19334,29.253798850514958,1013.1803104048893,0,,,,N/A,False
2024-04-02T10:51:40,0.7339983325499999,-0.12143574694999999,9.994820000199999,0.03924809155422249,0.0012217304763960308,-0.05421428989007387,0.009940000000000001,0.23254000000000002,-0.17556000000000002,20.5,0,565,424,761,2220,29.7083203125,21094,29.20599982600387,1013.1897652007008,0,,,,N/A,False
2024-04-02T10:51:40,0.7154539574000001,-0.12143574694999999,9.936794052149999,0.03588833274413341,0.00595593607243065,-0.04688390703169768,0.011620000000000002,0.22834000000000004,-0.17822000000000002,20.5,0,564,424,761,2220,29.7083203125,21094,29.20599982600387,1013.1897652007008,0,,,,N/A,False
2024-04-02T10:51:40,0.7417750059999999,-0.13998012209999997,9.895517862299998,0.04581489286485116,0.010995574287564279,-0.038331793696925465,0.014420000000000002,0.23254000000000002,-0.18228000000000003,20.5,0,564,424,761,2220,29.7083203125,21094,29.20599982600387,1013.1897652007008,0,,,,N/A,False
2024-04-02T10:51:40,0.7190431912999999,-0.1387837108,9.80279598655,0.04459316238845512,0.005039638215133627,-0.040317105721069016,-0.0029400000000000003,0.22862000000000005,-0.17178000000000002,20.5,0,564,424,761,2220,29.9579296875,23003,29.148954257810868,1013.1921137837339,0,,,,N/A,False
2024-04-02T10:51:40,0.7298108929999999,-0.14416756165,9.906285564,0.039553524173321496,0.007330382858376185,-0.041080687268816536,0.012180000000000002,0.23534000000000002,-0.19292,20.5,0,564,424,761,2220,29.9579296875,23003,29.148954257810868,1013.1921137837339,0,,,,N/A,False
2024-04-02T10:51:40,0.7274180704000001,-0.14237294469999998,9.81356368825,0.043676864531158106,0.0019853120241435504,-0.036804630601430424,0.0054600000000000004,0.23758,-0.19194000000000003,20.5,0,564,424,761,2220,30.1743359375,24797,29.094659257363574,1013.19536608729,0,,,,N/A,False
2024-04-02T10:51:40,0.7310073042999999,-0.13938191645,9.9517491934,0.04046982203061852,-0.0018325957145940463,-0.04016438941151951,0.00882,0.23562000000000002,-0.18452000000000002,20.5,0,564,424,761,2220,30.1743359375,24797,29.094659257363574,1013.19536608729,0,,,,N/A,False
2024-04-02T10:51:40,0.7202396026000001,-0.12263215824999998,9.99182897195,0.04413501345980661,-0.008704829644321718,-0.039400807863771994,0.0007000000000000001,0.23842000000000002,-0.17878000000000002,20.5,0,564,424,761,2220,30.36125,26493,29.01540705740573,1013.2057037681117,0,,,,N/A,False
2024-04-02T10:51:40,0.7375875664499998,-0.11485548479999999,10.034301573099999,0.04428772976935611,-0.003970624048287101,-0.03772092845872745,0.00238,0.23170000000000002,-0.17738000000000004,20.5,0,564,424,761,2220,30.36125,26493,29.01540705740573,1013.2057037681117,0,,,,N/A,False
2024-04-02T10:51:40,0.7304090986499999,-0.13100703735,9.828518829499998,0.043676864531158106,-0.002901609881440573,-0.036193765363232405,0.01022,0.24234000000000003,-0.17654000000000003,20.5,0,564,424,761,2220,30.36125,26493,29.01540705740573,1013.2057037681117,0,,,,N/A,False
2024-04-02T10:51:41,0.6777670014499999,-0.1387837108,9.802197780899998,0.04627304179349966,-0.0012217304763960308,-0.03313943917224234,0.00882,0.23226000000000002,-0.20762000000000003,20.5,0,566,426,764,2228,30.5219921875,28247,28.928311493708975,1013.2089002346655,0,,,,N/A,False
2024-04-02T10:51:41,0.7142575461,-0.18005990065000002,9.942177903,0.041844268816564056,-0.003054326190990077,-0.03405573702953936,0.014420000000000002,0.22890000000000005,-0.1904,20.5,0,566,426,764,2228,30.5219921875,28247,28.928311493708975,1013.2089002346655,0,,,,N/A,False
2024-04-02T10:51:41,0.7286144817,-0.18664016279999998,9.921240705249998,0.048258353817643214,-0.004886921905584123,-0.04428772976935611,0.009940000000000001,0.22778000000000004,-0.18564000000000003,20.5,0,566,426,764,2228,30.6591015625,29844,28.839205350726047,1013.2127593515505,0,,,,N/A,False
2024-04-02T10:51:41,0.7405785947,-0.11784651304999999,9.896116067949999,0.04260785036431157,-0.0003054326190990077,-0.03634648167278191,0.007980000000000001,0.23114,-0.1897,20.5,0,566,426,764,2228,30.6591015625,29844,28.839205350726047,1013.2127593515505,0,,,,N/A,False
2024-04-02T10:51:41,0.7304090986499999,-0.15972090854999998,9.9146604431,0.041996985126113565,-0.0015271630954950385,-0.03695734691097993,0.006860000000000001,0.23282000000000003,-0.18130000000000002,20.5,0,566,426,764,2228,30.6591015625,29844,28.839205350726047,1013.2127593515505,0,,,,N/A,False
2024-04-02T10:51:41,0.71605216305,-0.1483550012,9.914062237449999,0.04276056667386108,0.00015271630954950385,-0.037110063220529434,0.0119,0.23562000000000002,-0.17360000000000003,20.5,0,566,426,764,2228,30.7766796875,31680,28.74844872179092,1013.2294337534156,0,,,,N/A,False
2024-04-02T10:51:41,0.69930240485,-0.13100703735,9.8045906035,0.04444044607890562,-0.008552113334772215,-0.03756821214917795,0.0071400000000000005,0.23086,-0.19922000000000004,20.5,0,566,426,764,2228,30.7766796875,31680,28.74844872179092,1013.2294337534156,0,,,,N/A,False
2024-04-02T10:51:41,0.7148557517499999,-0.14057832774999998,9.8560362894,0.04214970143566306,-0.0009162978572970231,-0.03787364476827696,0.0054600000000000004,0.2303,-0.2044,20.5,0,566,426,764,2228,30.8778515625,33436,28.645124719286084,1013.2371357352945,0,,,,N/A,False
2024-04-02T10:51:41,0.7082754896000001,-0.11006983959999998,10.100702400249999,0.04688390703169768,-0.0038179077387375964,-0.03543018381548489,0.005180000000000001,0.23534000000000002,-0.18522000000000002,20.5,0,566,426,764,2228,30.8778515625,33436,28.645124719286084,1013.2371357352945,0,,,,N/A,False
2024-04-02T10:51:41,0.7070790782999999,-0.11964112999999998,9.85304526115,0.04550946024575215,-0.003970624048287101,-0.03420845333908886,0.00574,0.22834000000000004,-0.18396,20.5,1,567,427,766,2232,30.8778515625,33436,28.645124719286084,1013.2371357352945,0,,,,N/A,False
2024-04-02T10:51:41,0.7292126873499999,-0.13160524299999998,9.93081199565,0.040622538340168025,-0.00045814892864851157,-0.038331793696925465,0.009100000000000002,0.23086,-0.18102000000000001,20.5,1,567,427,766,2232,30.96671875,35075,28.546387267897313,1013.2461952437242,0,,,,N/A,False
2024-04-02T10:51:41,0.7256234534499999,-0.11904292434999998,10.088140081599997,0.048258353817643214,-0.0016798794050445422,-0.041996985126113565,0.00014000000000000001,0.23506000000000002,-0.17934,20.5,1,567,427,766,2232,30.96671875,35075,28.546387267897313,1013.2461952437242,0,,,,N/A,False
2024-04-02T10:51:41,0.7292126873499999,-0.12323036389999999,10.013962581,0.04092797095926703,-0.0035124751196385882,-0.03787364476827696,0.00042,0.22554000000000002,-0.18242000000000003,20.5,1,567,427,766,2232,31.045234375,36722,28.446810318613352,1013.2490460093603,0,,,,N/A,False
2024-04-02T10:51:42,0.69092752575,-0.16510475939999997,10.00259667365,0.04520402762665314,-0.0009162978572970231,-0.040317105721069016,0.009940000000000001,0.23422000000000004,-0.1967,21.5,1,567,427,766,2232,31.045234375,36722,28.446810318613352,1013.2490460093603,0,,,,N/A,False
2024-04-02T10:51:42,0.7250252477999999,-0.14775679555,10.006784113199998,0.0435241482216086,-0.00045814892864851157,-0.038484510006474966,-0.00042,0.23590000000000003,-0.18130000000000002,20.5,1,567,427,766,2232,31.045234375,36722,28.446810318613352,1013.2490460093603,0,,,,N/A,False
2024-04-02T10:51:42,0.7310073042999999,-0.15852449724999998,9.889535805799998,0.04260785036431157,-0.004886921905584123,-0.040317105721069016,0.007420000000000001,0.23814000000000002,-0.19656000000000004,20.5,1,567,427,766,2232,31.1161328125,38182,28.346631351714755,1013.2465813990743,0,,,,N/A,False
2024-04-02T10:51:42,0.7304090986499999,-0.1459621786,9.999007439749999,0.043676864531158106,-0.001069014166846527,-0.03772092845872745,0.005180000000000001,0.23282000000000003,-0.18774000000000002,20.5,1,567,427,766,2232,31.1161328125,38182,28.346631351714755,1013.2465813990743,0,,,,N/A,False
2024-04-02T10:51:42,0.6771687957999999,-0.13220344865,10.087541875949999,0.041844268816564056,-0.009621127501618741,-0.04001167310197001,0.0037800000000000004,0.23254000000000002,-0.18956000000000003,20.5,1,567,427,766,2232,31.1782421875,39877,28.24017299265632,1013.2530619231025,0,,,,N/A,False
2024-04-02T10:51:42,0.7238288365,-0.16809578764999997,9.890732217099998,0.04596760917440065,-0.0038179077387375964,-0.038942658935123484,0.009100000000000002,0.24178000000000002,-0.18676,20.5,1,567,427,766,2232,31.1782421875,39877,28.24017299265632,1013.2530619231025,0,,,,N/A,False
2024-04-02T10:51:42,0.7082754896000001,-0.1304088317,10.02652489965,0.04230241774521256,0.0,-0.03924809155422249,0.0037800000000000004,0.2303,-0.18956000000000003,20.5,0,568,428,768,2234,31.1782421875,39877,28.24017299265632,1013.2530619231025,0,,,,N/A,False
2024-04-02T10:51:42,0.71605216305,-0.1519442351,9.9696953629,0.04948008429403925,-0.0024434609527920616,-0.039553524173321496,0.013020000000000002,0.23590000000000003,-0.18676,20.5,0,568,428,768,2234,31.2348828125,41361,28.133310527556613,1013.254164920739,0,,,,N/A,False
2024-04-02T10:51:42,0.7256234534499999,-0.11485548479999999,9.934401229549998,0.04123340357836604,-0.004276056667386108,-0.03726277953007894,0.0035000000000000005,0.23282000000000003,-0.18858000000000003,20.5,0,568,428,768,2234,31.2348828125,41361,28.133310527556613,1013.254164920739,0,,,,N/A,False
2024-04-02T10:51:42,0.705882667,-0.14057832774999998,10.06122082735,0.038484510006474966,-0.00015271630954950385,-0.036193765363232405,0.0007000000000000001,0.23282000000000003,-0.18662,20.5,0,568,428,768,2234,31.2860546875,42916,28.031623996905658,1013.2552854092504,0,,,,N/A,False
2024-04-02T10:51:42,0.7226324252,-0.13459627124999998,9.837491914249998,0.03726277953007894,0.00015271630954950385,-0.03390302071998985,0.006300000000000001,0.23646000000000003,-0.18914,20.5,0,568,428,768,2234,31.2860546875,42916,28.031623996905658,1013.2552854092504,0,,,,N/A,False
2024-04-02T10:51:42,0.7615157924499998,-0.08075776274999999,9.847661410299999,0.04581489286485116,-0.004886921905584123,-0.04230241774521256,0.006860000000000001,0.23338000000000003,-0.18368,20.5,0,568,428,768,2234,31.2860546875,42916,28.031623996905658,1013.2552854092504,0,,,,N/A,False
2024-04-02T10:51:42,0.71605216305,-0.15493526335,10.02772131095,0.04214970143566306,-0.001069014166846527,-0.037110063220529434,0.0054600000000000004,0.23562000000000002,-0.1918,20.5,0,568,428,768,2234,31.3329296875,44312,27.91848682803176,1013.2475608460604,0,,,,N/A,False
2024-04-02T10:51:42,0.7322037156000001,-0.13938191645,10.01934643185,0.04046982203061852,0.00015271630954950385,-0.03802636107782646,0.007980000000000001,0.23142000000000001,-0.19516000000000003,20.5,0,568,428,768,2234,31.3329296875,44312,27.91848682803176,1013.2475608460604,0,,,,N/A,False
2024-04-02T10:51:42,0.7226324252,-0.10348957745,9.976873830699999,0.041844268816564056,-0.003207042500539581,-0.038179077387375956,0.004900000000000001,0.2247,-0.18466000000000002,21.5,0,568,428,768,2234,31.3329296875,44312,27.799526531361792,1013.2478106663222,0,,,,N/A,False
2024-04-02T10:51:43,0.7124629291499999,-0.15493526335,9.877571692799998,0.0433714319120591,-0.003207042500539581,-0.038637226316024474,0.009940000000000001,0.23450000000000004,-0.18606000000000003,21.5,0,569,429,771,2242,31.3758984375,46002,27.799526531361792,1013.2478106663222,0,,,,N/A,False
2024-04-02T10:51:43,0.7010970218,-0.13818550515,9.841679353799998,0.04596760917440065,-0.0035124751196385882,-0.04077525464971753,0.00266,0.23394000000000004,-0.2009,20.5,0,569,429,771,2242,31.415546875,47317,27.697063883807147,1013.2462114952644,0,,,,N/A,False
2024-04-02T10:51:43,0.7423732116499998,-0.15433705769999997,9.853643466800001,0.043676864531158106,-0.002138028333693054,-0.038637226316024474,0.00406,0.23226000000000002,-0.19264,21.5,0,569,429,771,2242,31.415546875,47317,27.697063883807147,1013.2462114952644,0,,,,N/A,False
2024-04-02T10:51:43,0.7322037156000001,-0.16271193679999998,9.990632560649999,0.04596760917440065,-0.0056505034533316425,-0.04153883619746505,0.006580000000000001,0.23394000000000004,-0.1869,21.5,0,569,429,771,2242,31.415546875,47317,27.697063883807147,1013.2462114952644,0,,,,N/A,False
2024-04-02T10:51:43,0.7453642399,-0.17647066675,10.006185907549998,0.04321871560250959,-0.0024434609527920616,-0.040317105721069016,0.005180000000000001,0.23674,-0.17920000000000003,21.5,0,569,429,771,2242,31.4534375,48542,27.588953873682264,1013.2417271643902,0,,,,N/A,False
2024-04-02T10:51:43,0.7387839777499999,-0.15373885204999999,9.8680004024,0.04886921905584123,-0.002138028333693054,-0.036193765363232405,0.01974,0.23646000000000003,-0.19124000000000002,20.5,0,569,429,771,2242,31.4534375,48542,27.588953873682264,1013.2417271643902,0,,,,N/A,False
2024-04-02T10:51:43,0.7100701065499999,-0.15074782379999999,10.024730282699998,0.039706240482871004,-0.0018325957145940463,-0.04123340357836604,-0.0021000000000000003,0.23310000000000003,-0.19558,20.5,0,569,429,771,2242,31.4895703125,49773,27.497437391795664,1013.2451458889507,0,,,,N/A,False
2024-04-02T10:51:43,0.7046862557,-0.13818550515,9.8273224182,0.04673119072214818,-0.0022907446432425577,-0.038179077387375956,0.01666,0.23674,-0.19502,21.5,0,569,429,771,2242,31.4895703125,49773,27.497437391795664,1013.2451458889507,0,,,,N/A,False
2024-04-02T10:51:43,0.69930240485,-0.1471585899,9.92841917305,0.04214970143566306,0.00015271630954950385,-0.03787364476827696,0.009380000000000001,0.23226000000000002,-0.17220000000000002,21.5,0,569,429,771,2242,31.4895703125,49773,27.497437391795664,1013.2451458889507,0,,,,N/A,False
2024-04-02T10:51:43,0.7220342195499999,-0.16151552549999998,10.0462656861,0.04703662334124718,-0.0024434609527920616,-0.03695734691097993,0.009940000000000001,0.22890000000000005,-0.18424000000000001,21.5,0,569,429,771,2242,31.5253125,51161,27.389273928393088,1013.2515157142844,0,,,,N/A,False
2024-04-02T10:51:43,0.7459624455499999,-0.14536397295,10.00498949625,0.04260785036431157,-0.0003054326190990077,-0.041080687268816536,0.008260000000000002,0.24374,-0.17416000000000004,20.5,0,571,431,774,2251,31.5253125,51161,27.389273928393088,1013.2515157142844,0,,,,N/A,False
2024-04-02T10:51:43,0.7537391189999999,-0.1471585899,9.9732845968,0.038331793696925465,-0.004886921905584123,-0.036804630601430424,0.009100000000000002,0.23758,-0.19446000000000002,20.5,0,571,431,774,2251,31.559296875,52433,27.28658431978669,1013.2585992563277,0,,,,N/A,False
2024-04-02T10:51:43,0.7351947438499999,-0.10947163395000001,9.97029356855,0.0435241482216086,-0.0036651914291880926,-0.039706240482871004,0.013300000000000001,0.23674,-0.19712000000000002,21.5,0,571,431,774,2251,31.559296875,52433,27.28658431978669,1013.2585992563277,0,,,,N/A,False
2024-04-02T10:51:44,0.69930240485,-0.11605189609999998,9.848259615949999,0.04566217655530165,-0.004581489286485115,-0.038484510006474966,0.011620000000000002,0.23674,-0.1869,21.5,0,571,431,774,2251,31.559296875,52433,27.28658431978669,1013.2585992563277,0,,,,N/A,False
2024-04-02T10:51:44,0.7298108929999999,-0.15493526335,9.906285564,0.04001167310197001,-0.005803219762881146,-0.036804630601430424,0.013300000000000001,0.2373,-0.19586,20.5,0,571,431,774,2251,31.5915234375,53599,27.18381250567954,1013.257406174699,0,,,,N/A,False
2024-04-02T10:51:44,0.7513462964,-0.1746760498,9.9242317335,0.04703662334124718,-0.0035124751196385882,-0.03787364476827696,-0.00042,0.22946,-0.19110000000000002,21.5,0,571,431,774,2251,31.5915234375,53599,27.18381250567954,1013.257406174699,0,,,,N/A,False
2024-04-02T10:51:44,0.7597211755,-0.14177473905,9.9936235889,0.04413501345980661,-0.003054326190990077,-0.039400807863771994,0.011340000000000001,0.23506000000000002,-0.19446000000000002,21.5,0,571,431,774,2251,31.621015625,54711,27.086422653050843,1013.2481358940314,0,,,,N/A,False
2024-04-02T10:51:44,0.7094719009,-0.13698909385,9.7914300792,0.0435241482216086,-0.0024434609527920616,-0.036499197982331415,0.0071400000000000005,0.23506000000000002,-0.1897,21.5,0,571,431,774,2251,31.621015625,54711,27.086422653050843,1013.2481358940314,0,,,,N/A,False
2024-04-02T10:51:44,0.7465606511999999,-0.18245272324999998,10.00259667365,0.04428772976935611,-0.0018325957145940463,-0.03787364476827696,0.007980000000000001,0.23422000000000004,-0.1897,21.5,0,571,431,774,2251,31.621015625,54711,27.086422653050843,1013.2481358940314,0,,,,N/A,False
2024-04-02T10:51:44,0.72323063085,-0.12263215824999998,9.9732845968,0.041691552507014555,-0.0016798794050445422,-0.041080687268816536,0.008260000000000002,0.23422000000000004,-0.1974,21.5,0,571,431,774,2251,31.6485546875,55870,26.994469662195588,1013.2428576358999,0,,,,N/A,False
2024-04-02T10:51:44,0.7375875664499998,-0.14177473905,9.8093762487,0.04703662334124718,-0.0012217304763960308,-0.04016438941151951,-0.00014000000000000001,0.24038,-0.19572000000000003,21.5,0,574,434,779,2263,31.6485546875,55870,26.994469662195588,1013.2428576358999,0,,,,N/A,False
2024-04-02T10:51:44,0.7274180704000001,-0.1292124204,9.9206424996,0.041386119887915546,-0.0054977871437821395,-0.03726277953007894,-0.004340000000000001,0.2373,-0.20146,21.5,0,574,434,779,2263,31.6753125,57118,26.891432329551005,1013.2578784633209,0,,,,N/A,False
2024-04-02T10:51:44,0.6927221427,-0.30448667585,9.8799645154,0.04230241774521256,-0.005345070834232635,-0.038637226316024474,0.004900000000000001,0.24346000000000004,-0.19698000000000002,21.5,0,574,434,779,2263,31.6753125,57118,26.891432329551005,1013.2578784633209,0,,,,N/A,False
2024-04-02T10:51:44,0.72083780825,-0.14356935599999998,9.823134978649998,0.04596760917440065,-0.0019853120241435504,-0.038179077387375956,0.0009800000000000002,0.23562000000000002,-0.19096000000000002,21.5,0,574,434,779,2263,31.6753125,57118,26.891432329551005,1013.2578784633209,0,,,,N/A,False
2024-04-02T10:51:44,0.7268198647499999,-0.11306086784999998,9.98225768155,0.039400807863771994,-0.00015271630954950385,-0.03512475119638588,0.010500000000000002,0.23002,-0.1869,21.5,0,574,434,779,2263,31.7005078125,58222,26.81046248468096,1013.2523545221089,0,,,,N/A,False
2024-04-02T10:51:44,0.7268198647499999,-0.11844471869999999,9.88893760015,0.04673119072214818,-0.0003054326190990077,-0.038331793696925465,-0.0012600000000000003,0.22918000000000002,-0.19152000000000002,21.5,0,574,434,779,2263,31.7005078125,58222,26.81046248468096,1013.2523545221089,0,,,,N/A,False
2024-04-02T10:51:44,0.69930240485,-0.1280160091,9.808179837399999,0.04703662334124718,-0.0056505034533316425,-0.03588833274413341,0.0029400000000000003,0.23366000000000003,-0.19572000000000003,21.5,0,574,434,779,2263,31.72453125,59244,26.729437041806843,1013.2395135553821,0,,,,N/A,False
2024-04-02T10:51:45,0.7274180704000001,-0.12981062605,9.99661461715,0.040317105721069016,-0.00473420559603462,-0.03726277953007894,-0.006860000000000001,0.23282000000000003,-0.19138000000000002,21.5,0,574,434,779,2263,31.72453125,59244,26.729437041806843,1013.2395135553821,0,,,,N/A,False
2024-04-02T10:51:45,0.693918554,-0.08554340794999998,10.04985492,0.03924809155422249,-0.007177666548826681,-0.04092797095926703,-0.00322,0.23562000000000002,-0.18480000000000002,21.5,0,574,434,779,2263,31.7497265625,60259,26.637492385084137,1013.2339828617539,0,,,,N/A,False
2024-04-02T10:51:45,0.68015982405,-0.12023933564999999,9.9086783866,0.04214970143566306,-0.00045814892864851157,-0.039553524173321496,-0.00014000000000000001,0.23394000000000004,-0.19152000000000002,21.5,1,576,436,783,2275,31.7497265625,60259,26.637492385084137,1013.2339828617539,0,,,,N/A,False
2024-04-02T10:51:45,0.73280192125,-0.14356935599999998,10.0534441539,0.04321871560250959,-0.0018325957145940463,-0.03924809155422249,0.00574,0.23562000000000002,-0.18368,21.5,1,576,436,783,2275,31.772578125,61310,26.55093416774933,1013.2318083018488,0,,,,N/A,False
2024-04-02T10:51:45,0.6903293201,-0.13339985995,9.87218784195,0.041996985126113565,-0.0022907446432425577,-0.04046982203061852,-0.00322,0.22526000000000002,-0.18480000000000002,21.5,1,576,436,783,2275,31.772578125,61310,26.55093416774933,1013.2318083018488,0,,,,N/A,False
2024-04-02T10:51:45,0.7082754896000001,-0.14356935599999998,9.839286531199999,0.047952921198544204,-0.0022907446432425577,-0.039553524173321496,-0.00574,0.23310000000000003,-0.19194000000000003,21.5,1,576,436,783,2275,31.7938671875,62583,26.464296875807488,1013.2288730736294,0,,,,N/A,False
2024-04-02T10:51:45,0.7172485743499999,-0.13160524299999998,10.012167964049999,0.04077525464971753,0.00015271630954950385,-0.03924809155422249,-0.004900000000000001,0.22946,-0.19684000000000004,21.5,1,576,436,783,2275,31.7938671875,62583,26.464296875807488,1013.2288730736294,0,,,,N/A,False
2024-04-02T10:51:45,0.7345965381999999,-0.12143574694999999,9.923035322199999,0.04214970143566306,-0.004123340357836604,-0.037110063220529434,0.0007000000000000001,0.23114,-0.18802000000000002,21.5,1,576,436,783,2275,31.813984375,63430,26.388646525167832,1013.2258167951466,0,,,,N/A,False
2024-04-02T10:51:45,0.70887369525,-0.1292124204,10.0235338714,0.04382958084070761,-0.0068722339297276735,-0.038637226316024474,-0.00882,0.23058,-0.1659,21.5,1,576,436,783,2275,31.813984375,63430,26.388646525167832,1013.2258167951466,0,,,,N/A,False
2024-04-02T10:51:45,0.7393821834,-0.13220344865,9.906285564,0.04627304179349966,-0.00473420559603462,-0.03451388595818787,-0.006860000000000001,0.22638000000000003,-0.18088,20.5,1,576,436,783,2275,31.833515625,64546,26.296442621990067,1013.2235985933287,0,,,,N/A,False
2024-04-02T10:51:45,0.7339983325499999,-0.10229316614999999,10.0163554036,0.038179077387375956,0.0016798794050445422,-0.03726277953007894,0.0015400000000000001,0.23198000000000002,-0.1862,21.5,0,579,439,788,2288,31.833515625,64546,26.296442621990067,1013.2235985933287,0,,,,N/A,False
2024-04-02T10:51:46,0.71784678,-0.1112662509,10.13539832795,0.04123340357836604,-0.0013744467859455349,-0.039095375244672985,-0.0021000000000000003,0.23814000000000002,-0.19026,20.5,0,579,439,788,2288,31.84953125,65346,26.20952389212432,1013.2264195561019,0,,,,N/A,False
2024-04-02T10:51:46,0.7393821834,-0.15493526335,9.985846915449999,0.0474947722698957,0.0,-0.03802636107782646,0.01246,0.24318000000000004,-0.18732000000000001,21.5,0,579,439,788,2288,31.84953125,65346,26.20952389212432,1013.2264195561019,0,,,,N/A,False
2024-04-02T10:51:46,0.7645068207,-0.16271193679999998,10.004391290600001,0.04123340357836604,-0.0006108652381980154,-0.03588833274413341,-0.0029400000000000003,0.23982000000000003,-0.1897,21.5,0,579,439,788,2288,31.861640625,66374,26.13886686991289,1013.2192497577628,0,,,,N/A,False
2024-04-02T10:51:46,0.7118647235,-0.179461695,10.0223374601,0.04459316238845512,-0.00595593607243065,-0.040317105721069016,0.00042,0.23870000000000002,-0.18228000000000003,21.5,0,579,439,788,2288,31.861640625,66374,26.13886686991289,1013.2192497577628,0,,,,N/A,False
2024-04-02T10:51:46,0.72083780825,-0.1292124204,10.077970585549998,0.04703662334124718,-0.00473420559603462,-0.038789942625573975,0.0021000000000000003,0.2373,-0.19222000000000003,21.5,0,579,439,788,2288,31.861640625,66374,26.13886686991289,1013.2192497577628,0,,,,N/A,False
2024-04-02T10:51:46,0.7094719009,-0.14237294469999998,10.008578730149999,0.04260785036431157,-0.005345070834232635,-0.04001167310197001,0.0015400000000000001,0.23198000000000002,-0.18424000000000001,21.5,0,579,439,788,2288,31.8719921875,67274,26.06259854221665,1013.2253938718188,0,,,,N/A,False
2024-04-02T10:51:46,0.7214360139,-0.13160524299999998,9.959525866849997,0.043676864531158106,-0.007788531787024696,-0.03588833274413341,0.0021000000000000003,0.23954000000000003,-0.19250000000000003,21.5,0,579,439,788,2288,31.8719921875,67274,26.06259854221665,1013.2253938718188,0,,,,N/A,False
2024-04-02T10:51:46,0.6831508522999998,-0.14775679555,9.878169898449999,0.04657847441259867,-0.006566801310628666,-0.038789942625573975,0.00966,0.23618000000000003,-0.19194000000000003,21.5,0,579,439,788,2288,31.88234375,68198,25.99187109802019,1013.2243415491264,0,,,,N/A,False
2024-04-02T10:51:46,0.7525427077,-0.15433705769999997,10.0115697584,0.039553524173321496,0.0015271630954950385,-0.03665191429188092,-0.00266,0.23198000000000002,-0.20034000000000002,21.5,1,581,440,792,2297,31.88234375,68198,25.99187109802019,1013.2243415491264,0,,,,N/A,False
2024-04-02T10:51:46,0.6951149652999999,-0.1351944769,9.8249295956,0.04505131131710364,0.0016798794050445422,-0.036804630601430424,0.006860000000000001,0.23366000000000003,-0.1897,21.5,1,581,440,792,2297,31.88234375,68198,25.99187109802019,1013.2243415491264,0,,,,N/A,False
2024-04-02T10:51:46,0.7052844613499999,-0.14117653339999997,9.888339394499999,0.03527746750593539,-0.0012217304763960308,-0.03772092845872745,0.00322,0.22806000000000004,-0.18312,21.5,1,581,440,792,2297,31.8946484375,69092,25.91583131816436,1013.2246853993867,0,,,,N/A,False
2024-04-02T10:51:46,0.7651050263499999,-0.1052841944,10.021141048799999,0.04306599929296009,-0.004581489286485115,-0.041996985126113565,0.017220000000000003,0.24038,-0.2058,21.5,1,581,440,792,2297,31.8946484375,69092,25.91583131816436,1013.2246853993867,0,,,,N/A,False
2024-04-02T10:51:46,0.7441678286,-0.09571290399999999,9.990632560649999,0.0474947722698957,-0.005803219762881146,-0.04046982203061852,0.006860000000000001,0.23506000000000002,-0.19222000000000003,21.5,1,581,440,792,2297,31.9065625,70125,25.828806786106227,1013.2315858415787,0,,,,N/A,False
2024-04-02T10:51:47,0.7405785947,-0.17288143285000002,9.9828558872,0.040622538340168025,0.0012217304763960308,-0.04046982203061852,0.0018200000000000002,0.22722000000000003,-0.19306000000000004,21.5,1,581,440,792,2297,31.9065625,70125,25.828806786106227,1013.2315858415787,0,,,,N/A,False
2024-04-02T10:51:47,0.7621139981,-0.16271193679999998,10.051649536949999,0.040622538340168025,-0.005345070834232635,-0.040317105721069016,0.0054600000000000004,0.22946,-0.18998,21.5,1,581,440,792,2297,31.9065625,70125,25.828806786106227,1013.2315858415787,0,,,,N/A,False
2024-04-02T10:51:47,0.6825526466499999,-0.15373885204999999,9.97627562505,0.043982297150257116,-0.004276056667386108,-0.039400807863771994,-0.0012600000000000003,0.23282000000000003,-0.18270000000000003,21.5,1,581,440,792,2297,31.921796875,70832,25.769558562296027,1013.2313245791016,0,,,,N/A,False
2024-04-02T10:51:47,0.7094719009,-0.11246266220000001,10.024730282699998,0.04382958084070761,-0.0054977871437821395,-0.041386119887915546,0.009940000000000001,0.23394000000000004,-0.18032,21.5,1,581,440,792,2297,31.921796875,70832,25.769558562296027,1013.2313245791016,0,,,,N/A,False
2024-04-02T10:51:47,0.6831508522999998,-0.16450655374999998,9.9732845968,0.04123340357836604,-0.003970624048287101,-0.04489859500755413,0.0071400000000000005,0.23898000000000003,-0.19306000000000004,21.5,0,584,443,797,2311,31.9356640625,71553,25.688261147210056,1013.2306245064289,0,,,,N/A,False
2024-04-02T10:51:47,0.7525427077,-0.11605189609999998,10.097113166349997,0.04718933965079669,-0.0015271630954950385,-0.04153883619746505,0.007980000000000001,0.23282000000000003,-0.17976000000000003,21.5,0,584,443,797,2311,31.9356640625,71553,25.688261147210056,1013.2306245064289,0,,,,N/A,False
2024-04-02T10:51:47,0.6879364974999999,-0.1734796385,9.9888379437,0.0013744467859455349,0.0007635815477475193,-0.039095375244672985,0.00854,0.23422000000000004,-0.18536000000000002,21.5,0,584,443,797,2311,31.9356640625,71553,25.688261147210056,1013.2306245064289,0,,,,N/A,False
2024-04-02T10:51:47,0.71126651785,-0.14416756165,10.033105161799998,0.04016438941151951,-0.003054326190990077,-0.038331793696925465,0.009940000000000001,0.23394000000000004,-0.19432000000000002,21.5,0,584,443,797,2311,31.947578125,72227,25.612342616576544,1013.2303264062197,0,,,,N/A,False
2024-04-02T10:51:47,0.69690958225,-0.11665010174999998,9.8057870148,0.04214970143566306,-0.005039638215133627,-0.03695734691097993,0.00266,0.23366000000000003,-0.16716000000000003,20.5,0,584,443,797,2311,31.947578125,72227,25.612342616576544,1013.2303264062197,0,,,,N/A,False
2024-04-02T10:51:47,0.73280192125,-0.11066804524999999,9.8799645154,0.04413501345980661,-0.0013744467859455349,-0.03924809155422249,-0.0015400000000000001,0.23450000000000004,-0.18802000000000002,21.5,0,584,443,797,2311,31.956953125,73421,25.541749845594683,1013.23127120398,0,,,,N/A,False
2024-04-02T10:51:47,0.7184449856499999,-0.11485548479999999,9.884750160599998,0.041080687268816536,-0.00015271630954950385,-0.038179077387375956,0.00406,0.23282000000000003,-0.1778,21.5,0,584,443,797,2311,31.956953125,73421,25.541749845594683,1013.23127120398,0,,,,N/A,False
2024-04-02T10:51:47,0.7124629291499999,-0.14237294469999998,9.89013401145,0.04291328298341058,-0.0033597588100890844,-0.038179077387375956,0.01106,0.23450000000000004,-0.19194000000000003,21.5,0,584,443,797,2311,31.9665234375,73935,25.47120582282621,1013.2217395796222,0,,,,N/A,False
2024-04-02T10:51:47,0.7124629291499999,-0.15014961815,9.981061270249999,0.038789942625573975,-0.004123340357836604,-0.04230241774521256,-0.004900000000000001,0.22974,-0.19068000000000002,21.5,0,584,443,797,2311,31.9665234375,73935,25.47120582282621,1013.2217395796222,0,,,,N/A,False
2024-04-02T10:51:48,0.7022934331,-0.14416756165,10.0941221381,0.04260785036431157,-0.0044287729769356115,-0.038484510006474966,0.00322,0.23254000000000002,-0.18256000000000003,21.5,0,586,445,801,2323,31.9762890625,74721,25.411670026949714,1013.2233225593701,0,,,,N/A,False
2024-04-02T10:51:48,0.7142575461,-0.1328016543,10.0474620974,0.04123340357836604,-0.007788531787024696,-0.04214970143566306,0.007980000000000001,0.23394000000000004,-0.17388000000000003,21.5,0,586,445,801,2323,31.9762890625,74721,25.411670026949714,1013.2233225593701,0,,,,N/A,False
2024-04-02T10:51:48,0.6819544409999999,-0.13339985995,9.975079213749998,0.04276056667386108,-0.005803219762881146,-0.03634648167278191,-0.0012600000000000003,0.23562000000000002,-0.17626000000000003,21.5,0,586,445,801,2323,31.9762890625,74721,25.411670026949714,1013.2233225593701,0,,,,N/A,False
2024-04-02T10:51:48,0.7202396026000001,-0.1363908882,9.9876415324,0.039706240482871004,-0.0036651914291880926,-0.03634648167278191,0.00042,0.23534000000000002,-0.17696,21.5,0,586,445,801,2323,31.9825390625,75524,25.34640849099045,1013.2227520706413,0,,,,N/A,False
2024-04-02T10:51:48,0.7453642399,-0.0083748791,9.862616551549998,0.04291328298341058,-0.0016798794050445422,-0.04077525464971753,0.0029400000000000003,0.23254000000000002,-0.18312,21.5,0,586,445,801,2323,31.9825390625,75524,25.34640849099045,1013.2227520706413,0,,,,N/A,False
2024-04-02T10:51:48,0.7136593404499999,-0.13339985995,9.963713306399999,0.039095375244672985,-0.0036651914291880926,-0.03512475119638588,0.00966,0.23226000000000002,-0.18172000000000002,21.5,0,586,445,801,2323,31.9876171875,76482,25.286561071850144,1013.2238628182546,0,,,,N/A,False
2024-04-02T10:51:48,0.69690958225,-0.13100703735,9.861420140249999,0.04688390703169768,-0.0015271630954950385,-0.03772092845872745,-0.0009800000000000002,0.23142000000000001,-0.18172000000000002,21.5,0,586,445,801,2323,31.9876171875,76482,25.286561071850144,1013.2238628182546,0,,,,N/A,False
2024-04-02T10:51:48,0.7220342195499999,-0.18364913454999998,9.900303507499999,0.04505131131710364,-0.0035124751196385882,-0.041844268816564056,0.0161,0.22918000000000002,-0.18998,21.5,0,586,445,801,2323,31.9926953125,77041,25.210321175054663,1013.223174127856,0,,,,N/A,False
2024-04-02T10:51:48,0.7292126873499999,-0.12382856954999999,10.009176935799998,0.03924809155422249,-0.0036651914291880926,-0.03634648167278191,0.0009800000000000002,0.22638000000000003,-0.18592000000000003,21.5,0,586,445,801,2323,31.9926953125,77041,25.210321175054663,1013.223174127856,0,,,,N/A,False
2024-04-02T10:51:48,0.71605216305,-0.11306086784999998,10.042676452199998,0.04489859500755413,-0.0013744467859455349,-0.04046982203061852,-0.00266,0.23114,-0.1904,21.5,1,589,447,806,2336,32.0008984375,78038,25.1507704640281,1013.2204004098871,0,,,,N/A,False
2024-04-02T10:51:48,0.7124629291499999,-0.014955141249999998,10.033703367449998,0.04077525464971753,-0.0025961772623415654,-0.04046982203061852,-0.00602,0.23310000000000003,-0.18732000000000001,21.5,1,589,447,806,2336,32.0008984375,78038,25.1507704640281,1013.2204004098871,0,,,,N/A,False
2024-04-02T10:51:48,0.70887369525,-0.12562318649999998,10.09113110985,0.041080687268816536,-0.0012217304763960308,-0.039858956792420505,-0.00882,0.23646000000000003,-0.17752,21.5,1,589,447,806,2336,32.010859375,78693,25.074976610953748,1013.2187026792683,0,,,,N/A,False
2024-04-02T10:51:49,0.7543373246499998,-0.15254244074999998,9.979266653299998,0.0474947722698957,0.03604104905368291,-0.04001167310197001,0.009940000000000001,0.23618000000000003,-0.18354,21.5,1,589,447,806,2336,32.010859375,78693,25.074976610953748,1013.2187026792683,0,,,,N/A,False
2024-04-02T10:51:49,0.7238288365,-0.14955141249999998,10.0031948793,0.04276056667386108,0.0006108652381980154,-0.039706240482871004,-0.0029400000000000003,0.2373,-0.17976000000000003,21.5,1,589,447,806,2336,32.02140625,79285,25.0101949584786,1013.2251606800451,0,,,,N/A,False
2024-04-02T10:51:49,0.7531409133499999,-0.1339980656,10.046863891749998,0.04612032548395016,0.0,-0.039400807863771994,-0.007700000000000001,0.22890000000000005,-0.17962,21.5,1,589,447,806,2336,32.02140625,79285,25.0101949584786,1013.2251606800451,0,,,,N/A,False
2024-04-02T10:51:49,0.7435696229499998,-0.15373885204999999,10.043274657849999,0.0433714319120591,-0.004581489286485115,-0.041386119887915546,-0.00462,0.23394000000000004,-0.18508000000000002,21.5,1,589,447,806,2336,32.0352734375,79659,24.962081420773767,1013.2244540893026,0,,,,N/A,False
2024-04-02T10:51:49,0.7022934331,-0.1387837108,9.891330422749999,0.040317105721069016,-0.0070249502392771765,-0.036193765363232405,0.0012600000000000003,0.23422000000000004,-0.17360000000000003,21.5,0,592,450,811,2352,32.0352734375,79659,24.962081420773767,1013.2244540893026,0,,,,N/A,False
2024-04-02T10:51:49,0.7345965381999999,-0.14117653339999997,10.007382318849999,0.039858956792420505,-0.0035124751196385882,-0.04123340357836604,0.0012600000000000003,0.2373,-0.18564000000000003,21.5,0,592,450,811,2352,32.0352734375,79659,24.962081420773767,1013.2244540893026,0,,,,N/A,False
2024-04-02T10:51:49,0.69092752575,-0.14356935599999998,9.811769071299999,0.04459316238845512,-0.00473420559603462,-0.03451388595818787,0.00406,0.24318000000000004,-0.18676,21.5,0,592,450,811,2352,32.0493359375,80189,24.913997045776657,1013.2222666146885,0,,,,N/A,False
2024-04-02T10:51:49,0.7202396026000001,-0.18424734019999997,9.92243711655,0.039706240482871004,-0.00595593607243065,-0.04016438941151951,0.0035000000000000005,0.22890000000000005,-0.18662,21.5,0,592,450,811,2352,32.0493359375,80189,24.913997045776657,1013.2222666146885,0,,,,N/A,False
2024-04-02T10:51:49,0.7268198647499999,-0.1471585899,10.021141048799999,0.04657847441259867,-0.0018325957145940463,-0.039858956792420505,-0.00238,0.23366000000000003,-0.19348,21.5,0,592,450,811,2352,32.0622265625,80881,24.84946145113898,1013.2271587491449,0,,,,N/A,False
2024-04-02T10:51:49,0.72083780825,-0.1292124204,9.77767134925,0.04230241774521256,-0.004581489286485115,-0.03497203488683638,0.0012600000000000003,0.24318000000000004,-0.19824,21.5,0,592,450,811,2352,32.0622265625,80881,24.84946145113898,1013.2271587491449,0,,,,N/A,False
2024-04-02T10:51:49,0.7142575461,-0.12203395259999998,9.896116067949999,0.04230241774521256,-0.004581489286485115,-0.03588833274413341,0.00854,0.23926000000000003,-0.19684000000000004,21.5,0,592,450,811,2352,32.0622265625,80881,24.84946145113898,1013.2271587491449,0,,,,N/A,False
2024-04-02T10:51:49,0.7172485743499999,-0.11605189609999998,9.843473970749999,0.04657847441259867,-0.005803219762881146,-0.03726277953007894,0.0021000000000000003,0.23786000000000002,-0.18662,21.5,0,592,450,811,2352,32.07453125,81902,24.795821092807067,1013.2238935552391,0,,,,N/A,False
2024-04-02T10:51:49,0.71126651785,-0.16031911419999997,10.00977514145,0.0474947722698957,-0.0027488935718910697,-0.041844268816564056,0.0018200000000000002,0.24290000000000003,-0.19082000000000002,21.5,0,592,450,811,2352,32.07453125,81902,24.795821092807067,1013.2238935552391,0,,,,N/A,False
2024-04-02T10:51:50,0.7016952274499999,-0.11904292434999998,10.077970585549998,0.04673119072214818,-0.0003054326190990077,-0.038637226316024474,0.01022,0.24234000000000003,-0.17472000000000001,21.5,0,592,450,811,2352,32.0846875,82543,24.747491045889632,1013.2243114397883,0,,,,N/A,False
2024-04-02T10:51:50,0.74476603425,-0.15972090854999998,9.92363352785,0.04535674393620265,0.0035124751196385882,-0.038179077387375956,0.013580000000000002,0.23702,-0.18424000000000001,21.5,1,594,452,815,2363,32.0846875,82543,24.747491045889632,1013.2243114397883,0,,,,N/A,False
2024-04-02T10:51:50,0.7244270421499999,-0.1339980656,10.054042359550001,0.04321871560250959,-0.006719517620178169,-0.03756821214917795,0.00322,0.23254000000000002,-0.18284,21.5,1,594,452,815,2363,32.0958203125,82948,24.715609427210744,1013.2209274844407,0,,,,N/A,False
2024-04-02T10:51:50,0.7004988161499999,-0.16271193679999998,9.83390268035,0.04535674393620265,-0.005803219762881146,-0.040317105721069016,0.004900000000000001,0.23394000000000004,-0.18886,21.5,1,594,452,815,2363,32.0958203125,82948,24.715609427210744,1013.2209274844407,0,,,,N/A,False
2024-04-02T10:51:50,0.7561319416,-0.17766707805,9.999007439749999,0.04581489286485116,-0.0025961772623415654,-0.0357356164345839,0.008260000000000002,0.23758,-0.18494000000000002,21.5,1,594,452,815,2363,32.1051953125,83276,24.66724514713039,1013.23266391637,0,,,,N/A,False
2024-04-02T10:51:50,0.73280192125,-0.11665010174999998,10.00498949625,0.04520402762665314,-0.0033597588100890844,-0.038942658935123484,0.0071400000000000005,0.22442,-0.19082000000000002,21.5,1,594,452,815,2363,32.1051953125,83276,24.66724514713039,1013.23266391637,0,,,,N/A,False
2024-04-02T10:51:50,0.6999006105,-0.18843477974999998,10.061819032999999,0.04535674393620265,-0.00595593607243065,-0.038484510006474966,0.004900000000000001,0.23394000000000004,-0.18998,21.5,1,594,452,815,2363,32.1051953125,83276,24.66724514713039,1013.23266391637,0,,,,N/A,False
2024-04-02T10:51:50,0.7148557517499999,-0.16211373114999997,9.9493563708,0.04382958084070761,-0.0018325957145940463,-0.039706240482871004,0.0009800000000000002,0.22974,-0.17836000000000002,21.5,1,594,452,815,2363,32.1149609375,84274,24.608026541054016,1013.2306418871177,0,,,,N/A,False
2024-04-02T10:51:50,0.7196413969499998,-0.12143574694999999,9.927820967399999,0.03924809155422249,0.00015271630954950385,-0.036499197982331415,0.006860000000000001,0.24346000000000004,-0.18648,21.5,1,594,452,815,2363,32.1149609375,84274,24.608026541054016,1013.2306418871177,0,,,,N/A,False
2024-04-02T10:51:50,0.7046862557,-0.11545369045,10.060024416049998,0.039706240482871004,0.0007635815477475193,-0.03924809155422249,0.006860000000000001,0.22974,-0.18858000000000003,21.5,1,594,452,815,2363,32.1258984375,84527,24.576157837079165,1013.2287365687606,0,,,,N/A,False
2024-04-02T10:51:50,0.6957131709499998,-0.13160524299999998,10.09113110985,0.04016438941151951,-0.006108652381980154,-0.04046982203061852,0.0054600000000000004,0.23170000000000002,-0.17724,21.5,0,598,455,820,2378,32.1258984375,84527,24.576157837079165,1013.2287365687606,0,,,,N/A,False
2024-04-02T10:51:50,0.7316055099499998,-0.10408778309999998,10.036096190049998,0.04016438941151951,-0.0036651914291880926,-0.040317105721069016,0.004900000000000001,0.22862000000000005,-0.17556000000000002,21.5,0,598,455,820,2378,32.1258984375,84527,24.576157837079165,1013.2287365687606,0,,,,N/A,False
2024-04-02T10:51:50,0.7262216591,-0.13998012209999997,10.06361364995,0.04459316238845512,-0.008704829644321718,-0.03741549583962844,-0.00602,0.24150000000000002,-0.17934,21.5,0,598,455,820,2378,32.138203125,85296,24.53895109036018,1013.2200683156138,0,,,,N/A,False
2024-04-02T10:51:51,0.7274180704000001,-0.15613167464999997,9.9158568544,0.04535674393620265,-0.00595593607243065,-0.041691552507014555,0.009940000000000001,0.23954000000000003,-0.19082000000000002,21.5,0,598,455,820,2378,32.138203125,85296,24.53895109036018,1013.2200683156138,0,,,,N/A,False
2024-04-02T10:51:51,0.6987041992,-0.1890329854,10.03848901265,0.04459316238845512,0.0,-0.038179077387375956,0.008260000000000002,0.23618000000000003,-0.18088,21.5,0,598,455,820,2378,32.1544140625,85730,24.4857104519488,1013.221387993772,0,,,,N/A,False
2024-04-02T10:51:51,0.7298108929999999,-0.13758729949999998,9.865607579799999,0.04520402762665314,-0.004276056667386108,-0.036804630601430424,0.00042,0.23590000000000003,-0.1799,21.5,0,598,455,820,2378,32.1544140625,85730,24.4857104519488,1013.221387993772,0,,,,N/A,False
2024-04-02T10:51:51,0.7435696229499998,-0.16749758199999998,10.0103733471,0.04886921905584123,-0.0016798794050445422,-0.040317105721069016,0.00238,0.23618000000000003,-0.18354,21.5,0,598,455,820,2378,32.1544140625,85730,24.4857104519488,1013.221387993772,0,,,,N/A,False
2024-04-02T10:51:51,0.67537417885,-0.16869399329999998,10.00259667365,0.04489859500755413,-0.00595593607243065,-0.03634648167278191,0.005180000000000001,0.23338000000000003,-0.18228000000000003,21.5,0,598,455,820,2378,32.1700390625,86167,24.448773071538866,1013.2217481490131,0,,,,N/A,False
2024-04-02T10:51:51,0.7028916387499999,-0.14656038424999998,9.83629550295,0.04428772976935611,-0.0070249502392771765,-0.03497203488683638,0.0009800000000000002,0.24010000000000004,-0.18032,21.5,0,598,455,820,2378,32.1700390625,86167,24.448773071538866,1013.2217481490131,0,,,,N/A,False
2024-04-02T10:51:51,0.7351947438499999,-0.1292124204,9.954142015999999,0.040317105721069016,0.0003054326190990077,-0.036193765363232405,-0.0012600000000000003,0.24290000000000003,-0.17542000000000002,21.5,0,598,455,820,2378,32.1868359375,86521,24.422816213880743,1013.2258238286897,0,,,,N/A,False
2024-04-02T10:51:51,0.7124629291499999,-0.12861421474999998,9.887142983199999,0.039858956792420505,-0.001069014166846527,-0.03543018381548489,0.009380000000000001,0.23254000000000002,-0.17472000000000001,21.5,0,599,456,823,2386,32.1868359375,86521,24.422816213880743,1013.2258238286897,0,,,,N/A,False
2024-04-02T10:51:51,0.72083780825,-0.14057832774999998,9.83509909165,0.041386119887915546,-0.002901609881440573,-0.036193765363232405,-0.0007000000000000001,0.23534000000000002,-0.18032,21.5,0,599,456,823,2386,32.1868359375,86521,24.422816213880743,1013.2258238286897,0,,,,N/A,False
2024-04-02T10:51:51,0.7106683122,-0.1280160091,10.052845948249999,0.03588833274413341,-0.0018325957145940463,-0.039400807863771994,0.00854,0.23786000000000002,-0.18172000000000002,21.5,0,599,456,823,2386,32.1993359375,87146,24.391099248220613,1013.2264702761116,0,,,,N/A,False
2024-04-02T10:51:51,0.7184449856499999,-0.11545369045,9.88893760015,0.04413501345980661,-0.0027488935718910697,-0.03772092845872745,0.0015400000000000001,0.24374,-0.18284,21.5,0,599,456,823,2386,32.1993359375,87146,24.391099248220613,1013.2264702761116,0,,,,N/A,False
2024-04-02T10:51:51,0.7142575461,-0.12382856954999999,9.9110712092,0.039706240482871004,-0.004886921905584123,-0.03741549583962844,0.00322,0.23646000000000003,-0.18004000000000003,21.5,0,599,456,823,2386,32.2091015625,87781,24.364624213164166,1013.2208438228201,0,,,,N/A,False
2024-04-02T10:51:51,0.8913264184999999,-0.10827522265,9.97148997985,0.04306599929296009,-0.003054326190990077,-0.038484510006474966,0.009940000000000001,0.23282000000000003,-0.17024,21.5,0,599,456,823,2386,32.2091015625,87781,24.364624213164166,1013.2208438228201,0,,,,N/A,False
2024-04-02T10:51:51,0.7202396026000001,-0.12622139215,10.088738287249999,0.0433714319120591,-0.006108652381980154,-0.04001167310197001,0.010780000000000001,0.23842000000000002,-0.17892000000000002,21.5,0,599,456,823,2386,32.2091015625,87781,24.364624213164166,1013.2208438228201,0,,,,N/A,False
2024-04-02T10:51:52,0.6975077879,-0.12083754129999999,10.048658508699999,0.04092797095926703,-0.0022907446432425577,-0.039400807863771994,0.00462,0.23674,-0.18172000000000002,21.5,0,599,456,823,2386,32.21671875,87964,24.337992802351497,1013.2243025592803,0,,,,N/A,False
2024-04-02T10:51:52,0.7561319416,-0.12981062605,9.8751788702,0.04291328298341058,-0.0009162978572970231,-0.03741549583962844,-0.0012600000000000003,0.22666000000000003,-0.18914,21.5,0,599,456,823,2386,32.21671875,87964,24.337992802351497,1013.2243025592803,0,,,,N/A,False
2024-04-02T10:51:52,0.6927221427,-0.1304088317,9.958329455549999,0.041080687268816536,-0.005192354524683131,-0.036499197982331415,0.006300000000000001,0.23814000000000002,-0.1799,21.5,0,599,456,823,2386,32.2227734375,88518,24.30037232855537,1013.2234055916798,0,,,,N/A,False
2024-04-02T10:51:52,0.7100701065499999,-0.13998012209999997,9.909276592249999,0.04520402762665314,-0.00015271630954950385,-0.03924809155422249,0.0009800000000000002,0.23310000000000003,-0.18760000000000002,21.5,0,604,459,829,2403,32.2227734375,88518,24.30037232855537,1013.2234055916798,0,,,,N/A,False
2024-04-02T10:51:52,0.7561319416,-0.15732808594999997,9.886544777549998,0.039400807863771994,-0.0016798794050445422,-0.038637226316024474,-0.00014000000000000001,0.23422000000000004,-0.18900000000000003,21.5,0,604,459,829,2403,32.2294140625,89267,24.268241930195135,1013.2198667914121,0,,,,N/A,False
2024-04-02T10:51:52,0.71605216305,-0.09152546445000001,10.057033387799999,0.04214970143566306,-0.00473420559603462,-0.038179077387375956,-0.0007000000000000001,0.23002,-0.17248000000000002,21.5,0,604,459,829,2403,32.2294140625,89267,24.268241930195135,1013.2198667914121,0,,,,N/A,False
2024-04-02T10:51:52,0.7070790782999999,-0.13698909385,9.9218389109,0.039400807863771994,-0.0025961772623415654,-0.037110063220529434,-0.006580000000000001,0.22918000000000002,-0.18186000000000002,21.5,0,604,459,829,2403,32.233515625,89172,24.235929274462126,1013.2283750269811,0,,,,N/A,False
2024-04-02T10:51:52,0.7136593404499999,-0.14297115034999996,9.993025383249998,0.0433714319120591,0.03634648167278191,-0.03695734691097993,-0.00238,0.23198000000000002,-0.18074,21.5,0,604,459,829,2403,32.233515625,89172,24.235929274462126,1013.2283750269811,0,,,,N/A,False
2024-04-02T10:51:52,0.7579265585499999,-0.16331014244999997,9.85304526115,0.040317105721069016,-0.003054326190990077,-0.03634648167278191,0.008260000000000002,0.22750000000000004,-0.1778,21.5,0,604,459,829,2403,32.233515625,89172,24.235929274462126,1013.2283750269811,0,,,,N/A,False
2024-04-02T10:51:52,0.71605216305,-0.10348957745,9.87218784195,0.04520402762665314,-0.0054977871437821395,-0.03604104905368291,0.0015400000000000001,0.23758,-0.19306000000000004,21.5,0,604,459,829,2403,32.236640625,89837,24.20898576185313,1013.222686044063,0,,,,N/A,False
2024-04-02T10:51:52,0.71126651785,-0.14775679555,10.07438135165,0.04520402762665314,-0.0035124751196385882,-0.03756821214917795,0.0035000000000000005,0.2303,-0.17528000000000002,21.5,0,604,459,829,2403,32.236640625,89837,24.20898576185313,1013.222686044063,0,,,,N/A,False
2024-04-02T10:51:52,0.7034898444000001,-0.13938191645,9.93799046345,0.04382958084070761,-0.00473420559603462,-0.037110063220529434,0.0037800000000000004,0.23562000000000002,-0.16828000000000004,21.5,0,604,459,829,2403,32.2372265625,90706,24.18185861909025,1013.2182443354657,0,,,,N/A,False
2024-04-02T10:51:53,0.77108708285,-0.1363908882,10.119246775399999,0.04276056667386108,-0.003207042500539581,-0.04001167310197001,-0.0029400000000000003,0.23786000000000002,-0.18438000000000002,21.5,0,606,460,833,2415,32.2372265625,90706,24.18185861909025,1013.2182443354657,0,,,,N/A,False
2024-04-02T10:51:53,0.7531409133499999,-0.1052841944,9.99182897195,0.04505131131710364,-0.002138028333693054,-0.03756821214917795,-0.0015400000000000001,0.23534000000000002,-0.17920000000000003,21.5,0,606,460,833,2415,32.2372265625,90706,24.18185861909025,1013.2182443354657,0,,,,N/A,False
2024-04-02T10:51:53,0.7190431912999999,-0.14177473905,10.051649536949999,0.04016438941151951,-0.0007635815477475193,-0.03512475119638588,-0.0012600000000000003,0.23282000000000003,-0.1799,21.5,0,606,460,833,2415,32.2391796875,91196,24.154838357283282,1013.2214386970834,0,,,,N/A,False
2024-04-02T10:51:53,0.6999006105,-0.1471585899,9.835697297299998,0.04321871560250959,0.0022907446432425577,-0.037110063220529434,0.013300000000000001,0.23646000000000003,-0.1834,21.5,0,606,460,833,2415,32.2391796875,91196,24.154838357283282,1013.2214386970834,0,,,,N/A,False
2024-04-02T10:51:53,0.7393821834,-0.17527425545,9.843473970749999,0.04444044607890562,-0.0003054326190990077,-0.038637226316024474,-0.0007000000000000001,0.23366000000000003,-0.17920000000000003,21.5,0,606,460,833,2415,32.2423046875,91692,24.127910200597565,1013.2229496370237,0,,,,N/A,False
2024-04-02T10:51:53,0.7118647235,-0.1579262916,10.015757197949998,0.04260785036431157,-0.0044287729769356115,-0.039400807863771994,0.00462,0.23982000000000003,-0.17892000000000002,21.5,0,606,460,833,2415,32.2423046875,91692,24.127910200597565,1013.2229496370237,0,,,,N/A,False
2024-04-02T10:51:53,0.7363911551499999,-0.12023933564999999,10.09352393245,0.043676864531158106,-0.004581489286485115,-0.04092797095926703,0.0119,0.23338000000000003,-0.17514000000000002,21.5,0,606,460,833,2415,32.2423046875,91692,24.127910200597565,1013.2229496370237,0,,,,N/A,False
2024-04-02T10:51:53,0.7477570625,-0.17706887240000002,9.990034354999999,0.04046982203061852,-0.001069014166846527,-0.041996985126113565,0.0007000000000000001,0.23170000000000002,-0.17836000000000002,21.5,0,606,460,833,2415,32.244453125,91992,24.100914720834712,1013.2210633468018,0,,,,N/A,False
2024-04-02T10:51:53,0.7070790782999999,-0.15433705769999997,9.8739824589,0.03924809155422249,-0.0019853120241435504,-0.039858956792420505,0.017220000000000003,0.23226000000000002,-0.18676,21.5,0,606,460,833,2415,32.244453125,91992,24.100914720834712,1013.2210633468018,0,,,,N/A,False
2024-04-02T10:51:53,0.7202396026000001,-0.13339985995,9.92004429395,0.040622538340168025,-0.0033597588100890844,-0.036193765363232405,0.010780000000000001,0.23422000000000004,-0.18480000000000002,21.5,0,607,461,836,2424,32.247578125,92496,24.07399669607262,1013.2225742220888,0,,,,N/A,False
2024-04-02T10:51:53,0.7357929495,-0.11485548479999999,10.0295159279,0.04260785036431157,-0.004276056667386108,-0.03772092845872745,0.00406,0.23506000000000002,-0.17304000000000003,21.5,0,607,461,836,2424,32.247578125,92496,24.07399669607262,1013.2225742220888,0,,,,N/A,False
2024-04-02T10:51:53,0.7046862557,-0.11425727914999999,9.9038927414,0.04214970143566306,0.03787364476827696,-0.03802636107782646,0.012180000000000002,0.24010000000000004,-0.17444000000000004,21.5,0,607,461,836,2424,32.247578125,92496,24.07399669607262,1013.2225742220888,0,,,,N/A,False
2024-04-02T10:51:53,0.7465606511999999,-0.1280160091,10.021141048799999,0.04489859500755413,-0.002901609881440573,-0.04505131131710364,0.007980000000000001,0.23898000000000003,-0.18396,21.5,0,607,461,836,2424,32.249140625,92904,24.04696815592959,1013.2197295687332,0,,,,N/A,False
2024-04-02T10:51:53,0.7256234534499999,-0.13818550515,9.9469635482,0.04413501345980661,-0.003054326190990077,-0.03543018381548489,0.00238,0.23590000000000003,-0.19404000000000002,21.5,0,607,461,836,2424,32.249140625,92904,24.04696815592959,1013.2197295687332,0,,,,N/A,False
2024-04-02T10:51:53,0.7322037156000001,-0.1363908882,9.82433138995,0.04489859500755413,-0.005345070834232635,-0.038637226316024474,0.0015400000000000001,0.24346000000000004,-0.1841,21.5,0,607,461,836,2424,32.2485546875,93315,24.02521344475556,1013.2205713118205,0,,,,N/A,False
2024-04-02T10:51:54,0.69930240485,-0.13938191645,9.904490947049998,0.03726277953007894,-0.0012217304763960308,-0.03604104905368291,0.00266,0.24458000000000002,-0.1708,21.5,0,607,461,836,2424,32.2485546875,93315,24.02521344475556,1013.2205713118205,0,,,,N/A,False
2024-04-02T10:51:54,0.7489534737999999,-0.1292124204,9.927222761749999,0.0474947722698957,-0.0022907446432425577,-0.03665191429188092,0.009940000000000001,0.23002,-0.18032,21.5,0,607,461,836,2424,32.249921875,93729,23.992753850045005,1013.2192072538434,0,,,,N/A,False
2024-04-02T10:51:54,0.7657032319999999,-0.14895320685,9.85424167245,0.04306599929296009,-0.0003054326190990077,-0.03298672286269283,-0.00602,0.2373,-0.18564000000000003,21.5,0,607,461,836,2424,32.249921875,93729,23.992753850045005,1013.2192072538434,0,,,,N/A,False
2024-04-02T10:51:54,0.7489534737999999,-0.12442677519999999,9.92363352785,0.04627304179349966,-0.0015271630954950385,-0.03756821214917795,-0.0035000000000000005,0.23702,-0.17710000000000004,21.5,0,610,464,840,2438,32.249140625,94570,23.97099353744522,1013.2197295687332,0,,,,N/A,False
2024-04-02T10:51:54,0.7298108929999999,-0.14895320685,9.9110712092,0.041996985126113565,-0.0015271630954950385,-0.03787364476827696,0.007700000000000001,0.22890000000000005,-0.18942,21.5,0,610,464,840,2438,32.249140625,94570,23.97099353744522,1013.2197295687332,0,,,,N/A,False
2024-04-02T10:51:54,0.7345965381999999,-0.13339985995,9.79083187355,0.038942658935123484,-0.006108652381980154,-0.038331793696925465,0.0021000000000000003,0.24094000000000002,-0.17696,21.5,0,610,464,840,2438,32.249140625,94570,23.97099353744522,1013.2197295687332,0,,,,N/A,False
2024-04-02T10:51:54,0.6705885336499999,-0.11844471869999999,9.91286582615,0.043676864531158106,-0.0025961772623415654,-0.0355829001250344,-0.00042,0.23338000000000003,-0.18480000000000002,21.5,0,610,464,840,2438,32.2473828125,94995,23.938316651422866,1013.2132546145917,0,,,,N/A,False
2024-04-02T10:51:54,0.7070790782999999,-0.11425727914999999,9.961320483799998,0.043676864531158106,-0.0016798794050445422,-0.04123340357836604,-0.0054600000000000004,0.23366000000000003,-0.17878000000000002,21.5,0,610,464,840,2438,32.2473828125,94995,23.938316651422866,1013.2132546145917,0,,,,N/A,False
2024-04-02T10:51:54,0.7106683122,-0.1447657673,9.895517862299998,0.04642575810304917,-0.003207042500539581,-0.03527746750593539,0.006860000000000001,0.23086,-0.18536000000000002,21.5,0,610,464,840,2438,32.244453125,93959,23.900139325135328,1013.2138632395238,0,,,,N/A,False
2024-04-02T10:51:54,0.7070790782999999,-0.09332008139999999,10.034899778749999,0.0435241482216086,-0.0024434609527920616,-0.039706240482871004,0.0018200000000000002,0.24262000000000003,-0.16394000000000003,21.5,0,610,464,840,2438,32.244453125,93959,23.900139325135328,1013.2138632395238,0,,,,N/A,False
2024-04-02T10:51:54,0.6963113766000001,-0.12562318649999998,9.803394192199999,0.04230241774521256,-0.005192354524683131,-0.03390302071998985,0.0037800000000000004,0.23926000000000003,-0.17024,21.5,0,610,464,840,2438,32.244453125,93959,23.900139325135328,1013.2138632395238,0,,,,N/A,False
2024-04-02T10:51:54,0.6957131709499998,-0.1339980656,9.981659475899999,0.039858956792420505,-0.003970624048287101,-0.038179077387375956,0.006300000000000001,0.23786000000000002,-0.17514000000000002,21.5,0,610,464,840,2438,32.2423046875,94064,23.86745157187785,1013.2157495528608,0,,,,N/A,False
2024-04-02T10:51:54,0.70887369525,-0.1280160091,10.064211855599998,0.04505131131710364,-0.0056505034533316425,-0.03726277953007894,-0.015540000000000002,0.23534000000000002,-0.1764,21.5,0,610,464,840,2438,32.2423046875,94064,23.86745157187785,1013.2157495528608,0,,,,N/A,False
2024-04-02T10:51:55,0.7752745223999999,-0.12562318649999998,10.0666046782,0.03924809155422249,0.0003054326190990077,-0.0355829001250344,-0.004340000000000001,0.23898000000000003,-0.16758,21.5,1,611,465,844,2448,32.239765625,95070,23.82390463130092,1013.2187969776311,0,,,,N/A,False
2024-04-02T10:51:55,0.7250252477999999,-0.13758729949999998,10.07318494035,0.0476474885794452,-0.0035124751196385882,-0.04123340357836604,-0.006860000000000001,0.23842000000000002,-0.17486000000000002,21.5,1,611,465,844,2448,32.239765625,95070,23.82390463130092,1013.2187969776311,0,,,,N/A,False
2024-04-02T10:51:55,0.7172485743499999,-0.14955141249999998,9.999605645399999,0.04627304179349966,-0.001069014166846527,-0.04016438941151951,0.005180000000000001,0.24094000000000002,-0.17934,21.5,1,611,465,844,2448,32.239765625,95070,23.82390463130092,1013.2187969776311,0,,,,N/A,False
2024-04-02T10:51:55,0.7250252477999999,-0.15553346899999998,10.066006472549999,0.04092797095926703,-0.007330382858376185,-0.039095375244672985,-0.0054600000000000004,0.23786000000000002,-0.17766,21.5,1,611,465,844,2448,32.2346875,94750,23.801857508810002,1013.2140916682563,0,,,,N/A,False
2024-04-02T10:51:55,0.7298108929999999,-0.11365907349999999,9.978070242,0.04092797095926703,-0.0003054326190990077,-0.03436116964863837,0.00882,0.23534000000000002,-0.16870000000000002,21.5,1,611,465,844,2448,32.2346875,94750,23.801857508810002,1013.2140916682563,0,,,,N/A,False
2024-04-02T10:51:55,0.69092752575,-0.12083754129999999,9.89491965665,0.04642575810304917,-0.006414085001079162,-0.0355829001250344,0.0037800000000000004,0.23366000000000003,-0.17654000000000003,21.5,1,611,465,844,2448,32.228046875,95772,23.76886601376738,1013.2176307139267,0,,,,N/A,False
2024-04-02T10:51:55,0.6388836341999999,-0.13818550515,9.82792062385,0.04596760917440065,-0.001069014166846527,-0.03359758810089085,0.007420000000000001,0.23506000000000002,-0.18186000000000002,21.5,1,611,465,844,2448,32.228046875,95772,23.76886601376738,1013.2176307139267,0,,,,N/A,False
2024-04-02T10:51:55,0.7214360139,-0.1639083481,9.914062237449999,0.038942658935123484,0.0006108652381980154,-0.0355829001250344,-0.004900000000000001,0.23954000000000003,-0.18648,21.5,1,611,465,844,2448,32.228046875,95772,23.76886601376738,1013.2176307139267,0,,,,N/A,False
2024-04-02T10:51:55,0.7627122037499999,-0.13160524299999998,9.850652438549998,0.04321871560250959,-0.005192354524683131,-0.039706240482871004,-0.004340000000000001,0.22890000000000005,-0.18088,21.5,1,611,465,844,2448,32.2223828125,96099,23.714295064844418,1013.211966906443,0,,,,N/A,False
2024-04-02T10:51:55,0.7196413969499998,-0.11904292434999998,10.085747258999998,0.04382958084070761,-0.006261368691529657,-0.03772092845872745,0.01106,0.23590000000000003,-0.16156,21.5,1,614,467,847,2460,32.2223828125,96099,23.714295064844418,1013.211966906443,0,,,,N/A,False
2024-04-02T10:51:56,0.74476603425,-0.13579268255,9.865607579799999,0.04291328298341058,-0.0025961772623415654,-0.04291328298341058,-0.00322,0.24150000000000002,-0.17388000000000003,21.5,1,614,467,847,2460,32.21828125,97150,23.681512508924627,1013.2052586682777,0,,,,N/A,False
2024-04-02T10:51:56,0.71784678,-0.14656038424999998,10.02293566575,0.04428772976935611,-0.008857545953871223,-0.039553524173321496,0.0007000000000000001,0.24318000000000004,-0.18592000000000003,21.5,0,615,468,850,2468,32.21828125,97150,23.681512508924627,1013.2052586682777,0,,,,N/A,False
2024-04-02T10:51:56,0.7286144817,-0.11246266220000001,9.9373922578,0.04566217655530165,-0.0015271630954950385,-0.038331793696925465,0.00322,0.24066,-0.18816000000000002,21.5,0,615,468,850,2468,32.21828125,97150,23.681512508924627,1013.2052586682777,0,,,,N/A,False
2024-04-02T10:51:56,0.7010970218,-0.14117653339999997,9.959525866849997,0.04459316238845512,-0.001069014166846527,-0.04092797095926703,0.0054600000000000004,0.23506000000000002,-0.16912,20.5,0,615,468,850,2468,31.588203125,85124,23.430478164337938,1013.2052171449951,0,,,,N/A,False
2024-04-02T10:51:56,0.7387839777499999,-0.09032905315,9.991230766299998,0.038942658935123484,-0.0027488935718910697,-0.038484510006474966,0.0071400000000000005,0.24262000000000003,-0.17696,21.5,0,615,468,850,2468,31.588203125,85124,23.430478164337938,1013.2052171449951,0,,,,N/A,False
2024-04-02T10:51:56,0.7322037156000001,-0.1339980656,10.04925671435,0.03924809155422249,-0.0013744467859455349,-0.037110063220529434,0.00574,0.24346000000000004,-0.17318,21.5,0,615,468,850,2468,31.2690625,88148,23.402145300289835,1013.1789317240821,0,,,,N/A,False
2024-04-02T10:51:56,0.7166503687,-0.15074782379999999,9.868598608049998,0.04276056667386108,-0.0033597588100890844,-0.038637226316024474,0.00042,0.24262000000000003,-0.17710000000000004,21.5,0,615,468,850,2468,31.2690625,88148,23.402145300289835,1013.1789317240821,0,,,,N/A,False
2024-04-02T10:51:56,0.7357929495,-0.15074782379999999,9.880562721050001,0.039553524173321496,-0.004276056667386108,-0.03283400655314333,0.00854,0.23786000000000002,-0.17402,21.5,0,615,468,850,2468,31.192109375,90609,23.434358812701205,1013.1751326573399,0,,,,N/A,False
2024-04-02T10:51:57,0.7184449856499999,-0.11724830739999999,10.03131054485,0.04306599929296009,-0.0027488935718910697,-0.038179077387375956,0.00266,0.23674,-0.17598000000000003,21.5,0,615,468,850,2468,31.192109375,90609,23.434358812701205,1013.1751326573399,0,,,,N/A,False
2024-04-02T10:51:57,0.7106683122,-0.15852449724999998,9.85424167245,0.041080687268816536,-0.0015271630954950385,-0.036804630601430424,0.0018200000000000002,0.23674,-0.18956000000000003,21.5,0,617,470,854,2480,31.2305859375,93006,23.437122509344018,1013.1752381923085,0,,,,N/A,False
2024-04-02T10:51:57,0.7322037156000001,-0.15852449724999998,9.853643466800001,0.04535674393620265,-0.007177666548826681,-0.03924809155422249,0.004900000000000001,0.23842000000000002,-0.16800000000000004,21.5,0,617,470,854,2480,31.2305859375,93006,23.437122509344018,1013.1752381923085,0,,,,N/A,False
2024-04-02T10:51:57,0.7214360139,-0.13998012209999997,9.8404829425,0.049327367984489744,0.001069014166846527,-0.0006108652381980154,-0.0012600000000000003,0.23618000000000003,-0.18074,21.5,0,617,470,854,2480,31.2305859375,93006,23.437122509344018,1013.1752381923085,0,,,,N/A,False
2024-04-02T10:51:57,0.7375875664499998,-0.11545369045,9.84706320465,0.04382958084070761,-0.0068722339297276735,-0.03634648167278191,0.0037800000000000004,0.23002,-0.1841,21.5,0,617,470,854,2480,30.999140625,85904,23.372024649161098,1013.1915107428753,0,,,,N/A,False
2024-04-02T10:51:57,0.7124629291499999,-0.16031911419999997,10.082756230749998,0.04489859500755413,-0.003054326190990077,-0.04245513405476207,0.006580000000000001,0.23814000000000002,-0.17864000000000002,21.5,0,617,470,854,2480,30.999140625,85904,23.372024649161098,1013.1915107428753,0,,,,N/A,False
2024-04-02T10:51:58,0.8656035755499999,-0.11665010174999998,9.857830906349998,0.039400807863771994,-0.0012217304763960308,-0.039706240482871004,0.0037800000000000004,0.24514000000000002,-0.18606000000000003,21.5,0,618,471,856,2485,30.914765625,88797,23.398305746090053,1013.1790519935074,0,,,,N/A,False
2024-04-02T10:51:58,0.693918554,-0.1698904046,9.999605645399999,0.04214970143566306,-0.003207042500539581,-0.036804630601430424,0.00574,0.23366000000000003,-0.18466000000000002,21.5,0,618,471,856,2485,30.914765625,88797,23.398305746090053,1013.1790519935074,0,,,,N/A,False
2024-04-02T10:51:58,0.74476603425,-0.14416756165,10.036096190049998,0.04260785036431157,-0.0009162978572970231,-0.038484510006474966,0.0015400000000000001,0.23394000000000004,-0.17822000000000002,21.5,0,620,472,858,2493,30.914765625,88797,23.398305746090053,1013.1790519935074,0,,,,N/A,False
2024-04-02T10:51:58,0.7615157924499998,-0.12323036389999999,10.077970585549998,0.04291328298341058,-0.002138028333693054,-0.041080687268816536,0.004340000000000001,0.23814000000000002,-0.1834,21.5,2,620,472,858,2493,30.482734375,79509,23.367439932911537,1013.1912317659829,0,,,,N/A,False
2024-04-02T10:51:58,0.7465606511999999,-0.14955141249999998,9.80279598655,0.04291328298341058,-0.003207042500539581,-0.03772092845872745,0.00966,0.23842000000000002,-0.17766,21.5,2,620,472,858,2493,30.482734375,79509,23.367439932911537,1013.1912317659829,0,,,,N/A,False
2024-04-02T10:51:59,0.7411768003499999,-0.16630117069999997,9.923035322199999,0.04780020488899471,-0.00595593607243065,-0.036193765363232405,0.00602,0.23814000000000002,-0.17514000000000002,21.5,2,620,472,858,2493,30.335078125,83772,23.410714892117092,1013.1753630036751,0,,,,N/A,False
2024-04-02T10:51:59,0.71126651785,-0.10408778309999998,9.972686391149999,0.04306599929296009,-0.003054326190990077,-0.03741549583962844,0.017220000000000003,0.23506000000000002,-0.17010000000000003,21.5,0,620,472,860,2497,30.335078125,83772,23.410714892117092,1013.1753630036751,0,,,,N/A,False
2024-04-02T10:51:59,0.7214360139,-0.14117653339999997,9.892526834049999,0.04612032548395016,-0.003054326190990077,-0.0357356164345839,-0.004340000000000001,0.23814000000000002,-0.17584,21.5,0,620,472,860,2497,30.335078125,83772,23.410714892117092,1013.1753630036751,0,,,,N/A,False
2024-04-02T10:51:59,0.7322037156000001,-0.14656038424999998,9.8153583052,0.041080687268816536,-0.0006108652381980154,-0.03451388595818787,0.00266,0.24094000000000002,-0.1764,21.5,0,620,472,860,2497,30.07921875,78840,23.43550610265201,1013.1972851373673,0,,,,N/A,False
2024-04-02T10:51:59,0.7070790782999999,-0.15373885204999999,9.9601240725,0.04673119072214818,-0.0054977871437821395,-0.038942658935123484,-0.0012600000000000003,0.24514000000000002,-0.18438000000000002,21.5,0,620,472,860,2497,30.07921875,78840,23.43550610265201,1013.1972851373673,0,,,,N/A,False
2024-04-02T10:52:00,0.7154539574000001,-0.1459621786,9.91525864875,0.038789942625573975,-0.0019853120241435504,-0.03726277953007894,-0.0015400000000000001,0.23310000000000003,-0.18046,21.5,0,621,474,862,2503,30.0493359375,83030,23.508694419351727,1013.1805728992798,0,,,,N/A,False
2024-04-02T10:52:00,0.7555337359499998,-0.12263215824999998,10.110871896299999,0.04260785036431157,-0.005192354524683131,-0.03695734691097993,-0.0012600000000000003,0.2373,-0.18074,21.5,0,621,474,862,2503,30.0493359375,83030,23.508694419351727,1013.1805728992798,0,,,,N/A,False
2024-04-02T10:52:00,0.6699903279999999,-0.10229316614999999,10.088140081599997,0.036499197982331415,-0.0024434609527920616,-0.038179077387375956,-0.0029400000000000003,0.23282000000000003,-0.16982000000000003,21.5,0,621,474,862,2503,30.0493359375,83030,23.508694419351727,1013.1805728992798,0,,,,N/A,False
2024-04-02T10:52:00,0.7609175867999999,-0.1387837108,9.958927661199999,0.04001167310197001,-0.0022907446432425577,-0.04214970143566306,0.00322,0.23926000000000003,-0.17962,21.5,0,621,474,862,2503,29.774140625,75931,23.569740723311266,1013.191951034363,0,,,,N/A,False
2024-04-02T10:52:00,0.7423732116499998,-0.12203395259999998,9.87697348715,0.04001167310197001,-0.0025961772623415654,-0.036193765363232405,0.005180000000000001,0.23702,-0.1778,21.5,0,621,474,862,2503,29.774140625,75931,23.569740723311266,1013.191951034363,0,,,,N/A,False
2024-04-02T10:52:01,0.7334001269,-0.14356935599999998,10.02532848835,0.04260785036431157,-0.00473420559603462,-0.041844268816564056,0.0054600000000000004,0.24206000000000003,-0.18802000000000002,21.5,0,623,475,865,2511,29.757734375,80495,23.649301160796053,1013.1722093708225,0,,,,N/A,False
2024-04-02T10:52:01,0.7148557517499999,-0.11904292434999998,9.8859465719,0.04321871560250959,0.0003054326190990077,-0.03588833274413341,-0.0018200000000000002,0.23758,-0.18676,21.5,0,623,475,865,2511,29.757734375,80495,23.649301160796053,1013.1722093708225,0,,,,N/A,False
2024-04-02T10:52:01,0.7507480907499999,-0.14955141249999998,9.957133044249998,0.041691552507014555,0.00015271630954950385,-0.04245513405476207,0.006580000000000001,0.24122000000000002,-0.18424000000000001,21.5,0,623,475,865,2511,29.757734375,80495,23.649301160796053,1013.1722093708225,0,,,,N/A,False
2024-04-02T10:52:01,0.693918554,-0.15672988029999999,9.8153583052,0.04444044607890562,-0.0013744467859455349,-0.03634648167278191,0.0009800000000000002,0.23926000000000003,-0.18956000000000003,21.5,0,624,476,866,2515,29.533125,74457,23.778574212912698,1013.1837791421917,0,,,,N/A,False
2024-04-02T10:52:01,0.7351947438499999,-0.014356935599999999,10.008578730149999,0.04642575810304917,-0.006414085001079162,-0.039553524173321496,0.0015400000000000001,0.24178000000000002,-0.18354,21.5,0,624,476,866,2515,29.533125,74457,23.778574212912698,1013.1837791421917,0,,,,N/A,False
2024-04-02T10:52:01,0.7369893607999999,-0.10827522265,9.9493563708,0.050396382151336266,0.00015271630954950385,-0.040622538340168025,0.006580000000000001,0.23758,-0.17892000000000002,21.5,0,624,476,866,2515,29.55890625,78620,23.855867936365673,1013.1651349944405,0,,,,N/A,False
2024-04-02T10:52:01,0.7034898444000001,-0.11186445655,10.0235338714,0.04123340357836604,0.038637226316024474,-0.04001167310197001,0.0037800000000000004,0.23786000000000002,-0.18956000000000003,21.5,0,624,476,866,2515,29.55890625,78620,23.855867936365673,1013.1651349944405,0,,,,N/A,False
2024-04-02T10:52:01,0.7345965381999999,-0.09810572659999998,10.0055877019,0.039095375244672985,0.0009162978572970231,-0.03634648167278191,0.00854,0.23422000000000004,-0.18074,21.5,0,624,476,866,2515,29.767109375,82462,23.924842750833132,1013.1571040366788,0,,,,N/A,False
2024-04-02T10:52:01,0.7106683122,-0.16091731985,9.972088185499999,0.04413501345980661,-0.0024434609527920616,-0.03726277953007894,0.005180000000000001,0.23282000000000003,-0.17612,21.5,0,624,476,866,2515,29.767109375,82462,23.924842750833132,1013.1571040366788,0,,,,N/A,False
2024-04-02T10:52:02,0.7142575461,-0.13100703735,9.90808018095,0.04520402762665314,0.0,-0.039858956792420505,0.0037800000000000004,0.24514000000000002,-0.17668,21.5,1,625,477,868,2520,30.0423046875,85556,24.009603347287463,1013.1618661469505,0,,,,N/A,False
2024-04-02T10:52:02,0.7274180704000001,-0.13818550515,10.004391290600001,0.04505131131710364,-0.006261368691529657,-0.03772092845872745,-0.00266,0.23534000000000002,-0.1897,21.5,1,625,477,868,2520,30.0423046875,85556,24.009603347287463,1013.1618661469505,0,,,,N/A,False
2024-04-02T10:52:02,0.6981059935499999,-0.14297115034999996,9.853643466800001,0.047952921198544204,-0.0013744467859455349,-0.036499197982331415,0.01106,0.23758,-0.19460000000000002,21.5,1,625,477,868,2520,30.0423046875,85556,24.009603347287463,1013.1618661469505,0,,,,N/A,False
2024-04-02T10:52:02,0.6592226262999998,-0.12562318649999998,9.91525864875,0.041080687268816536,-0.00015271630954950385,-0.03665191429188092,-0.0037800000000000004,0.23366000000000003,-0.18494000000000002,21.5,1,625,477,868,2520,30.025703125,81036,24.040808124421996,1013.193841429495,0,,,,N/A,False
2024-04-02T10:52:02,0.7274180704000001,-0.13998012209999997,10.054042359550001,0.04016438941151951,-0.002138028333693054,-0.03741549583962844,0.0012600000000000003,0.23758,-0.18494000000000002,21.5,1,625,477,868,2520,30.025703125,81036,24.040808124421996,1013.193841429495,0,,,,N/A,False
2024-04-02T10:52:03,0.7076772839499998,-0.1292124204,10.054042359550001,0.04444044607890562,-0.0035124751196385882,-0.040622538340168025,0.00014000000000000001,0.23982000000000003,-0.18662,21.5,0,626,477,869,2524,30.10890625,84782,24.090111025421418,1013.1742025936907,0,,,,N/A,False
2024-04-02T10:52:03,0.69212393705,-0.17886348935000002,9.940981491699999,0.041691552507014555,-0.0022907446432425577,-0.04260785036431157,0.0071400000000000005,0.23422000000000004,-0.18718,21.5,0,626,477,869,2524,30.10890625,84782,24.090111025421418,1013.1742025936907,0,,,,N/A,False
2024-04-02T10:52:03,0.7022934331,-0.13579268255,10.0666046782,0.04276056667386108,-0.006108652381980154,-0.04077525464971753,0.00602,0.24150000000000002,-0.1834,21.5,0,626,477,869,2524,30.10890625,84782,24.090111025421418,1013.1742025936907,0,,,,N/A,False
2024-04-02T10:52:03,0.7130611348,-0.1519442351,10.07438135165,0.04444044607890562,-0.0033597588100890844,-0.040317105721069016,0.0021000000000000003,0.23870000000000002,-0.18508000000000002,21.5,0,626,477,869,2524,29.8368359375,77822,24.086475732093312,1013.1800243072341,0,,,,N/A,False
2024-04-02T10:52:03,0.7495516794499998,-0.11186445655,9.9972128228,0.041996985126113565,-0.0009162978572970231,-0.03787364476827696,0.009100000000000002,0.23338000000000003,-0.18214000000000002,21.5,0,627,478,870,2525,29.8368359375,77822,24.086475732093312,1013.1800243072341,0,,,,N/A,False
2024-04-02T10:52:04,0.7268198647499999,-0.15852449724999998,9.848259615949999,0.0435241482216086,-0.005039638215133627,-0.040622538340168025,-0.007420000000000001,0.23562000000000002,-0.18354,21.5,1,629,479,872,2530,29.81984375,82221,24.128463002523482,1013.1611179595957,0,,,,N/A,False
2024-04-02T10:52:04,0.6628118601999999,-0.11605189609999998,9.99182897195,0.03772092845872745,-0.002138028333693054,-0.038331793696925465,0.004900000000000001,0.23506000000000002,-0.18214000000000002,21.5,1,629,479,872,2530,29.81984375,82221,24.128463002523482,1013.1611179595957,0,,,,N/A,False
2024-04-02T10:52:04,0.7363911551499999,-0.12203395259999998,9.838688325549999,0.0474947722698957,-0.00473420559603462,-0.03756821214917795,0.004340000000000001,0.23814000000000002,-0.18130000000000002,21.5,1,629,479,872,2530,29.81984375,82221,24.128463002523482,1013.1611179595957,0,,,,N/A,False
2024-04-02T10:52:04,0.7310073042999999,-0.16510475939999997,9.90688376965,0.04260785036431157,-0.004886921905584123,-0.03756821214917795,0.0071400000000000005,0.24346000000000004,-0.18172000000000002,21.5,1,629,479,872,2530,29.5846875,76068,24.19776049748299,1013.1805485358259,0,,,,N/A,False
2024-04-02T10:52:04,0.6999006105,-0.16211373114999997,10.040283629599998,0.03924809155422249,-0.004886921905584123,-0.04123340357836604,0.007700000000000001,0.23338000000000003,-0.18172000000000002,21.5,1,629,479,872,2530,29.5846875,76068,24.19776049748299,1013.1805485358259,0,,,,N/A,False
2024-04-02T10:52:36,0.7316055099499998,-0.14895320685,9.92841917305,0.04016438941151951,-0.0054977871437821395,-0.038637226316024474,0.010780000000000001,0.23590000000000003,-0.19012,21.5,1,628,478,872,2531,29.603046875,81349,24.258564670404876,1013.1694397632689,0,,,,N/A,False
2024-04-02T10:52:36,0.7172485743499999,-0.1351944769,10.036096190049998,0.04077525464971753,-0.00473420559603462,-0.04077525464971753,0.01106,0.23450000000000004,-0.17948000000000003,21.5,1,628,478,872,2531,29.603046875,81349,24.258564670404876,1013.1694397632689,0,,,,N/A,False
2024-04-02T10:52:36,0.7034898444000001,-0.1268195978,10.02054284315,0.04520402762665314,0.0,-0.03665191429188092,0.009100000000000002,0.24262000000000003,-0.18844000000000002,21.5,1,628,478,872,2531,29.603046875,81349,24.258564670404876,1013.1694397632689,0,,,,N/A,False
2024-04-02T10:52:36,0.7453642399,-0.11006983959999998,9.999605645399999,0.041691552507014555,-0.0009162978572970231,-0.04260785036431157,0.008260000000000002,0.23702,-0.17584,21.5,1,628,478,872,2531,29.401875,74589,24.346568268685424,1013.1763044495502,0,,,,N/A,False
2024-04-02T10:52:36,0.6975077879,-0.11485548479999999,9.8680004024,0.04688390703169768,-0.0036651914291880926,-0.036804630601430424,-0.00014000000000000001,0.23870000000000002,-0.17388000000000003,21.5,1,628,478,872,2531,29.401875,74589,24.346568268685424,1013.1763044495502,0,,,,N/A,False
2024-04-02T10:52:37,0.6987041992,-0.11665010174999998,10.062417238649997,0.041996985126113565,-0.0044287729769356115,-0.038484510006474966,0.0007000000000000001,0.23954000000000003,-0.18578000000000003,21.5,0,629,479,873,2533,29.4466015625,79285,24.393127453172017,1013.1529240726817,0,,,,N/A,False
2024-04-02T10:52:37,0.7555337359499998,-0.12622139215,9.80279598655,0.04016438941151951,-0.0038179077387375964,-0.03787364476827696,0.01694,0.22890000000000005,-0.19628000000000004,21.5,0,630,480,874,2534,29.4466015625,79285,24.393127453172017,1013.1529240726817,0,,,,N/A,False
2024-04-02T10:52:37,0.7351947438499999,-0.14416756165,10.018150020550001,0.04382958084070761,-0.00473420559603462,-0.04001167310197001,0.007420000000000001,0.23450000000000004,-0.20132000000000003,21.5,0,630,480,874,2534,29.4466015625,79285,24.393127453172017,1013.1529240726817,0,,,,N/A,False
2024-04-02T10:52:37,0.6897311144499999,-0.16809578764999997,9.870991430649998,0.04520402762665314,-0.004886921905584123,-0.03237585762449482,0.0009800000000000002,0.23898000000000003,-0.1729,21.5,0,630,480,874,2534,29.2837109375,74392,24.462317324784742,1013.1758998867082,0,,,,N/A,False
2024-04-02T10:52:37,0.7375875664499998,-0.1579262916,10.048060303049999,0.04413501345980661,-0.0056505034533316425,-0.038484510006474966,0.0021000000000000003,0.2373,-0.17710000000000004,21.5,0,630,480,874,2534,29.2837109375,74392,24.462317324784742,1013.1758998867082,0,,,,N/A,False
2024-04-02T10:52:37,0.7124629291499999,-0.15493526335,9.98943614935,0.04276056667386108,0.0024434609527920616,-0.03787364476827696,0.00406,0.23926000000000003,-0.18270000000000003,21.5,0,630,480,874,2534,29.3567578125,79285,24.51641714495992,1013.1452677684084,0,,,,N/A,False
2024-04-02T10:52:37,0.6957131709499998,-0.12263215824999998,9.939186874749998,0.04306599929296009,0.00015271630954950385,-0.03604104905368291,-0.00238,0.23814000000000002,-0.18368,21.5,0,630,480,874,2534,29.3567578125,79285,24.51641714495992,1013.1452677684084,0,,,,N/A,False
2024-04-02T10:52:37,0.7513462964,-0.11186445655,9.9888379437,0.039553524173321496,-0.003970624048287101,-0.03787364476827696,0.00574,0.24122000000000002,-0.20034000000000002,21.5,0,630,480,874,2534,29.6051953125,82786,24.5781154343534,1013.1389017517521,0,,,,N/A,False
2024-04-02T10:52:37,0.7094719009,-0.14297115034999996,9.98345409285,0.043676864531158106,-0.003054326190990077,-0.040317105721069016,-0.0029400000000000003,0.24262000000000003,-0.18116000000000002,21.5,0,630,480,874,2534,29.6051953125,82786,24.5781154343534,1013.1389017517521,0,,,,N/A,False
2024-04-02T10:52:38,0.7441678286,-0.1459621786,9.9146604431,0.04459316238845512,-0.0007635815477475193,-0.039400807863771994,-0.00014000000000000001,0.23926000000000003,-0.18536000000000002,21.5,0,629,479,873,2533,29.9137890625,85643,24.655252493103376,1013.1430350254617,0,,,,N/A,False
2024-04-02T10:52:38,0.7046862557,-0.13758729949999998,10.021739254449999,0.04153883619746505,-0.008704829644321718,-0.039400807863771994,0.00042,0.23142000000000001,-0.18662,21.5,0,629,479,873,2533,29.9137890625,85643,24.655252493103376,1013.1430350254617,0,,,,N/A,False
2024-04-02T10:52:38,0.7244270421499999,-0.13100703735,9.882357337999998,0.04092797095926703,0.0,-0.03543018381548489,0.015260000000000001,0.23618000000000003,-0.19278000000000003,21.5,0,629,479,873,2533,29.9137890625,85643,24.655252493103376,1013.1430350254617,0,,,,N/A,False
2024-04-02T10:52:38,0.6957131709499998,-0.13998012209999997,9.8608219346,0.03695734691097993,-0.003054326190990077,-0.03405573702953936,0.00462,0.23702,-0.19614,21.5,0,629,479,873,2533,29.9255078125,81506,24.65612444849391,1013.1694302715497,0,,,,N/A,False
2024-04-02T10:52:38,0.7124629291499999,-0.15254244074999998,10.0319087505,0.038942658935123484,-0.007483099167925688,-0.03924809155422249,0.01106,0.24290000000000003,-0.18564000000000003,21.5,0,629,479,873,2533,29.9255078125,81506,24.65612444849391,1013.1694302715497,0,,,,N/A,False
2024-04-02T10:52:39,0.7238288365,-0.13160524299999998,10.1072826624,0.04276056667386108,-0.005803219762881146,-0.04245513405476207,-0.007980000000000001,0.24318000000000004,-0.18046,21.5,0,629,479,873,2533,30.03234375,84953,24.69122175801919,1013.1616767794851,0,,,,N/A,False
2024-04-02T10:52:39,0.7543373246499998,-0.15493526335,9.945168931249999,0.04718933965079669,-0.00045814892864851157,-0.03436116964863837,-0.007420000000000001,0.23506000000000002,-0.1806,21.5,0,629,479,873,2533,30.03234375,84953,24.69122175801919,1013.1616767794851,0,,,,N/A,False
2024-04-02T10:52:39,0.693918554,-0.17407784415000002,10.091729315499999,0.04245513405476207,-0.0018325957145940463,-0.04046982203061852,0.00462,0.23982000000000003,-0.17346,21.5,0,629,479,873,2533,30.03234375,84953,24.69122175801919,1013.1616767794851,0,,,,N/A,False
2024-04-02T10:52:39,0.7531409133499999,-0.15852449724999998,9.993025383249998,0.039553524173321496,-0.003970624048287101,-0.039553524173321496,0.01022,0.23758,-0.1799,21.5,0,630,480,874,2535,29.778828125,78401,24.661492136868617,1013.1709484922352,0,,,,N/A,False
2024-04-02T10:52:39,0.7597211755,-0.09212367009999999,9.9517491934,0.0006108652381980154,-0.0018325957145940463,-0.038637226316024474,0.00854,0.23086,-0.1841,21.5,0,630,480,874,2535,29.778828125,78401,24.661492136868617,1013.1709484922352,0,,,,N/A,False
2024-04-02T10:52:40,0.7465606511999999,-0.1292124204,9.858429112,0.04092797095926703,-0.0012217304763960308,-0.03665191429188092,0.009940000000000001,0.23450000000000004,-0.19376000000000002,21.5,0,630,480,874,2535,29.7735546875,82301,24.704508372675857,1013.1551245529987,0,,,,N/A,False
2024-04-02T10:52:40,0.7238288365,-0.12442677519999999,9.949954576449999,0.03665191429188092,-0.0016798794050445422,-0.03695734691097993,-0.004900000000000001,0.24038,-0.19110000000000002,21.5,0,630,480,874,2535,29.7735546875,82301,24.704508372675857,1013.1551245529987,0,,,,N/A,False
2024-04-02T10:52:40,0.7615157924499998,-0.13998012209999997,9.834500885999999,0.04291328298341058,-0.007177666548826681,-0.03665191429188092,0.012180000000000002,0.24402000000000001,-0.1932,21.5,0,630,480,874,2535,29.7735546875,82301,24.704508372675857,1013.1551245529987,0,,,,N/A,False
2024-04-02T10:52:40,0.6987041992,-0.16031911419999997,9.89013401145,0.041691552507014555,-0.008552113334772215,-0.03420845333908886,0.006860000000000001,0.23954000000000003,-0.19656000000000004,21.5,0,630,480,874,2535,29.5469921875,76482,24.731053507395362,1013.1653042579525,0,,,,N/A,False
2024-04-02T10:52:40,0.7076772839499998,-0.17288143285000002,10.0319087505,0.04673119072214818,-0.003054326190990077,-0.04123340357836604,0.0012600000000000003,0.23870000000000002,-0.18550000000000003,21.5,0,630,480,874,2535,29.5469921875,76482,24.731053507395362,1013.1653042579525,0,,,,N/A,False
2024-04-02T10:52:41,0.7124629291499999,-0.13339985995,10.071390323399998,0.041844268816564056,-0.00473420559603462,-0.04046982203061852,0.010780000000000001,0.23002,-0.19922000000000004,21.5,0,630,480,874,2535,29.5688671875,81114,24.792378411194413,1013.1474186290237,0,,,,N/A,False
2024-04-02T10:52:41,0.7268198647499999,-0.11665010174999998,9.945767136899999,0.04520402762665314,-0.0016798794050445422,-0.038484510006474966,0.0037800000000000004,0.23366000000000003,-0.17822000000000002,21.5,0,630,480,874,2535,29.5688671875,81114,24.792378411194413,1013.1474186290237,0,,,,N/A,False
2024-04-02T10:52:41,0.6927221427,-0.19920248144999997,10.009176935799998,0.04306599929296009,-0.0035124751196385882,-0.038179077387375956,0.011340000000000001,0.24318000000000004,-0.18662,21.5,0,630,480,874,2535,29.5688671875,81114,24.792378411194413,1013.1474186290237,0,,,,N/A,False
2024-04-02T10:52:41,0.7363911551499999,-0.17228322719999997,9.9756774194,0.04520402762665314,-0.003970624048287101,-0.03726277953007894,0.0015400000000000001,0.22974,-0.18592000000000003,21.5,0,630,480,874,2535,29.3723828125,75524,24.84285875206596,1013.1673285413916,0,,,,N/A,False
2024-04-02T10:52:41,0.7316055099499998,-0.10109675484999998,9.995418205850001,0.03772092845872745,-0.0027488935718910697,-0.03924809155422249,0.0012600000000000003,0.24430000000000002,-0.1904,21.5,0,631,480,874,2535,29.3723828125,75524,24.84285875206596,1013.1673285413916,0,,,,N/A,False
2024-04-02T10:52:42,0.7513462964,-0.1292124204,9.8668039911,0.04734205596034619,-0.005345070834232635,-0.03802636107782646,0.0071400000000000005,0.23674,-0.18046,21.5,0,631,481,874,2536,29.41828125,80418,24.884290540598904,1013.1476701066765,0,,,,N/A,False
2024-04-02T10:52:42,0.7082754896000001,-0.1280160091,9.9493563708,0.04382958084070761,-0.00473420559603462,-0.03481931857728687,0.009380000000000001,0.23366000000000003,-0.18872000000000003,21.5,0,631,481,874,2536,29.41828125,80418,24.884290540598904,1013.1476701066765,0,,,,N/A,False
2024-04-02T10:52:42,0.7268198647499999,-0.13160524299999998,9.81715292215,0.04276056667386108,-0.0019853120241435504,-0.03527746750593539,0.009380000000000001,0.23786000000000002,-0.19068000000000002,21.5,0,631,481,874,2536,29.41828125,80418,24.884290540598904,1013.1476701066765,0,,,,N/A,False
2024-04-02T10:52:42,0.7292126873499999,-0.12143574694999999,10.1168539528,0.04428772976935611,-0.0012217304763960308,-0.039553524173321496,0.00574,0.23926000000000003,-0.18886,21.5,0,631,481,874,2536,29.243671875,75591,24.903821205857003,1013.1657232281474,0,,,,N/A,False
2024-04-02T10:52:42,0.7118647235,-0.1459621786,9.7363951594,0.04596760917440065,-0.0022907446432425577,-0.041996985126113565,0.011620000000000002,0.23534000000000002,-0.19950000000000004,21.5,0,631,481,874,2536,29.243671875,75591,24.903821205857003,1013.1657232281474,0,,,,N/A,False
2024-04-02T10:52:42,0.7124629291499999,-0.11545369045,9.814760099549998,0.04077525464971753,-0.0018325957145940463,-0.03726277953007894,0.007980000000000001,0.22526000000000002,-0.19390000000000002,21.5,0,631,481,874,2536,29.302265625,80726,24.951646219127017,1013.1382621227368,0,,,,N/A,False
2024-04-02T10:52:42,0.7334001269,-0.1112662509,10.098907783299998,0.036804630601430424,-0.0036651914291880926,-0.03527746750593539,0.006860000000000001,0.23702,-0.18942,21.5,0,631,481,874,2536,29.302265625,80726,24.951646219127017,1013.1382621227368,0,,,,N/A,False
2024-04-02T10:52:42,0.6981059935499999,-0.17647066675,9.945168931249999,0.04459316238845512,-0.0035124751196385882,-0.038484510006474966,0.00042,0.23534000000000002,-0.19712000000000002,21.5,0,631,481,874,2536,29.53703125,84443,25.001853908995557,1013.1328255784082,0,,,,N/A,False
2024-04-02T10:52:42,0.7411768003499999,-0.09930213789999999,9.88175913235,0.03924809155422249,-0.0027488935718910697,-0.03772092845872745,0.00966,0.24066,-0.20622000000000001,21.5,0,631,481,874,2536,29.53703125,84443,25.001853908995557,1013.1328255784082,0,,,,N/A,False
2024-04-02T10:52:43,0.7339983325499999,-0.12143574694999999,9.93559764085,0.039706240482871004,-0.004886921905584123,-0.04321871560250959,-0.0007000000000000001,0.23310000000000003,-0.18368,21.5,0,631,480,874,2535,29.8325390625,87508,25.051285638180715,1013.133520578665,0,,,,N/A,False
2024-04-02T10:52:43,0.6843472635999999,-0.15373885204999999,9.8069834261,0.04566217655530165,-0.003207042500539581,-0.038179077387375956,-0.0037800000000000004,0.23814000000000002,-0.18830000000000002,21.5,0,631,480,874,2535,29.8325390625,87508,25.051285638180715,1013.133520578665,0,,,,N/A,False
2024-04-02T10:52:43,0.76630143765,-0.12741780345,9.9206424996,0.04291328298341058,-0.0016798794050445422,-0.039858956792420505,-0.0012600000000000003,0.23814000000000002,-0.1904,21.5,0,631,480,874,2535,29.8325390625,87508,25.051285638180715,1013.133520578665,0,,,,N/A,False
2024-04-02T10:52:43,0.7393821834,-0.1447657673,10.06720288385,0.04413501345980661,-0.0036651914291880926,-0.039095375244672985,0.008260000000000002,0.24094000000000002,-0.19110000000000002,21.5,0,631,480,874,2535,29.8372265625,83440,25.002673061251475,1013.1663175826009,0,,,,N/A,False
2024-04-02T10:52:43,0.6783652070999998,-0.1890329854,9.776474937949999,0.04123340357836604,-0.0027488935718910697,-0.03726277953007894,0.009100000000000002,0.23618000000000003,-0.20048000000000002,21.5,0,631,480,874,2535,29.8372265625,83440,25.002673061251475,1013.1663175826009,0,,,,N/A,False
2024-04-02T10:52:44,0.70887369525,-0.13100703735,9.8261260069,0.0435241482216086,0.0019853120241435504,-0.04001167310197001,-0.00042,0.2303,-0.18886,21.5,0,631,481,874,2539,29.937421875,87056,25.01565920173873,1013.1566845723762,0,,,,N/A,False
2024-04-02T10:52:44,0.70887369525,-0.09511469834999998,10.05643518215,0.036499197982331415,-0.005039638215133627,-0.04046982203061852,0.00406,0.23926000000000003,-0.19404000000000002,21.5,1,631,481,874,2537,29.937421875,87056,25.01565920173873,1013.1566845723762,0,,,,N/A,False
2024-04-02T10:52:44,0.7214360139,-0.1471585899,9.9110712092,0.03802636107782646,-0.008704829644321718,-0.0355829001250344,0.0009800000000000002,0.23758,-0.19362000000000001,21.5,1,631,481,874,2537,29.937421875,87056,25.01565920173873,1013.1566845723762,0,,,,N/A,False
2024-04-02T10:52:44,0.67417776755,-0.12323036389999999,9.8620183459,0.03772092845872745,0.00045814892864851157,-0.03924809155422249,0.006300000000000001,0.23422000000000004,-0.18816000000000002,21.5,1,631,481,874,2537,29.68234375,80113,24.909486397384434,1013.174042385312,0,,,,N/A,False
2024-04-02T10:52:44,0.7136593404499999,-0.1447657673,9.898508890549998,0.04550946024575215,0.0003054326190990077,-0.03726277953007894,0.011340000000000001,0.24010000000000004,-0.19810000000000003,21.5,1,631,481,874,2537,29.68234375,80113,24.909486397384434,1013.174042385312,0,,,,N/A,False
2024-04-02T10:52:45,0.70887369525,-0.14356935599999998,10.0666046782,0.041080687268816536,-0.008857545953871223,-0.04016438941151951,0.0021000000000000003,0.23758,-0.18438000000000002,21.5,0,631,481,874,2537,29.6786328125,84527,24.93638175326178,1013.1554029596253,0,,,,N/A,False
2024-04-02T10:52:45,0.7411768003499999,-0.1519442351,9.88175913235,0.04489859500755413,-0.005039638215133627,-0.038331793696925465,0.00854,0.23506000000000002,-0.19838000000000003,21.5,0,631,481,874,2537,29.6786328125,84527,24.93638175326178,1013.1554029596253,0,,,,N/A,False
2024-04-02T10:52:45,0.72083780825,-0.15672988029999999,9.9972128228,0.04520402762665314,-0.003970624048287101,-0.03756821214917795,0.007980000000000001,0.24206000000000003,-0.18256000000000003,21.5,0,631,481,874,2537,29.6786328125,84527,24.93638175326178,1013.1554029596253,0,,,,N/A,False
2024-04-02T10:52:45,0.7052844613499999,-0.16091731985,9.925428144799998,0.04260785036431157,0.00015271630954950385,-0.04046982203061852,0.00322,0.24122000000000002,-0.18522000000000002,21.5,0,631,481,874,2537,29.45109375,78474,24.8976053332622,1013.1674657813794,0,,,,N/A,False
2024-04-02T10:52:45,0.7076772839499998,-0.14416756165,10.064211855599998,0.04581489286485116,-0.004886921905584123,-0.04474587869800463,0.01022,0.23450000000000004,-0.1974,21.5,0,631,481,874,2537,29.45109375,78474,24.8976053332622,1013.1674657813794,0,,,,N/A,False
2024-04-02T10:52:46,0.7441678286,-0.13579268255,9.9206424996,0.051007247389534285,-0.0007635815477475193,-0.04276056667386108,-0.0021000000000000003,0.24374,-0.17864000000000002,21.5,0,632,481,875,2540,29.4731640625,83276,24.942715056182468,1013.1481204223267,0,,,,N/A,False
2024-04-02T10:52:46,0.67896341275,-0.11844471869999999,9.8333044747,0.041996985126113565,-0.006719517620178169,-0.03756821214917795,-0.0015400000000000001,0.23114,-0.17374,21.5,0,632,481,875,2540,29.4731640625,83276,24.942715056182468,1013.1481204223267,0,,,,N/A,False
2024-04-02T10:52:46,0.7304090986499999,-0.14297115034999996,9.900303507499999,0.04856378643674222,-0.003054326190990077,-0.03802636107782646,0.007420000000000001,0.23310000000000003,-0.19138000000000002,21.5,0,632,481,875,2540,29.4731640625,83276,24.942715056182468,1013.1481204223267,0,,,,N/A,False
2024-04-02T10:52:46,0.7298108929999999,-0.13579268255,9.8727860476,0.04550946024575215,-0.0009162978572970231,-0.03756821214917795,0.00602,0.22694000000000003,-0.18648,21.5,0,632,481,875,2540,29.2852734375,78183,24.93408091056265,1013.158753506705,0,,,,N/A,False
2024-04-02T10:52:46,0.7142575461,-0.16091731985,9.963713306399999,0.04459316238845512,-0.0054977871437821395,-0.03787364476827696,-0.005180000000000001,0.23282000000000003,-0.18914,21.5,0,632,481,875,2540,29.2852734375,78183,24.93408091056265,1013.158753506705,0,,,,N/A,False
2024-04-02T10:52:47,0.7214360139,-0.12442677519999999,9.94397251995,0.04153883619746505,-0.002901609881440573,-0.04153883619746505,-0.0015400000000000001,0.23058,-0.19488000000000003,21.5,0,631,481,874,2538,29.3380078125,82786,24.98148604442073,1013.1413748533269,0,,,,N/A,False
2024-04-02T10:52:47,0.7244270421499999,-0.1639083481,9.9972128228,0.04657847441259867,0.0,-0.03741549583962844,0.0021000000000000003,0.24038,-0.19334000000000004,21.5,0,631,481,874,2538,29.3380078125,82786,24.98148604442073,1013.1413748533269,0,,,,N/A,False
2024-04-02T10:52:47,0.7345965381999999,-0.11605189609999998,10.019944637499998,0.043676864531158106,-0.0027488935718910697,-0.03665191429188092,0.0037800000000000004,0.23982000000000003,-0.18732000000000001,21.5,0,631,481,874,2538,29.3380078125,82786,24.98148604442073,1013.1413748533269,0,,,,N/A,False
2024-04-02T10:52:47,0.69930240485,-0.13758729949999998,9.927222761749999,0.04474587869800463,-0.002901609881440573,-0.037110063220529434,0.0119,0.23422000000000004,-0.20622000000000001,21.5,0,631,481,874,2538,29.1825390625,77323,25.007864964022126,1013.1567458878503,0,,,,N/A,False
2024-04-02T10:52:47,0.7124629291499999,-0.11844471869999999,10.008578730149999,0.04474587869800463,-0.0016798794050445422,-0.04260785036431157,0.0035000000000000005,0.22610000000000002,-0.18788000000000002,21.5,0,631,481,874,2538,29.1825390625,77323,25.007864964022126,1013.1567458878503,0,,,,N/A,False
2024-04-02T10:52:47,0.7142575461,-0.13938191645,10.09113110985,0.043982297150257116,-0.0068722339297276735,-0.038789942625573975,0.011340000000000001,0.23842000000000002,-0.18634000000000003,21.5,0,631,481,874,2538,29.2622265625,81902,25.03557596617434,1013.1370501590267,0,,,,N/A,False
2024-04-02T10:52:47,0.7495516794499998,-0.14177473905,9.837491914249998,0.038637226316024474,-0.006108652381980154,-0.03772092845872745,-0.0018200000000000002,0.23786000000000002,-0.20496,21.5,0,631,481,874,2538,29.2622265625,81902,25.03557596617434,1013.1370501590267,0,,,,N/A,False
2024-04-02T10:52:47,0.6951149652999999,-0.14237294469999998,9.923035322199999,0.04153883619746505,-0.009926560120717751,-0.039400807863771994,0.0018200000000000002,0.23310000000000003,-0.19390000000000002,21.5,0,631,481,874,2538,29.511640625,86167,25.097830052301294,1013.1323908237239,0,,,,N/A,False
2024-04-02T10:52:47,0.69930240485,-0.15972090854999998,10.052247742599999,0.04306599929296009,-0.0009162978572970231,-0.039095375244672985,0.004900000000000001,0.24374,-0.18774000000000002,21.5,1,630,479,872,2534,29.511640625,86167,25.097830052301294,1013.1323908237239,0,,,,N/A,False
2024-04-02T10:52:48,0.75673014725,-0.11844471869999999,9.88893760015,0.04505131131710364,-0.0027488935718910697,-0.04046982203061852,0.0018200000000000002,0.24122000000000002,-0.19502,21.5,1,630,479,872,2534,29.8169140625,88984,25.142642706257025,1013.1294115066657,0,,,,N/A,False
2024-04-02T10:52:48,0.6963113766000001,-0.12143574694999999,9.939186874749998,0.041996985126113565,-0.0038179077387375964,-0.038789942625573975,0.006300000000000001,0.23646000000000003,-0.18886,21.5,1,630,479,872,2534,29.8169140625,88984,25.142642706257025,1013.1294115066657,0,,,,N/A,False
2024-04-02T10:52:48,0.7244270421499999,-0.12442677519999999,9.880562721050001,0.04245513405476207,-0.0035124751196385882,-0.03634648167278191,0.005180000000000001,0.24514000000000002,-0.18788000000000002,21.5,1,630,479,872,2534,29.8169140625,88984,25.142642706257025,1013.1294115066657,0,,,,N/A,False
2024-04-02T10:52:48,0.7136593404499999,-0.14416756165,9.8751788702,0.04306599929296009,-0.005039638215133627,-0.03527746750593539,0.006300000000000001,0.23758,-0.18074,21.5,1,630,479,872,2534,29.8169140625,84697,25.109976062148107,1013.1634857157692,0,,,,N/A,False
2024-04-02T10:52:48,0.6747759731999999,-0.15373885204999999,10.013962581,0.039706240482871004,-0.0018325957145940463,-0.04046982203061852,0.007420000000000001,0.2373,-0.18298000000000003,21.5,1,630,479,872,2534,29.8169140625,84697,25.109976062148107,1013.1634857157692,0,,,,N/A,False
2024-04-02T10:52:49,0.7082754896000001,-0.13998012209999997,10.054042359550001,0.039858956792420505,-0.0056505034533316425,-0.039553524173321496,0.00854,0.23562000000000002,-0.17962,21.5,0,629,478,870,2531,29.91125,88704,25.133441175079046,1013.1496324102832,0,,,,N/A,False
2024-04-02T10:52:49,0.7022934331,-0.14297115034999996,9.945168931249999,0.04505131131710364,0.0006108652381980154,-0.036193765363232405,0.007700000000000001,0.24262000000000003,-0.18788000000000002,21.5,0,629,478,870,2531,29.91125,88704,25.133441175079046,1013.1496324102832,0,,,,N/A,False
2024-04-02T10:52:49,0.70887369525,-0.15732808594999997,10.009176935799998,0.04520402762665314,-0.0044287729769356115,-0.04077525464971753,0.007420000000000001,0.23758,-0.19362000000000001,21.5,0,629,478,870,2531,29.91125,88704,25.133441175079046,1013.1496324102832,0,,,,N/A,False
2024-04-02T10:52:49,0.7501498851,-0.15972090854999998,10.054042359550001,0.04444044607890562,-0.005803219762881146,-0.03772092845872745,0.006580000000000001,0.23338000000000003,-0.18942,21.5,0,629,478,870,2531,29.6458203125,81902,25.004591475524414,1013.171493087286,0,,,,N/A,False
2024-04-02T10:52:49,0.7274180704000001,-0.11964112999999998,9.972686391149999,0.04046982203061852,-0.004276056667386108,-0.038179077387375956,0.00462,0.23870000000000002,-0.18802000000000002,21.5,0,629,478,870,2531,29.6458203125,81902,25.004591475524414,1013.171493087286,0,,,,N/A,False
2024-04-02T10:52:50,0.7507480907499999,-0.1304088317,9.777073143599997,0.04505131131710364,-0.0016798794050445422,-0.0355829001250344,0.009100000000000002,0.23198000000000002,-0.1799,21.5,1,629,478,870,2530,29.6301953125,86344,25.025168406531527,1013.1530281016593,0,,,,N/A,False
2024-04-02T10:52:50,0.7184449856499999,-0.14177473905,9.952347399049998,0.04382958084070761,-0.0056505034533316425,-0.038942658935123484,-0.0029400000000000003,0.23674,-0.18886,21.5,1,629,478,870,2530,29.6301953125,86344,25.025168406531527,1013.1530281016593,0,,,,N/A,False
2024-04-02T10:52:50,0.6891329087999999,-0.14416756165,9.842875765099999,0.03695734691097993,-0.0036651914291880926,-0.03543018381548489,0.0009800000000000002,0.23674,-0.19124000000000002,21.5,1,629,478,870,2530,29.6301953125,86344,25.025168406531527,1013.1530281016593,0,,,,N/A,False
2024-04-02T10:52:50,0.7148557517499999,-0.11605189609999998,9.936794052149999,0.04016438941151951,-0.007635815477475193,-0.036193765363232405,0.005180000000000001,0.24094000000000002,-0.1862,21.5,1,629,478,870,2530,29.4044140625,80265,24.942998125420097,1013.1589646336016,0,,,,N/A,False
2024-04-02T10:52:50,0.6975077879,-0.14536397295,9.936794052149999,0.04535674393620265,-0.003207042500539581,-0.03787364476827696,-0.0009800000000000002,0.23590000000000003,-0.17136,21.5,1,629,478,870,2530,29.4044140625,80265,24.942998125420097,1013.1589646336016,0,,,,N/A,False
2024-04-02T10:52:51,0.7124629291499999,-0.11724830739999999,10.015757197949998,0.04092797095926703,-0.0068722339297276735,-0.040622538340168025,0.00602,0.23394000000000004,-0.19810000000000003,21.5,1,627,477,868,2525,29.4315625,85124,24.98306691905707,1013.1336203188454,0,,,,N/A,False
2024-04-02T10:52:51,0.7124629291499999,-0.024526431649999996,9.919446088299999,0.04688390703169768,-0.005039638215133627,-0.03756821214917795,0.013020000000000002,0.2373,-0.18718,21.5,0,624,475,866,2518,29.4315625,85124,24.98306691905707,1013.1336203188454,0,,,,N/A,False
2024-04-02T10:52:51,0.73280192125,-0.14895320685,10.015158992299998,0.04474587869800463,-0.005039638215133627,-0.038789942625573975,0.009380000000000001,0.23898000000000003,-0.20160000000000003,21.5,0,624,475,866,2518,29.4315625,85124,24.98306691905707,1013.1336203188454,0,,,,N/A,False
2024-04-02T10:52:51,0.7094719009,-0.1292124204,10.09950598895,0.04092797095926703,-0.0038179077387375964,-0.038331793696925465,0.0071400000000000005,0.23422000000000004,-0.1953,21.5,0,624,475,866,2518,29.2434765625,79584,24.947246622223794,1013.1528599332466,0,,,,N/A,False
2024-04-02T10:52:51,0.70887369525,-0.11844471869999999,9.889535805799998,0.04276056667386108,-0.0019853120241435504,-0.04016438941151951,0.00266,0.24738000000000002,-0.18760000000000002,21.5,0,624,475,866,2518,29.2434765625,79584,24.947246622223794,1013.1528599332466,0,,,,N/A,False
2024-04-02T10:52:52,0.6891329087999999,-0.17647066675,9.7962157244,0.04046982203061852,-0.0013744467859455349,-0.03665191429188092,0.006580000000000001,0.23758,-0.17920000000000003,21.5,1,625,475,865,2519,29.295625,84274,25.000042539330774,1013.1291542893987,0,,,,N/A,False
2024-04-02T10:52:52,0.7591229698499998,-0.10229316614999999,10.062417238649997,0.041691552507014555,-0.004886921905584123,-0.039095375244672985,0.0009800000000000002,0.23198000000000002,-0.16604000000000002,21.5,1,625,475,865,2519,29.295625,84274,25.000042539330774,1013.1291542893987,0,,,,N/A,False
2024-04-02T10:52:52,0.7256234534499999,-0.16091731985,9.957133044249998,0.04474587869800463,-0.0044287729769356115,-0.03772092845872745,0.00854,0.23646000000000003,-0.18704,21.5,1,625,475,865,2519,29.128046875,78620,24.99291897404975,1013.1461151756362,0,,,,N/A,False
2024-04-02T10:52:52,0.7489534737999999,-0.12741780345,9.91286582615,0.04077525464971753,-0.005039638215133627,-0.039095375244672985,0.011340000000000001,0.2303,-0.19684000000000004,21.5,1,625,475,865,2519,29.128046875,78620,24.99291897404975,1013.1461151756362,0,,,,N/A,False
2024-04-02T10:52:52,0.6825526466499999,-0.16450655374999998,10.076175968599998,0.04612032548395016,-0.005039638215133627,-0.04153883619746505,-0.0007000000000000001,0.23450000000000004,-0.1834,21.5,1,625,475,865,2519,29.196796875,83523,25.052403458925003,1013.1246101320223,0,,,,N/A,False
2024-04-02T10:52:52,0.7124629291499999,-0.1328016543,10.0008020567,0.04474587869800463,-0.0016798794050445422,-0.038484510006474966,0.010780000000000001,0.23310000000000003,-0.17360000000000003,21.5,1,625,475,865,2519,29.196796875,83523,25.052403458925003,1013.1246101320223,0,,,,N/A,False
2024-04-02T10:52:52,0.7393821834,-0.1483550012,9.8751788702,0.04306599929296009,-0.0013744467859455349,-0.04077525464971753,0.01022,0.24290000000000003,-0.17738000000000004,21.5,0,624,474,863,2512,29.439375,87056,25.097826103272038,1013.1213486820893,0,,,,N/A,False
2024-04-02T10:52:52,0.7148557517499999,-0.12083754129999999,9.92482993915,0.04413501345980661,-0.0015271630954950385,-0.039553524173321496,0.004340000000000001,0.23366000000000003,-0.17458,21.5,0,624,474,863,2512,29.439375,87056,25.097826103272038,1013.1213486820893,0,,,,N/A,False
2024-04-02T10:52:52,0.67537417885,-0.16091731985,9.8177511278,0.04321871560250959,-0.004886921905584123,-0.03772092845872745,0.0009800000000000002,0.24458000000000002,-0.18046,21.5,0,624,474,863,2512,29.7411328125,90029,25.153247329994098,1013.1234563281754,0,,,,N/A,False
2024-04-02T10:52:53,0.73280192125,-0.15553346899999998,9.945168931249999,0.03924809155422249,-0.00473420559603462,-0.039095375244672985,0.011340000000000001,0.23506000000000002,-0.17836000000000002,21.5,0,624,474,863,2512,30.043671875,92699,25.18160322767382,1013.1371982223691,0,,,,N/A,False
2024-04-02T10:52:53,0.7082754896000001,-0.30508488149999996,9.9469635482,0.041080687268816536,-0.0007635815477475193,-0.03665191429188092,0.0037800000000000004,0.23814000000000002,-0.18172000000000002,21.5,0,624,474,863,2512,30.043671875,92699,25.18160322767382,1013.1371982223691,0,,,,N/A,False
2024-04-02T10:52:53,0.7471588568499998,-0.1351944769,10.0235338714,0.04413501345980661,-0.00595593607243065,-0.04001167310197001,0.00574,0.23842000000000002,-0.18858000000000003,21.5,0,624,474,863,2512,30.043671875,92699,25.18160322767382,1013.1371982223691,0,,,,N/A,False
2024-04-02T10:52:53,0.7148557517499999,-0.14416756165,10.034899778749999,0.04153883619746505,-0.002901609881440573,-0.04016438941151951,0.00854,0.23618000000000003,-0.18494000000000002,21.5,1,623,473,860,2506,30.232734375,91394,25.174148316542883,1013.1673010603558,0,,,,N/A,False
2024-04-02T10:52:53,0.6915257314000001,-0.14057832774999998,9.860223728949999,0.04153883619746505,-0.002138028333693054,-0.03451388595818787,0.00322,0.23954000000000003,-0.17584,21.5,1,623,473,860,2506,30.232734375,91394,25.174148316542883,1013.1673010603558,0,,,,N/A,False
2024-04-02T10:52:54,0.6831508522999998,-0.13938191645,9.821938567349997,0.04382958084070761,-0.0054977871437821395,-0.0316122760767473,-0.0007000000000000001,0.23450000000000004,-0.18480000000000002,21.5,0,620,471,857,2497,30.38390625,94676,25.185632741675896,1013.1692528600943,0,,,,N/A,False
2024-04-02T10:52:54,0.7166503687,-0.13698909385,10.033703367449998,0.04046982203061852,-0.002901609881440573,-0.03741549583962844,0.007700000000000001,0.23926000000000003,-0.1932,21.5,0,620,471,857,2497,30.38390625,94676,25.185632741675896,1013.1692528600943,0,,,,N/A,False
2024-04-02T10:52:54,0.6951149652999999,-0.14356935599999998,9.862616551549998,0.04321871560250959,-0.006414085001079162,-0.03695734691097993,0.00966,0.23002,-0.19124000000000002,21.5,0,620,471,857,2497,30.38390625,94676,25.185632741675896,1013.1692528600943,0,,,,N/A,False
2024-04-02T10:52:54,0.70887369525,-0.1052841944,9.846464998999998,0.04245513405476207,-0.003970624048287101,-0.039095375244672985,0.011620000000000002,0.23338000000000003,-0.1841,21.5,0,620,471,857,2497,30.0169140625,85817,24.989000696058007,1013.1740455881026,0,,,,N/A,False
2024-04-02T10:52:54,0.7256234534499999,-0.12622139215,10.001400262349998,0.04382958084070761,-0.002138028333693054,-0.038789942625573975,0.0071400000000000005,0.23674,-0.17696,21.5,0,620,471,857,2497,30.0169140625,85817,24.989000696058007,1013.1740455881026,0,,,,N/A,False
2024-04-02T10:52:55,0.7597211755,-0.10648060570000001,9.91286582615,0.038637226316024474,-0.0027488935718910697,-0.03741549583962844,0.022820000000000003,0.23674,-0.1897,21.5,0,620,470,856,2492,29.919453125,90221,24.99254286649478,1013.1487376213353,0,,,,N/A,False
2024-04-02T10:52:55,0.705882667,-0.17228322719999997,9.981659475899999,0.04428772976935611,0.0019853120241435504,-0.039400807863771994,0.007980000000000001,0.23590000000000003,-0.17192000000000002,21.5,0,620,470,856,2492,29.919453125,90221,24.99254286649478,1013.1487376213353,0,,,,N/A,False
2024-04-02T10:52:55,0.7543373246499998,-0.15672988029999999,9.918249676999999,0.04123340357836604,-0.008093964406123704,-0.039095375244672985,0.0035000000000000005,0.23786000000000002,-0.18536000000000002,21.5,0,620,470,856,2492,29.919453125,90221,24.99254286649478,1013.1487376213353,0,,,,N/A,False
2024-04-02T10:52:55,0.7064808726499999,-0.15134602945,10.1264252432,0.041080687268816536,-0.0025961772623415654,-0.03741549583962844,0.010500000000000002,0.23478000000000002,-0.19278000000000003,21.5,0,620,470,856,2492,29.60890625,83112,24.88768602141003,1013.1611258433322,0,,,,N/A,False
2024-04-02T10:52:55,0.7094719009,-0.12263215824999998,9.8380901199,0.04260785036431157,-0.007635815477475193,-0.07773260156069746,0.01022,0.2373,-0.19712000000000002,21.5,0,620,470,856,2492,29.60890625,83112,24.88768602141003,1013.1611258433322,0,,,,N/A,False
2024-04-02T10:52:56,0.7190431912999999,-0.1387837108,9.88295554365,0.043982297150257116,-0.002901609881440573,-0.04016438941151951,0.006300000000000001,0.23142000000000001,-0.1953,21.5,0,616,467,850,2477,29.563203125,88240,24.911427885164187,1013.1363320425521,0,,,,N/A,False
2024-04-02T10:52:56,0.6957131709499998,-0.12323036389999999,9.94636534255,0.041386119887915546,-0.0044287729769356115,-0.038637226316024474,0.0012600000000000003,0.23534000000000002,-0.19166000000000002,21.5,0,616,467,850,2477,29.563203125,88240,24.911427885164187,1013.1363320425521,0,,,,N/A,False
2024-04-02T10:52:56,0.7369893607999999,-0.14297115034999996,9.79083187355,0.03802636107782646,-0.0054977871437821395,-0.03665191429188092,0.00322,0.24094000000000002,-0.19558,21.5,0,616,467,850,2477,29.563203125,88240,24.911427885164187,1013.1363320425521,0,,,,N/A,False
2024-04-02T10:52:56,0.7166503687,-0.09930213789999999,9.82433138995,0.043982297150257116,-0.002901609881440573,-0.03634648167278191,0.0071400000000000005,0.23478000000000002,-0.18774000000000002,21.5,0,616,467,850,2477,29.31046875,81902,24.843667850238834,1013.1535185928656,0,,,,N/A,False
2024-04-02T10:52:56,0.67896341275,-0.13998012209999997,9.96191868945,0.041996985126113565,-0.00473420559603462,-0.03924809155422249,0.007980000000000001,0.22638000000000003,-0.18942,21.5,0,616,467,850,2477,29.31046875,81902,24.843667850238834,1013.1535185928656,0,,,,N/A,False
2024-04-02T10:52:57,0.705882667,-0.12861421474999998,10.0510513313,0.04230241774521256,-0.006108652381980154,-0.03726277953007894,0.01414,0.22750000000000004,-0.17976000000000003,21.5,0,613,465,846,2467,29.3118359375,87417,24.88719641050028,1013.141426695956,0,,,,N/A,False
2024-04-02T10:52:57,0.72801627605,-0.15852449724999998,9.940981491699999,0.03772092845872745,-0.0006108652381980154,-0.038942658935123484,0.00574,0.23366000000000003,-0.18858000000000003,21.5,0,613,465,846,2467,29.3118359375,87417,24.88719641050028,1013.141426695956,0,,,,N/A,False
2024-04-02T10:52:57,0.71126651785,-0.11006983959999998,10.0235338714,0.039095375244672985,-0.006108652381980154,-0.04245513405476207,0.007980000000000001,0.23926000000000003,-0.18228000000000003,21.5,0,613,465,846,2467,29.3118359375,87417,24.88719641050028,1013.141426695956,0,,,,N/A,False
2024-04-02T10:52:57,0.7453642399,-0.16510475939999997,9.855438083749998,0.04245513405476207,-0.002138028333693054,-0.04214970143566306,0.0009800000000000002,0.23842000000000002,-0.17598000000000003,21.5,0,613,465,846,2467,29.11671875,81664,24.82380615889769,1013.1579721951555,0,,,,N/A,False
2024-04-02T10:52:57,0.7316055099499998,-0.13938191645,10.01456078665,0.0433714319120591,-0.003207042500539581,-0.03772092845872745,0.012740000000000001,0.23338000000000003,-0.18508000000000002,21.5,0,613,465,846,2467,29.11671875,81664,24.82380615889769,1013.1579721951555,0,,,,N/A,False
2024-04-02T10:52:57,0.7082754896000001,-0.13100703735,10.06361364995,0.04489859500755413,-0.006566801310628666,-0.03924809155422249,0.015260000000000001,0.23114,-0.18900000000000003,21.5,0,613,465,846,2467,29.16671875,86079,24.881791471237754,1013.145107304085,0,,,,N/A,False
2024-04-02T10:52:57,0.69212393705,-0.15852449724999998,9.80638522045,0.04581489286485116,-0.001069014166846527,-0.03787364476827696,0.014980000000000002,0.23422000000000004,-0.18844000000000002,21.5,0,612,463,843,2459,29.16671875,86079,24.881791471237754,1013.145107304085,0,,,,N/A,False
2024-04-02T10:52:57,0.7010970218,-0.10707881135,9.853643466800001,0.04306599929296009,-0.005803219762881146,-0.04092797095926703,0.00854,0.23282000000000003,-0.18872000000000003,21.5,0,612,463,843,2459,29.395625,89933,24.926043868114927,1013.1337866222684,0,,,,N/A,False
2024-04-02T10:52:57,0.7166503687,-0.15493526335,10.070792117749999,0.04428772976935611,-0.005192354524683131,-0.04046982203061852,0.01862,0.22722000000000003,-0.20202,21.5,0,612,463,843,2459,29.395625,89933,24.926043868114927,1013.1337866222684,0,,,,N/A,False
2024-04-02T10:52:58,0.72083780825,-0.13220344865,9.953543810349998,0.04245513405476207,-0.0022907446432425577,-0.038942658935123484,0.007700000000000001,0.22974,-0.19166000000000002,21.5,0,612,463,843,2459,29.687421875,92699,24.958784299224202,1013.1357552357008,0,,,,N/A,False
2024-04-02T10:52:58,0.7106683122,-0.14656038424999998,9.834500885999999,0.04046982203061852,-0.002901609881440573,-0.03497203488683638,0.00574,0.23142000000000001,-0.18662,21.5,0,612,463,843,2459,29.687421875,92699,24.958784299224202,1013.1357552357008,0,,,,N/A,False
2024-04-02T10:52:58,0.7339983325499999,-0.13220344865,9.9696953629,0.040622538340168025,-0.0022907446432425577,-0.03634648167278191,0.007420000000000001,0.23058,-0.1834,21.5,1,609,461,839,2446,29.687421875,92699,24.958784299224202,1013.1357552357008,0,,,,N/A,False
2024-04-02T10:52:58,0.7028916387499999,-0.11605189609999998,9.8991070962,0.04459316238845512,-0.004886921905584123,-0.037110063220529434,0.010500000000000002,0.23198000000000002,-0.19600000000000004,21.5,1,609,461,839,2446,29.6766796875,87964,24.92536525351698,1013.153991570228,0,,,,N/A,False
2024-04-02T10:52:58,0.7357929495,-0.12981062605,10.04207824655,0.041996985126113565,-0.0033597588100890844,-0.038179077387375956,0.004340000000000001,0.23590000000000003,-0.18998,21.5,1,609,461,839,2446,29.6766796875,87964,24.92536525351698,1013.153991570228,0,,,,N/A,False
2024-04-02T10:52:59,0.73280192125,-0.12203395259999998,10.0654082669,0.04214970143566306,-0.0044287729769356115,-0.03527746750593539,0.004340000000000001,0.23478000000000002,-0.19194000000000003,21.5,1,606,458,835,2434,29.7680859375,92598,24.95396819507501,1013.140773597255,0,,,,N/A,False
2024-04-02T10:52:59,0.705882667,-0.1531406464,9.972686391149999,0.04505131131710364,0.0009162978572970231,-0.041844268816564056,0.0071400000000000005,0.23142000000000001,-0.19082000000000002,21.5,1,606,458,835,2434,29.7680859375,92598,24.95396819507501,1013.140773597255,0,,,,N/A,False
2024-04-02T10:52:59,0.7411768003499999,-0.16689937635,10.018150020550001,0.04413501345980661,-0.006719517620178169,-0.03405573702953936,0.0071400000000000005,0.23814000000000002,-0.19362000000000001,21.5,1,606,458,835,2434,29.7680859375,92598,24.95396819507501,1013.140773597255,0,,,,N/A,False
2024-04-02T10:52:59,0.7118647235,-0.1339980656,10.025926693999999,0.038942658935123484,-0.004886921905584123,-0.036499197982331415,0.0119,0.23226000000000002,-0.19110000000000002,21.5,1,606,458,835,2434,29.5044140625,84953,24.847286325255894,1013.1563829066928,0,,,,N/A,False
2024-04-02T10:52:59,0.7393821834,-0.11545369045,9.8859465719,0.04673119072214818,-0.005192354524683131,-0.04260785036431157,0.012740000000000001,0.23142000000000001,-0.19250000000000003,21.5,1,606,458,835,2434,29.5044140625,84953,24.847286325255894,1013.1563829066928,0,,,,N/A,False
2024-04-02T10:53:00,0.7076772839499998,-0.11306086784999998,9.83150985775,0.04291328298341058,-0.003207042500539581,-0.03772092845872745,0.011340000000000001,0.22806000000000004,-0.20048000000000002,21.5,0,605,457,833,2427,29.4907421875,89742,24.867985049514946,1013.1285699439821,0,,,,N/A,False
2024-04-02T10:53:00,0.7004988161499999,-0.14775679555,9.94636534255,0.04092797095926703,0.0016798794050445422,-0.03772092845872745,0.013300000000000001,0.23674,-0.20202,21.5,0,605,457,833,2427,29.4907421875,89742,24.867985049514946,1013.1285699439821,0,,,,N/A,False
2024-04-02T10:53:00,0.6717849449499999,-0.10947163395000001,9.8249295956,0.04245513405476207,-0.006566801310628666,-0.03588833274413341,0.009940000000000001,0.23310000000000003,-0.18382,21.5,0,605,457,833,2427,29.4907421875,89742,24.867985049514946,1013.1285699439821,0,,,,N/A,False
2024-04-02T10:53:00,0.7070790782999999,-0.16630117069999997,9.886544777549998,0.04260785036431157,-0.0070249502392771765,-0.036804630601430424,0.009940000000000001,0.23786000000000002,-0.18270000000000003,21.5,0,605,457,833,2427,29.2563671875,83194,24.834207284914562,1013.1471425382324,0,,,,N/A,False
2024-04-02T10:53:00,0.68135623535,-0.15014961815,9.985248709799999,0.0435241482216086,-0.003970624048287101,-0.039858956792420505,0.01694,0.23590000000000003,-0.19488000000000003,21.5,0,603,455,829,2418,29.2563671875,83194,24.834207284914562,1013.1471425382324,0,,,,N/A,False
2024-04-02T10:53:01,0.6951149652999999,-0.16331014244999997,9.8919286284,0.04688390703169768,-0.00473420559603462,-0.04092797095926703,0.007980000000000001,0.23702,-0.19082000000000002,21.5,0,600,454,826,2407,29.273359375,88240,24.873465998226287,1013.1338215556556,0,,,,N/A,False
2024-04-02T10:53:01,0.7507480907499999,-0.13100703735,9.860223728949999,0.038789942625573975,0.0,-0.03924809155422249,0.007980000000000001,0.23926000000000003,-0.19278000000000003,21.5,0,600,454,826,2407,29.273359375,88240,24.873465998226287,1013.1338215556556,0,,,,N/A,False
