Timestamp,Accel_X,Accel_Y,Accel_Z,Gyro_X,Gyro_Y,Gyro_Z,Mag_X,Mag_Y,Mag_Z,LSM9DS1_Temp,Proximity,Color_R,Color_G,Color_B,Color_C,BME680_Temp,Gas,Humidity,Pressure,Switch_Pressed
2024-03-17T15:58:19,-0.23150558654999998,0.15613167464999997,9.883553749299999,0.021227567027381034,0.01863138976503947,0.08536841703817265,0.021700000000000004,0.41398,-0.56084,17.5,0,0,0,0,0,33.574921875,24104,100,695.662002676745,0
2024-03-17T15:58:19,-0.23509482044999996,0.15254244074999998,9.882357337999998,0.018020524526841455,0.01832595714594046,0.08460483549042512,0.016380000000000002,0.41090000000000004,-0.56266,17.5,0,0,0,0,0,33.574921875,24104,100,695.662002676745,0
2024-03-17T15:58:19,-0.22073788485,0.15553346899999998,9.858429112,0.02138028333693054,0.019853120241435502,0.08628471489546968,0.012740000000000001,0.41622000000000003,-0.5518800000000001,17.5,0,0,0,0,0,33.574921875,24104,100,695.662002676745,0
2024-03-17T15:58:19,-0.20638094924999997,0.16869399329999998,9.8799645154,0.017256942979093935,0.01786780821729195,0.08827002691961322,0.012740000000000001,0.41622000000000003,-0.5518800000000001,17.5,0,0,0,0,0,33.574921875,24104,100,695.662002676745,0
2024-03-17T15:58:19,-0.23808584869999996,0.14117653339999997,9.8811609267,0.022449297503777065,0.026114488932965158,0.0870482964432172,0.02478,0.4142600000000001,-0.55818,17.5,0,0,0,0,0,33.574921875,24104,100,695.662002676745,0
2024-03-17T15:58:19,-0.22073788485,0.1806581063,9.91525864875,0.01832595714594046,0.020922134408282028,0.0872010127527667,0.01778,0.40446000000000004,-0.55342,17.5,0,0,0,0,0,33.574921875,24104,100,695.662002676745,0
2024-03-17T15:58:19,-0.23150558654999998,0.18185451760000002,9.90209812445,0.016951510359994926,0.02306016274197508,0.08857545953871222,0.01778,0.40446000000000004,-0.55342,17.5,0,0,0,0,0,33.574921875,24104,100,695.662002676745,0
2024-03-17T15:58:19,-0.22671994134999998,0.16271193679999998,9.89372324535,0.022754730122876075,0.018020524526841455,0.08552113334772216,0.023940000000000003,0.41566000000000003,-0.5542600000000001,17.5,0,0,0,0,0,24.3712109375,4898,18.865364784139903,998.7846467404036,0
2024-03-17T15:58:19,-0.19082760235,0.17407784415000002,9.963115100749999,0.019089538693687978,0.019242255003237483,0.0867428638241182,0.02058,0.41538,-0.5520200000000001,17.5,0,0,0,0,0,24.3712109375,4898,18.865364784139903,998.7846467404036,0
2024-03-17T15:58:19,-0.2105683888,0.020338992099999998,9.925428144799998,0.0238237442897226,0.022449297503777065,0.08903360846736075,0.020300000000000002,0.40866,-0.5537000000000001,17.5,0,0,0,0,0,24.3712109375,4898,18.865364784139903,998.7846467404036,0
2024-03-17T15:58:19,-0.2165504453,0.1471585899,9.89372324535,0.020922134408282028,0.019700403931885997,0.08628471489546968,0.02198,0.40698,-0.55678,17.5,0,0,0,0,0,24.3712109375,4898,18.865364784139903,998.7846467404036,0
2024-03-17T15:58:19,-0.24825534474999997,0.15912270289999997,9.90209812445,0.022754730122876075,0.018478673455489966,0.08536841703817265,0.02198,0.40698,-0.55678,17.5,0,0,0,0,0,24.3712109375,4898,18.865364784139903,998.7846467404036,0
2024-03-17T15:58:19,-0.21954147355,0.16869399329999998,9.9218389109,0.02489275845656913,0.024434609527920616,0.08597928227637067,0.018060000000000003,0.41874000000000006,-0.5555200000000001,18.5,0,0,0,0,0,24.3712109375,4898,18.865364784139903,998.7846467404036,0
2024-03-17T15:58:19,-0.22432711874999997,0.14117653339999997,9.870991430649998,0.020005836550985007,0.021991148575128558,0.08827002691961322,0.020020000000000003,0.41118000000000005,-0.55636,17.5,0,0,0,0,0,24.3712109375,4898,18.865364784139903,998.7846467404036,0
2024-03-17T15:58:19,-0.2105683888,0.15912270289999997,9.94875816515,0.019242255003237483,0.024129176908821607,0.08811731061006371,0.020020000000000003,0.41118000000000005,-0.55636,17.5,0,0,0,0,0,24.618671875,7485,18.920393663303624,998.7768330889712,0
2024-03-17T15:58:19,-0.23928225999999997,0.3038884702,9.857830906349998,0.016035212502697904,0.022449297503777065,0.08842274322916273,0.024220000000000002,0.41650000000000004,-0.54838,18.5,0,0,0,0,0,24.618671875,7485,18.920393663303624,998.7768330889712,0
2024-03-17T15:58:19,-0.24646072779999997,0.15732808594999997,9.9349994352,0.020463985479633514,0.020005836550985007,0.08903360846736075,0.024220000000000002,0.41650000000000004,-0.54838,17.5,0,0,0,0,0,24.618671875,7485,18.920393663303624,998.7768330889712,0
2024-03-17T15:58:19,-0.24466611084999998,0.1698904046,9.93081199565,0.022754730122876075,0.019547687622336492,0.0872010127527667,0.01666,0.4142600000000001,-0.54446,18.5,0,0,0,0,0,24.618671875,7485,18.920393663303624,998.7768330889712,0
2024-03-17T15:58:19,-0.20398812665,0.16809578764999997,9.940383286049999,0.01664607774089592,0.02504547476611863,0.08567384965727166,0.02114,0.40950000000000003,-0.5548200000000001,18.5,0,0,0,0,0,24.618671875,7485,18.920393663303624,998.7768330889712,0
2024-03-17T15:58:19,-0.23928225999999997,0.1782652837,9.9517491934,0.017715091907742446,0.020769418098732523,0.08781187799096472,0.02114,0.40950000000000003,-0.5548200000000001,17.5,0,0,0,0,0,24.618671875,7485,18.920393663303624,998.7768330889712,0
2024-03-17T15:58:19,-0.20398812665,0.15912270289999997,9.955338427300001,0.02260201381332657,0.02504547476611863,0.0867428638241182,0.020300000000000002,0.41006000000000004,-0.55356,18.5,0,0,0,0,0,24.618671875,7485,18.920393663303624,998.7768330889712,0
2024-03-17T15:58:19,-0.21296121140000002,0.16630117069999997,9.95115098775,0.02138028333693054,0.01756237559819294,0.08765916168141522,0.020860000000000004,0.41062000000000004,-0.55356,18.5,0,0,0,0,0,24.98078125,10607,18.966668090574263,998.7791733436451,0
2024-03-17T15:58:19,-0.19082760235,0.16570296504999998,9.907481975299998,0.02428189321837111,0.016493361431346415,0.08582656596682116,0.019180000000000003,0.41118000000000005,-0.55244,18.5,0,0,0,0,0,24.98078125,10607,18.966668090574263,998.7791733436451,0
2024-03-17T15:58:19,-0.21355941705,0.1639083481,9.985846915449999,0.020769418098732523,0.019242255003237483,0.08827002691961322,0.01666,0.41818000000000005,-0.5495,17.5,0,1064,526,387,1945,24.98078125,10607,18.966668090574263,998.7791733436451,0
2024-03-17T15:58:19,-0.21894326790000002,0.13938191645,9.9098747979,0.019242255003237483,0.02138028333693054,0.08628471489546968,0.01666,0.41818000000000005,-0.5495,18.5,0,1064,526,387,1945,24.98078125,10607,18.966668090574263,998.7791733436451,0
2024-03-17T15:58:19,-0.22671994134999998,0.022133609050000003,9.9493563708,0.01710422666954443,0.019700403931885997,0.08933904108645975,0.022260000000000002,0.41118000000000005,-0.55132,18.5,0,1064,526,387,1945,24.98078125,10607,18.966668090574263,998.7791733436451,0
2024-03-17T15:58:19,-0.23389840915,0.16809578764999997,9.961320483799998,0.019089538693687978,0.02138028333693054,0.08735372906231621,0.020300000000000002,0.4142600000000001,-0.54754,18.5,0,1064,526,387,1945,24.98078125,10607,18.966668090574263,998.7791733436451,0
2024-03-17T15:58:20,-0.23030917524999997,0.14237294469999998,9.959525866849997,0.02061670178918302,0.024434609527920616,0.08475755179997463,0.020300000000000002,0.4142600000000001,-0.54754,18.5,0,1064,526,387,1945,24.98078125,10607,18.966668090574263,998.7791733436451,0
2024-03-17T15:58:20,-0.2309073809,0.16570296504999998,9.955338427300001,0.021227567027381034,0.02138028333693054,0.0872010127527667,0.018340000000000002,0.41398,-0.55622,18.5,0,1064,526,387,1945,25.368671875,13932,18.99913241501203,998.7890405623988,0
2024-03-17T15:58:20,-0.23030917524999997,0.13818550515,9.98345409285,0.01710422666954443,0.018784106074588976,0.0867428638241182,0.01778,0.40950000000000003,-0.5495,17.5,0,1064,526,387,1945,25.368671875,13932,18.99913241501203,998.7890405623988,0
2024-03-17T15:58:20,-0.22971096959999998,0.16630117069999997,9.97029356855,0.019089538693687978,0.0238237442897226,0.08796459430051423,0.014700000000000001,0.40922000000000003,-0.55174,18.5,0,1064,526,387,1945,25.368671875,13932,18.99913241501203,998.7890405623988,0
2024-03-17T15:58:20,-0.24167508259999998,0.14297115034999996,9.932008406949999,0.02061670178918302,0.016951510359994926,0.08750644537186571,0.01862,0.40642,-0.5586,18.5,0,1064,526,387,1945,25.368671875,13932,18.99913241501203,998.7890405623988,0
2024-03-17T15:58:20,-0.2536391956,0.17228322719999997,9.990034354999999,0.020769418098732523,0.021991148575128558,0.08643743120501918,0.01862,0.40642,-0.5586,18.5,0,1064,526,387,1945,25.368671875,13932,18.99913241501203,998.7890405623988,0
2024-03-17T15:58:20,-0.23688943739999999,0.14416756165,9.97029356855,0.017409659288643436,0.021227567027381034,0.0870482964432172,0.015260000000000001,0.41006000000000004,-0.55818,18.5,0,1064,526,387,1945,25.368671875,13932,18.99913241501203,998.7890405623988,0
2024-03-17T15:58:20,-0.22313070744999997,0.15493526335,9.910473003549999,0.021227567027381034,0.021532999646480044,0.08750644537186571,0.014420000000000002,0.41146000000000005,-0.5348,18.5,0,1064,526,387,1945,25.368671875,13932,18.99913241501203,998.7890405623988,0
2024-03-17T15:58:20,-0.2165504453,0.16211373114999997,9.967302540299999,0.015729779883598898,0.021991148575128558,0.08781187799096472,0.014420000000000002,0.41146000000000005,-0.5348,18.5,0,1064,526,387,1945,25.738984375,17290,19.02040395919858,998.799957590815,0
2024-03-17T15:58:20,-0.22911276394999996,0.14536397295,9.9469635482,0.019853120241435502,0.01863138976503947,0.08765916168141522,0.02646,0.41874000000000006,-0.5595800000000001,18.5,0,1064,526,387,1945,25.738984375,17290,19.02040395919858,998.799957590815,0
2024-03-17T15:58:20,-0.20458633229999998,0.17108681589999997,10.02413207705,0.017715091907742446,0.021227567027381034,0.08872817584826173,0.02646,0.41874000000000006,-0.5595800000000001,18.5,0,1064,526,387,1945,25.738984375,17290,19.02040395919858,998.799957590815,0
2024-03-17T15:58:20,-0.20757736054999998,0.16031911419999997,10.0031948793,0.02336559536107409,0.02229658119422756,0.08796459430051423,0.0161,0.41342,-0.5482400000000001,18.5,0,1064,526,387,1945,25.738984375,17290,19.02040395919858,998.799957590815,0
2024-03-17T15:58:20,-0.2309073809,0.15613167464999997,10.0031948793,0.021991148575128558,0.021227567027381034,0.0872010127527667,0.02254,0.42266000000000004,-0.5559400000000001,18.5,0,1064,526,387,1945,25.738984375,17290,19.02040395919858,998.799957590815,0
2024-03-17T15:58:20,-0.23509482044999996,0.1519442351,9.999007439749999,0.024129176908821607,0.017715091907742446,0.08659014751456869,0.02254,0.42266000000000004,-0.5559400000000001,18.5,0,1064,526,387,1945,25.738984375,17290,19.02040395919858,998.799957590815,0
2024-03-17T15:58:20,-0.24406790519999996,0.15014961815,9.9984092341,0.019242255003237483,0.021532999646480044,0.0870482964432172,0.0175,0.4148200000000001,-0.55608,18.5,0,1064,526,387,1945,25.738984375,17290,19.02040395919858,998.799957590815,0
2024-03-17T15:58:20,-0.22073788485,0.15972090854999998,9.96072227815,0.02138028333693054,0.021838432265579053,0.08796459430051423,0.020300000000000002,0.41398,-0.5629400000000001,18.5,0,1064,526,387,1945,26.077265625,20599,19.034755699877785,998.8170417835361,0
2024-03-17T15:58:20,-0.22313070744999997,0.1471585899,9.957133044249998,0.022754730122876075,0.014966198335851376,0.08796459430051423,0.02254,0.41762000000000005,-0.54922,18.5,0,1064,526,387,1945,26.077265625,20599,19.034755699877785,998.8170417835361,0
2024-03-17T15:58:20,-0.22013967919999997,0.15014961815,10.019944637499998,0.01863138976503947,0.019089538693687978,0.0867428638241182,0.02646,0.41370000000000007,-0.5573400000000001,18.5,0,1064,526,387,1945,26.077265625,20599,19.034755699877785,998.8170417835361,0
2024-03-17T15:58:20,-0.23270199784999998,0.17407784415000002,10.018150020550001,0.01893682238413848,0.02061670178918302,0.08765916168141522,0.02646,0.41370000000000007,-0.5573400000000001,18.5,0,1064,526,387,1945,26.077265625,20599,19.034755699877785,998.8170417835361,0
2024-03-17T15:58:20,-0.20219350969999997,0.16749758199999998,9.9972128228,0.021838432265579053,0.017715091907742446,0.0872010127527667,0.022820000000000003,0.41006000000000004,-0.5516,18.5,0,1064,526,387,1945,26.077265625,20599,19.034755699877785,998.8170417835361,0
2024-03-17T15:58:20,-0.22313070744999997,0.16689937635,9.9888379437,0.018478673455489966,0.019394971312786988,0.08781187799096472,0.02562,0.41930000000000006,-0.5665800000000001,18.5,0,1064,526,387,1945,26.077265625,20599,19.034755699877785,998.8170417835361,0
2024-03-17T15:58:20,-0.24466611084999998,0.1579262916,10.000203851049998,0.02138028333693054,0.021838432265579053,0.0872010127527667,0.02562,0.41930000000000006,-0.5665800000000001,18.5,0,1064,526,387,1945,26.077265625,20599,19.034755699877785,998.8170417835361,0
2024-03-17T15:58:20,-0.24526431649999997,0.16869399329999998,10.015158992299998,0.02229658119422756,0.02489275845656913,0.0872010127527667,0.018900000000000004,0.41846000000000005,-0.56154,18.5,0,1064,526,387,1945,26.376875,23953,19.04177219683036,998.8367890584825,0
2024-03-17T15:58:20,-0.23449661479999998,0.13938191645,9.990034354999999,0.018478673455489966,0.022754730122876075,0.08613199858592017,0.023940000000000003,0.41874000000000006,-0.56518,18.5,0,1064,526,387,1945,26.376875,23953,19.04177219683036,998.8367890584825,0
2024-03-17T15:58:20,-0.22432711874999997,0.1746760498,9.994221794549999,0.022143864884678056,0.018020524526841455,0.08842274322916273,0.023940000000000003,0.41370000000000007,-0.5516,18.5,0,1064,526,387,1945,26.376875,23953,19.04177219683036,998.8367890584825,0
2024-03-17T15:58:20,-0.28055844984999995,0.16091731985,9.999605645399999,0.02489275845656913,0.02290744643242558,0.08842274322916273,0.024500000000000004,0.42014000000000007,-0.55356,18.5,0,1064,526,387,1945,26.376875,23953,19.04177219683036,998.8367890584825,0
2024-03-17T15:58:20,-0.21355941705,0.14117653339999997,10.02413207705,0.022449297503777065,0.02336559536107409,0.08750644537186571,0.024500000000000004,0.42014000000000007,-0.55356,18.5,0,1064,526,387,1945,26.376875,23953,19.04177219683036,998.8367890584825,0
2024-03-17T15:58:20,-0.22133609049999997,0.16570296504999998,9.999605645399999,0.02336559536107409,0.02351831167062359,0.09025533894375677,0.028980000000000002,0.41538,-0.5555200000000001,18.5,0,1064,526,387,1945,26.376875,23953,19.04177219683036,998.8367890584825,0
2024-03-17T15:58:20,-0.24287149389999999,0.13758729949999998,10.027123105299998,0.01786780821729195,0.020005836550985007,0.08628471489546968,0.018340000000000002,0.41902000000000006,-0.55496,18.5,0,1064,526,387,1945,26.376875,23953,19.04177219683036,998.8367890584825,0
2024-03-17T15:58:20,-0.2165504453,0.16869399329999998,10.02772131095,0.02168571595602955,0.01832595714594046,0.08842274322916273,0.018340000000000002,0.41902000000000006,-0.55496,18.5,0,1064,526,387,1945,26.63859375,27280,19.02600304117012,998.8445677865565,0
2024-03-17T15:58:20,-0.20578274359999998,0.1639083481,10.00498949625,0.01863138976503947,0.02138028333693054,0.08888089215781124,0.023100000000000002,0.41846000000000005,-0.5616800000000001,18.5,0,1064,526,387,1945,26.63859375,27280,19.02600304117012,998.8445677865565,0
2024-03-17T15:58:20,-0.24167508259999998,0.15912270289999997,10.0163554036,0.016798794050445424,0.019089538693687978,0.08765916168141522,0.023100000000000002,0.41846000000000005,-0.5616800000000001,18.5,0,1064,526,387,1945,26.63859375,27280,19.02600304117012,998.8445677865565,0
2024-03-17T15:58:20,-0.22313070744999997,0.16271193679999998,10.054042359550001,0.01863138976503947,0.019394971312786988,0.08689558013366769,0.01974,0.41006000000000004,-0.5476800000000001,18.5,0,1064,526,387,1945,26.63859375,27280,19.02600304117012,998.8445677865565,0
2024-03-17T15:58:20,-0.22552353004999998,0.16211373114999997,10.071390323399998,0.020158552860534508,0.017715091907742446,0.08582656596682116,0.01946,0.42462000000000005,-0.54362,18.5,0,1064,526,387,1945,26.63859375,27280,19.02600304117012,998.8445677865565,0
2024-03-17T15:58:20,-0.23569302609999998,0.12741780345,10.0474620974,0.019089538693687978,0.021838432265579053,0.08781187799096472,0.01946,0.42462000000000005,-0.54362,18.5,0,1064,526,387,1945,26.63859375,27280,19.02600304117012,998.8445677865565,0
2024-03-17T15:58:20,-0.21236300575,0.15373885204999999,10.01934643185,0.02107485071783153,0.01756237559819294,0.08796459430051423,0.01778,0.41678000000000004,-0.55384,18.5,0,1064,526,387,1945,26.63859375,27280,19.02600304117012,998.8445677865565,0
2024-03-17T15:58:20,-0.24406790519999996,0.14356935599999998,9.98943614935,0.019700403931885997,0.021838432265579053,0.08933904108645975,0.01414,0.40726000000000007,-0.55818,18.5,0,1064,526,387,1945,26.864765625,30425,19.003018603099786,998.8425156082704,0
2024-03-17T15:58:20,-0.20877377184999998,0.14057832774999998,9.977472036350001,0.017409659288643436,0.019242255003237483,0.0867428638241182,0.01946,0.41678000000000004,-0.54698,18.5,0,1064,526,387,1945,26.864765625,30425,19.003018603099786,998.8425156082704,0
2024-03-17T15:58:21,-0.22612173569999997,0.16450655374999998,10.02772131095,0.019700403931885997,0.02351831167062359,0.08781187799096472,0.01778,0.41034000000000004,-0.5521600000000001,18.5,0,1064,526,387,1945,26.864765625,30425,19.003018603099786,998.8425156082704,0
2024-03-17T15:58:21,-0.2141576227,0.14356935599999998,10.024730282699998,0.019547687622336492,0.018020524526841455,0.08491026810952414,0.01778,0.41034000000000004,-0.5521600000000001,18.5,0,1064,526,387,1945,26.864765625,30425,19.003018603099786,998.8425156082704,0
2024-03-17T15:58:21,-0.22971096959999998,0.17168502154999998,10.039685423949999,0.019547687622336492,0.02306016274197508,0.0867428638241182,0.020860000000000004,0.42098,-0.54208,18.5,0,1064,526,387,1945,26.864765625,30425,19.003018603099786,998.8425156082704,0
2024-03-17T15:58:21,-0.22432711874999997,0.15373885204999999,10.02652489965,0.019394971312786988,0.020311269170084013,0.08689558013366769,0.020020000000000003,0.41818000000000005,-0.5572,18.5,0,1064,526,387,1945,26.864765625,30425,19.003018603099786,998.8425156082704,0
2024-03-17T15:58:21,-0.19860427579999998,0.16809578764999997,9.990632560649999,0.019242255003237483,0.02260201381332657,0.0867428638241182,0.020020000000000003,0.41818000000000005,-0.5572,18.5,0,1064,526,387,1945,26.864765625,30425,19.003018603099786,998.8425156082704,0
2024-03-17T15:58:21,-0.22971096959999998,0.19860427579999998,10.078568791199999,0.02306016274197508,0.02168571595602955,0.08857545953871222,0.020020000000000003,0.42266000000000004,-0.5555200000000001,18.5,0,1064,526,387,1945,27.0594921875,33489,18.98852334219891,998.8480985261705,0
2024-03-17T15:58:21,-0.23808584869999996,0.15852449724999998,10.0354979844,0.01618792881224741,0.019089538693687978,0.08643743120501918,0.020860000000000004,0.41678000000000004,-0.5551,18.5,0,1064,526,387,1945,27.0594921875,33489,18.98852334219891,998.8480985261705,0
2024-03-17T15:58:21,-0.24346969954999997,0.15852449724999998,10.024730282699998,0.018020524526841455,0.021532999646480044,0.0872010127527667,0.020860000000000004,0.41678000000000004,-0.5551,18.5,0,1064,526,387,1945,27.0594921875,33489,18.98852334219891,998.8480985261705,0
2024-03-17T15:58:21,-0.23509482044999996,0.1639083481,10.012766169699999,0.02229658119422756,0.021991148575128558,0.08781187799096472,0.02198,0.41930000000000006,-0.55356,18.5,0,1064,526,387,1945,27.0594921875,33489,18.98852334219891,998.8480985261705,0
2024-03-17T15:58:21,-0.24885355039999998,0.10408778309999998,10.104291634149998,0.020311269170084013,0.021227567027381034,0.08781187799096472,0.02058,0.41202000000000005,-0.5555200000000001,18.5,0,1064,526,387,1945,27.0594921875,33489,18.98852334219891,998.8480985261705,0
2024-03-17T15:58:21,-0.23988046564999999,0.15613167464999997,10.06122082735,0.01664607774089592,0.02168571595602955,0.08872817584826173,0.02058,0.41202000000000005,-0.5555200000000001,18.5,0,1064,526,387,1945,27.0594921875,33489,18.98852334219891,998.8480985261705,0
2024-03-17T15:58:21,-0.21834506225,0.17587246110000002,10.024730282699998,0.02061670178918302,0.026725354171163174,0.08491026810952414,0.0161,0.42378000000000005,-0.54334,18.5,0,1064,526,387,1945,27.0594921875,33489,18.98852334219891,998.8480985261705,0
2024-03-17T15:58:21,-0.24107687694999996,0.15134602945,10.02413207705,0.021227567027381034,0.02504547476611863,0.08506298441907365,0.013580000000000002,0.41846000000000005,-0.55762,18.5,0,1064,526,387,1945,27.22921875,36436,18.967416859831356,998.8468677147833,0
2024-03-17T15:58:21,-0.23928225999999997,0.15672988029999999,10.055238770849998,0.01893682238413848,0.01786780821729195,0.08842274322916273,0.01974,0.42574000000000006,-0.54334,18.5,0,1064,526,387,1944,27.22921875,36436,18.967416859831356,998.8468677147833,0
2024-03-17T15:58:21,-0.21894326790000002,0.15254244074999998,10.027123105299998,0.01832595714594046,0.013897184169004852,0.08613199858592017,0.02338,0.4151,-0.5489400000000001,18.5,0,1064,526,387,1944,27.22921875,36436,18.967416859831356,998.8468677147833,0
2024-03-17T15:58:21,-0.22791635265,0.16929219894999997,10.076175968599998,0.020005836550985007,0.01863138976503947,0.08521570072862314,0.02338,0.4151,-0.5489400000000001,18.5,0,1064,526,387,1944,27.22921875,36436,18.967416859831356,998.8468677147833,0
2024-03-17T15:58:21,-0.26620151425,0.13579268255,10.0008020567,0.020158552860534508,0.02306016274197508,0.08949175739600926,0.01666,0.41930000000000006,-0.5509000000000001,18.5,0,1064,526,387,1944,27.22921875,36436,18.967416859831356,998.8468677147833,0
2024-03-17T15:58:21,-0.2177468566,0.15553346899999998,10.068997500799998,0.02168571595602955,0.01664607774089592,0.08445211918087563,0.01946,0.42322000000000004,-0.5489400000000001,18.5,0,1064,526,387,1944,27.22921875,36436,18.967416859831356,998.8468677147833,0
2024-03-17T15:58:21,-0.22013967919999997,0.14057832774999998,10.043274657849999,0.022449297503777065,0.022754730122876075,0.08689558013366769,0.01946,0.42322000000000004,-0.5489400000000001,18.5,0,1064,526,387,1944,27.22921875,36436,18.967416859831356,998.8468677147833,0
2024-03-17T15:58:21,-0.23569302609999998,0.15254244074999998,10.02293566575,0.021991148575128558,0.019547687622336492,0.08506298441907365,0.015540000000000002,0.42462000000000005,-0.55384,18.5,0,1064,526,387,1944,27.3753125,39578,18.92429434393605,998.8410932217815,0
2024-03-17T15:58:21,-0.23629123174999997,0.16151552549999998,10.03250695615,0.06398813370124211,-0.11239920382843482,-0.06536258048718765,0.020860000000000004,0.41398,-0.5695200000000001,18.5,0,1064,526,387,1944,27.3753125,39578,18.92429434393605,998.8410932217815,0
2024-03-17T15:58:21,-0.20219350969999997,0.18005990065000002,10.0474620974,0.060628374891153025,-0.10186177846951906,-0.06582072941583615,0.01414,0.4142600000000001,-0.5405400000000001,18.5,0,1064,526,387,1944,27.3753125,39578,18.92429434393605,998.8410932217815,0
2024-03-17T15:58:21,-0.19860427579999998,0.1734796385,10.01456078665,0.05910121179565799,-0.08017606251348951,-0.06795875774952921,0.015260000000000001,0.42238000000000003,-0.5559400000000001,18.5,0,1064,526,387,1944,27.3753125,39578,18.92429434393605,998.8410932217815,0
2024-03-17T15:58:21,-0.24346969954999997,0.15912270289999997,10.04088183525,0.04413501345980661,-0.06856962298772723,-0.0552833040569204,0.015260000000000001,0.42238000000000003,-0.5559400000000001,18.5,0,1064,526,387,1944,27.3753125,39578,18.92429434393605,998.8410932217815,0
2024-03-17T15:58:21,-0.19322042494999997,0.15014961815,9.976873830699999,0.04505131131710364,-0.050701814770435276,-0.05864306286700948,0.013020000000000002,0.41538,-0.56406,18.5,0,1064,526,387,1944,27.3753125,39578,18.92429434393605,998.8410932217815,0
2024-03-17T15:58:21,-0.23150558654999998,0.0011964113,10.03848901265,0.04520402762665314,-0.036193765363232405,-0.0552833040569204,0.018340000000000002,0.41790000000000005,-0.5464200000000001,18.5,0,1064,526,387,1944,27.3753125,39578,18.92429434393605,998.8410932217815,0
2024-03-17T15:58:21,-0.19322042494999997,0.17886348935000002,10.0594262104,0.04291328298341058,-0.024740042147019626,-0.05833763024791047,0.018340000000000002,0.41790000000000005,-0.5464200000000001,18.5,0,1064,526,387,1944,27.5036328125,42272,18.890454572095756,998.8564017603588,0
2024-03-17T15:58:21,-0.18185451760000002,0.18005990065000002,10.048658508699999,0.03466660226773738,0.002901609881440573,-0.05772676500971245,0.012740000000000001,0.42210000000000003,-0.5369,18.5,0,1064,526,387,1944,27.5036328125,42272,18.890454572095756,998.8564017603588,0
2024-03-17T15:58:21,-0.23928225999999997,0.16570296504999998,10.040283629599998,0.03054326190990077,0.0070249502392771765,-0.05665775084286593,0.012740000000000001,0.42210000000000003,-0.5369,18.5,0,1064,526,387,1944,27.5036328125,42272,18.890454572095756,998.8564017603588,0
2024-03-17T15:58:21,-0.21355941705,0.1734796385,10.06481006125,0.03741549583962844,0.008704829644321718,-0.05696318346196494,0.019180000000000003,0.41594000000000003,-0.54124,18.5,0,1064,526,387,1944,27.5036328125,42272,18.890454572095756,998.8564017603588,0
2024-03-17T15:58:21,-0.23629123174999997,0.16091731985,10.073783145999998,0.0357356164345839,0.010995574287564279,-0.0552833040569204,0.020300000000000002,0.41706000000000004,-0.55874,18.5,0,1064,526,387,1944,27.5036328125,42272,18.890454572095756,998.8564017603588,0
2024-03-17T15:58:21,-0.21236300575,0.1734796385,10.08155981945,0.03359758810089085,0.014049900478554353,-0.04642575810304917,0.020300000000000002,0.41706000000000004,-0.55874,18.5,0,1064,526,387,1944,27.5036328125,42272,18.890454572095756,998.8564017603588,0
2024-03-17T15:58:21,-0.19621145319999997,0.18125631194999997,10.138987561849998,0.0355829001250344,0.010842857978014774,-0.05238169417547982,0.023660000000000004,0.41398,-0.55342,18.5,0,1064,526,387,1944,27.5036328125,42272,18.890454572095756,998.8564017603588,0
2024-03-17T15:58:21,-0.23629123174999997,0.2967100024,10.051649536949999,0.03741549583962844,0.009010262263420728,-0.052228977865930316,0.01414,0.4277,-0.54712,18.5,0,1064,526,387,1944,27.6145703125,44925,18.845284558803808,998.8595235021331,0
2024-03-17T15:58:21,-0.21296121140000002,0.17168502154999998,10.04985492,0.03802636107782646,0.008399397025222712,-0.050396382151336266,0.020020000000000003,0.42322000000000004,-0.5579000000000001,18.5,0,1064,526,387,1944,27.6145703125,44925,18.845284558803808,998.8595235021331,0
2024-03-17T15:58:21,-0.20159530404999998,0.1447657673,10.08155981945,0.03726277953007894,0.010995574287564279,-0.04963280060358875,0.018900000000000004,0.42406000000000005,-0.54978,18.5,0,1064,526,387,1944,27.6145703125,44925,18.845284558803808,998.8595235021331,0
2024-03-17T15:58:21,-0.20219350969999997,0.16031911419999997,10.0701939121,0.03604104905368291,0.008704829644321718,-0.049938233222687756,0.018900000000000004,0.42406000000000005,-0.54978,18.5,0,1064,526,387,1944,27.6145703125,44925,18.845284558803808,998.8595235021331,0
2024-03-17T15:58:21,-0.22612173569999997,0.13579268255,10.1132647189,0.036193765363232405,0.01069014166846527,-0.04963280060358875,0.024500000000000004,0.42014000000000007,-0.53984,18.5,0,1064,526,387,1944,27.6145703125,44925,18.845284558803808,998.8595235021331,0
2024-03-17T15:58:21,-0.2309073809,0.16091731985,10.0558369765,0.039553524173321496,0.012217304763960308,-0.051159963699083794,0.013300000000000001,0.41846000000000005,-0.5440400000000001,18.5,0,1064,526,387,1944,27.6145703125,44925,18.845284558803808,998.8595235021331,0
2024-03-17T15:58:21,-0.23988046564999999,0.16869399329999998,10.060622621699999,0.04123340357836604,0.007330382858376185,-0.04703662334124718,0.013300000000000001,0.41846000000000005,-0.5440400000000001,18.5,0,1064,526,387,1944,27.6145703125,44925,18.845284558803808,998.8595235021331,0
2024-03-17T15:58:21,-0.18843477974999998,0.17108681589999997,10.080961613799998,0.039553524173321496,0.00595593607243065,-0.04673119072214818,0.02142,0.42322000000000004,-0.54362,18.5,0,1064,526,387,1944,27.71203125,47799,18.819968204579762,998.862174442624,0
2024-03-17T15:58:22,-0.20638094924999997,0.16271193679999998,10.061819032999999,0.039095375244672985,0.007941248096574201,-0.04123340357836604,0.0175,0.42294000000000004,-0.5509000000000001,18.5,0,1064,525,387,1944,27.71203125,47799,18.819968204579762,998.862174442624,0
2024-03-17T15:58:22,-0.22013967919999997,0.15493526335,10.0929257268,0.040317105721069016,0.004886921905584123,-0.04077525464971753,0.02198,0.4151,-0.5569200000000001,18.5,0,1064,525,387,1944,27.71203125,47799,18.819968204579762,998.862174442624,0
2024-03-17T15:58:22,-0.21714865095,0.15732808594999997,10.01456078665,0.04260785036431157,0.0044287729769356115,-0.050854531079984784,0.02142,0.42378000000000005,-0.5579000000000001,18.5,0,1064,525,387,1944,27.71203125,47799,18.819968204579762,998.862174442624,0
2024-03-17T15:58:22,-0.22911276394999996,0.16151552549999998,10.0546405652,0.041844268816564056,0.0025961772623415654,-0.041691552507014555,0.02142,0.42378000000000005,-0.5579000000000001,18.5,0,1064,525,387,1944,27.71203125,47799,18.819968204579762,998.862174442624,0
2024-03-17T15:58:22,-0.22552353004999998,0.17288143285000002,10.076175968599998,0.04306599929296009,0.002901609881440573,-0.04245513405476207,0.02254,0.42518000000000006,-0.5478200000000001,18.5,0,1064,525,387,1944,27.71203125,47799,18.819968204579762,998.862174442624,0
2024-03-17T15:58:22,-0.20937197749999997,0.15254244074999998,10.067801089499998,0.039400807863771994,0.004123340357836604,-0.04428772976935611,0.021700000000000004,0.41790000000000005,-0.5558000000000001,18.5,0,1064,525,387,1944,27.71203125,47799,18.819968204579762,998.862174442624,0
2024-03-17T15:58:22,-0.2237289131,0.16211373114999997,10.060024416049998,0.04321871560250959,0.002138028333693054,-0.038179077387375956,0.021700000000000004,0.41790000000000005,-0.5558000000000001,18.5,0,1064,525,387,1944,27.7973828125,50217,18.7629989768437,998.859440839991,0
2024-03-17T15:58:22,-0.24047867129999997,0.15912270289999997,9.98704332675,0.04153883619746505,0.00045814892864851157,-0.04612032548395016,0.018900000000000004,0.41202000000000005,-0.55636,18.5,0,1064,525,387,1944,27.7973828125,50217,18.7629989768437,998.859440839991,0
2024-03-17T15:58:22,-0.22313070744999997,0.18424734019999997,10.148558852249998,0.04123340357836604,0.0016798794050445422,-0.04596760917440065,0.018900000000000004,0.41202000000000005,-0.55636,18.5,0,1064,525,387,1944,27.7973828125,50217,18.7629989768437,998.859440839991,0
2024-03-17T15:58:22,-0.2141576227,0.15672988029999999,10.04566748045,0.04413501345980661,-0.001069014166846527,-0.04612032548395016,0.01862,0.4148200000000001,-0.55272,18.5,0,1064,525,387,1944,27.7973828125,50217,18.7629989768437,998.859440839991,0
2024-03-17T15:58:22,-0.22612173569999997,0.15852449724999998,10.0414800409,0.039858956792420505,-0.0009162978572970231,-0.043982297150257116,0.028700000000000003,0.42910000000000004,-0.5509000000000001,18.5,0,1064,525,387,1944,27.7973828125,50217,18.7629989768437,998.859440839991,0
2024-03-17T15:58:22,-0.21236300575,0.16869399329999998,10.07916699685,0.03726277953007894,-0.0027488935718910697,-0.04642575810304917,0.028700000000000003,0.42910000000000004,-0.5509000000000001,18.5,0,1064,525,387,1944,27.7973828125,50217,18.7629989768437,998.859440839991,0
2024-03-17T15:58:22,-0.2117648001,0.16091731985,10.0438728635,0.038942658935123484,-0.0013744467859455349,-0.0435241482216086,0.020860000000000004,0.41566000000000003,-0.5446,18.5,0,1064,525,387,1944,27.7973828125,50217,18.7629989768437,998.859440839991,0
2024-03-17T15:58:22,-0.2105683888,0.17228322719999997,10.051649536949999,0.04001167310197001,-0.002901609881440573,-0.04520402762665314,0.015260000000000001,0.41678000000000004,-0.55818,18.5,0,1064,525,387,1944,27.87375,52794,18.710675469483363,998.8510405491375,0
2024-03-17T15:58:22,-0.22911276394999996,0.14177473905,10.067801089499998,0.04153883619746505,-0.002901609881440573,-0.04214970143566306,0.020860000000000004,0.41650000000000004,-0.5546800000000001,18.5,0,1064,525,387,1944,27.87375,52794,18.710675469483363,998.8510405491375,0
2024-03-17T15:58:22,-0.22492532440000002,0.17407784415000002,10.11745215845,0.03924809155422249,0.0006108652381980154,-0.04550946024575215,0.014420000000000002,0.43750000000000006,-0.5510400000000001,18.5,0,1064,525,387,1944,27.87375,52794,18.710675469483363,998.8510405491375,0
2024-03-17T15:58:22,-0.22432711874999997,0.00418743955,9.99661461715,0.04092797095926703,-0.00045814892864851157,-0.04535674393620265,0.014420000000000002,0.43750000000000006,-0.5510400000000001,18.5,0,1064,525,387,1944,27.87375,52794,18.710675469483363,998.8510405491375,0
2024-03-17T15:58:22,-0.22612173569999997,0.1806581063,10.062417238649997,0.038179077387375956,-0.0016798794050445422,-0.041844268816564056,0.023940000000000003,0.41454,-0.5566400000000001,18.5,0,1064,525,387,1944,27.87375,52794,18.710675469483363,998.8510405491375,0
2024-03-17T15:58:22,-0.21236300575,0.14955141249999998,10.07557776295,0.043676864531158106,-0.0013744467859455349,-0.04566217655530165,0.022260000000000002,0.42798,-0.5509000000000001,18.5,0,1064,525,387,1944,27.87375,52794,18.710675469483363,998.8510405491375,0
2024-03-17T15:58:22,-0.1806581063,0.1531406464,10.1168539528,0.0435241482216086,-0.0015271630954950385,-0.04489859500755413,0.022260000000000002,0.42798,-0.5509000000000001,18.5,0,1064,525,387,1944,27.87375,52794,18.710675469483363,998.8510405491375,0
2024-03-17T15:58:22,-0.22552353004999998,0.16570296504999998,10.110273690649999,0.04291328298341058,-0.0024434609527920616,-0.04673119072214818,0.02338,0.41958000000000006,-0.5548200000000001,18.5,0,1064,525,387,1944,27.9407421875,55032,18.673284692572555,998.8470725718951,0
2024-03-17T15:58:22,-0.20638094924999997,0.15014961815,10.0905329042,0.0433714319120591,-0.004123340357836604,-0.04596760917440065,0.01946,0.42294000000000004,-0.5558000000000001,18.5,0,1064,525,387,1944,27.9407421875,55032,18.673284692572555,998.8470725718951,0
2024-03-17T15:58:22,-0.20757736054999998,0.17527425545,10.068997500799998,0.041080687268816536,-0.0016798794050445422,-0.0435241482216086,0.022820000000000003,0.42126,-0.5558000000000001,18.5,0,1064,525,387,1944,27.9407421875,55032,18.673284692572555,998.8470725718951,0
2024-03-17T15:58:22,-0.19740786449999997,0.1471585899,10.071390323399998,0.04581489286485116,-0.00045814892864851157,-0.04566217655530165,0.022260000000000002,0.41790000000000005,-0.55062,18.5,0,1064,525,387,1944,27.9407421875,55032,18.673284692572555,998.8470725718951,0
2024-03-17T15:58:22,-0.2165504453,0.020937197749999997,10.051649536949999,0.041691552507014555,-0.0006108652381980154,-0.043982297150257116,0.02058,0.42798,-0.5541200000000001,18.5,0,1064,525,387,1944,27.9407421875,55032,18.673284692572555,998.8470725718951,0
2024-03-17T15:58:22,-0.21834506225,0.16630117069999997,10.080961613799998,0.04566217655530165,-0.0003054326190990077,-0.043982297150257116,0.02058,0.42798,-0.5541200000000001,18.5,0,1064,525,387,1944,27.9407421875,55032,18.673284692572555,998.8470725718951,0
2024-03-17T15:58:22,-0.20757736054999998,0.14895320685,10.06361364995,0.038179077387375956,-0.0022907446432425577,-0.03741549583962844,0.015540000000000002,0.41538,-0.5523,18.5,0,1064,525,387,1944,27.9407421875,55032,18.673284692572555,998.8470725718951,0
2024-03-17T15:58:22,-0.23748764304999997,0.15074782379999999,10.0654082669,0.04153883619746505,-0.0006108652381980154,-0.041844268816564056,0.02142,0.42126,-0.5370400000000001,18.5,0,1064,525,387,1944,28.0001171875,57468,18.60968775876145,998.8450341398993,0
2024-03-17T15:58:22,-0.25722842949999997,0.13160524299999998,10.039685423949999,0.04382958084070761,-0.0027488935718910697,-0.04276056667386108,0.01778,0.42434000000000005,-0.5385800000000001,18.5,0,1064,526,387,1944,28.0001171875,57468,18.60968775876145,998.8450341398993,0
2024-03-17T15:58:22,-0.21296121140000002,0.15732808594999997,10.06839929515,0.03787364476827696,-0.003054326190990077,-0.04444044607890562,0.01386,0.42406000000000005,-0.5418000000000001,18.5,0,1064,526,387,1944,28.0001171875,57468,18.60968775876145,998.8450341398993,0
2024-03-17T15:58:22,-0.22671994134999998,0.16450655374999998,10.064211855599998,0.04673119072214818,-0.0007635815477475193,-0.04444044607890562,0.01386,0.42406000000000005,-0.5418000000000001,18.5,0,1064,526,387,1944,28.0001171875,57468,18.60968775876145,998.8450341398993,0
2024-03-17T15:58:22,-0.21834506225,0.16570296504999998,10.057033387799999,0.07712173632249944,-0.002138028333693054,-0.04780020488899471,0.025900000000000003,0.41930000000000006,-0.5507600000000001,18.5,0,1064,526,387,1944,28.0001171875,57468,18.60968775876145,998.8450341398993,0
2024-03-17T15:58:22,-0.2237289131,0.16450655374999998,10.105488045449999,0.04046982203061852,-0.0003054326190990077,-0.04566217655530165,0.02338,0.41454,-0.539,18.5,0,1064,526,387,1944,28.0001171875,57468,18.60968775876145,998.8450341398993,0
2024-03-17T15:58:22,-0.20937197749999997,0.17407784415000002,10.071988529050001,0.04016438941151951,-0.0025961772623415654,-0.043676864531158106,0.02338,0.41454,-0.539,18.5,0,1064,526,387,1944,28.0001171875,57468,18.60968775876145,998.8450341398993,0
2024-03-17T15:58:22,-0.22193429615000002,0.18125631194999997,10.1431750014,0.039706240482871004,-0.0022907446432425577,-0.043676864531158106,0.025340000000000005,0.41958000000000006,-0.5392800000000001,18.5,0,1064,526,387,1944,28.05421875,59874,18.561261485815994,998.846944154313,0
2024-03-17T15:58:22,-0.21355941705,0.1782652837,10.0941221381,0.03726277953007894,-0.007635815477475193,-0.04276056667386108,0.01946,0.42322000000000004,-0.5455800000000001,18.5,0,1064,526,387,1944,28.05421875,59874,18.561261485815994,998.846944154313,0
2024-03-17T15:58:22,-0.22133609049999997,0.16331014244999997,10.088738287249999,0.04276056667386108,-0.002901609881440573,-0.0476474885794452,0.015260000000000001,0.4151,-0.5500600000000001,18.5,0,1064,526,387,1944,28.05421875,59874,18.561261485815994,998.846944154313,0
2024-03-17T15:58:23,-0.2105683888,0.1328016543,10.060024416049998,0.038789942625573975,-0.0054977871437821395,-0.04444044607890562,0.015260000000000001,0.4151,-0.5500600000000001,18.5,0,1064,526,387,1944,28.05421875,59874,18.561261485815994,998.846944154313,0
2024-03-17T15:58:23,-0.23330020349999997,0.1531406464,10.091729315499999,0.041080687268816536,-0.005039638215133627,-0.0474947722698957,0.014420000000000002,0.41706000000000004,-0.5439,18.5,0,1064,526,387,1944,28.05421875,59874,18.561261485815994,998.846944154313,0
2024-03-17T15:58:23,-0.22971096959999998,0.13938191645,10.0749795573,0.04092797095926703,-0.004123340357836604,-0.04428772976935611,0.029540000000000004,0.41146000000000005,-0.5614000000000001,18.5,0,1064,526,387,1944,28.05421875,59874,18.561261485815994,998.846944154313,0
2024-03-17T15:58:23,-0.19262221929999998,0.13938191645,10.12104139235,0.04505131131710364,0.00045814892864851157,-0.0433714319120591,0.029540000000000004,0.41146000000000005,-0.54922,18.5,0,1064,526,387,1944,28.05421875,59874,18.561261485815994,998.846944154313,0
2024-03-17T15:58:23,-0.23449661479999998,0.17407784415000002,10.07557776295,0.04413501345980661,-0.0012217304763960308,-0.04428772976935611,0.015540000000000002,0.42154,-0.54922,18.5,0,1064,526,387,1944,28.1024609375,61940,18.512508679712656,998.8464936405402,0
2024-03-17T15:58:23,-0.1950150419,0.14895320685,10.05882800475,0.04688390703169768,0.005345070834232635,-0.04459316238845512,0.025060000000000002,0.42378000000000005,-0.5489400000000001,18.5,0,1064,526,387,1944,28.1024609375,61940,18.512508679712656,998.8464936405402,0
2024-03-17T15:58:23,-0.21595223965000002,0.14536397295,10.02054284315,0.041844268816564056,0.0009162978572970231,-0.040622538340168025,0.02142,0.41706000000000004,-0.5462800000000001,18.5,0,1064,526,387,1944,28.1024609375,61940,18.512508679712656,998.8464936405402,0
2024-03-17T15:58:23,-0.22791635265,0.17108681589999997,10.04088183525,0.04520402762665314,-0.0006108652381980154,-0.04581489286485116,0.01778,0.41986,-0.54222,18.5,0,1064,526,387,1944,28.1024609375,61940,18.512508679712656,998.8464936405402,0
2024-03-17T15:58:23,-0.22432711874999997,0.14536397295,10.067801089499998,0.041844268816564056,-0.005345070834232635,-0.04520402762665314,0.01778,0.41986,-0.54222,18.5,0,1064,526,387,1944,28.1024609375,61940,18.512508679712656,998.8464936405402,0
2024-03-17T15:58:23,-0.23210379219999996,0.15373885204999999,10.067801089499998,0.04810563750809371,-0.003970624048287101,-0.04566217655530165,0.018340000000000002,0.4151,-0.5467000000000001,18.5,0,1064,526,387,1944,28.1024609375,61940,18.512508679712656,998.8464936405402,0
2024-03-17T15:58:23,-0.23150558654999998,0.16331014244999997,10.050453125649998,0.043982297150257116,-0.0035124751196385882,-0.04459316238845512,0.01694,0.42266000000000004,-0.55132,18.5,0,1064,526,387,1944,28.1024609375,61940,18.512508679712656,998.8464936405402,0
2024-03-17T15:58:23,-0.22013967919999997,0.15254244074999998,10.064211855599998,0.041996985126113565,-0.005039638215133627,-0.04703662334124718,0.01694,0.42714,-0.54656,18.5,0,1064,526,387,1944,28.147578125,64203,18.45843845734057,998.8445426563995,0
2024-03-17T15:58:23,-0.22731814699999997,0.14117653339999997,10.0414800409,0.040317105721069016,0.0025961772623415654,-0.0435241482216086,0.015540000000000002,0.41706000000000004,-0.5432,18.5,0,1064,526,387,1944,28.147578125,64203,18.45843845734057,998.8445426563995,0
2024-03-17T15:58:23,-0.22133609049999997,0.15912270289999997,10.085149053349998,0.04382958084070761,-0.002138028333693054,-0.04306599929296009,0.015540000000000002,0.41706000000000004,-0.5432,18.5,0,1064,526,387,1944,28.147578125,64203,18.45843845734057,998.8445426563995,0
2024-03-17T15:58:23,-0.2225325018,0.14177473905,10.0821580251,0.037110063220529434,-0.001069014166846527,-0.04459316238845512,0.018340000000000002,0.41566000000000003,-0.53872,18.5,0,1064,526,387,1944,28.147578125,64203,18.45843845734057,998.8445426563995,0
2024-03-17T15:58:23,-0.18723836844999997,0.14237294469999998,10.0510513313,0.04153883619746505,-0.0035124751196385882,-0.04596760917440065,0.01246,0.41314000000000006,-0.54698,18.5,0,1064,526,387,1944,28.147578125,64203,18.45843845734057,998.8445426563995,0
2024-03-17T15:58:23,-0.23150558654999998,0.15672988029999999,10.082756230749998,0.041996985126113565,0.0003054326190990077,-0.04489859500755413,0.01246,0.41314000000000006,-0.54698,18.5,0,1064,526,387,1944,28.147578125,64203,18.45843845734057,998.8445426563995,0
2024-03-17T15:58:23,-0.20578274359999998,0.16211373114999997,10.0821580251,0.03695734691097993,0.0019853120241435504,-0.04092797095926703,0.020020000000000003,0.42462000000000005,-0.53158,18.5,0,1064,526,387,1944,28.147578125,64203,18.45843845734057,998.8445426563995,0
2024-03-17T15:58:23,-0.23330020349999997,0.14356935599999998,10.08634546465,0.04306599929296009,-0.0024434609527920616,-0.04489859500755413,0.0161,0.41650000000000004,-0.5397000000000001,18.5,0,1064,526,387,1944,28.1887890625,66114,18.40930671415072,998.8505552916818,0
2024-03-17T15:58:23,-0.23150558654999998,0.1471585899,10.076774174250001,0.04214970143566306,0.0006108652381980154,-0.04046982203061852,0.01862,0.41678000000000004,-0.54796,18.5,0,1064,526,387,1944,28.1887890625,66114,18.40930671415072,998.8505552916818,0
2024-03-17T15:58:23,-0.20458633229999998,0.16749758199999998,10.05763159345,0.04260785036431157,-0.001069014166846527,-0.04550946024575215,0.022260000000000002,0.4207,-0.5496400000000001,18.5,0,1064,526,387,1944,28.1887890625,66114,18.40930671415072,998.8505552916818,0
2024-03-17T15:58:23,-0.23808584869999996,0.16091731985,10.071390323399998,0.03802636107782646,-0.0019853120241435504,-0.04153883619746505,0.01694,0.41874000000000006,-0.5418000000000001,18.5,0,1064,526,387,1944,28.1887890625,66114,18.40930671415072,998.8505552916818,0
2024-03-17T15:58:23,-0.21296121140000002,0.15972090854999998,10.02772131095,0.04046982203061852,-0.006108652381980154,-0.04459316238845512,0.01694,0.41874000000000006,-0.5418000000000001,18.5,0,1064,526,387,1944,28.1887890625,66114,18.40930671415072,998.8505552916818,0
2024-03-17T15:58:23,-0.22492532440000002,0.16031911419999997,10.07557776295,0.038331793696925465,-0.0044287729769356115,-0.04230241774521256,0.022820000000000003,0.42462000000000005,-0.5518800000000001,18.5,0,1064,526,387,1944,28.1887890625,66114,18.40930671415072,998.8505552916818,0
2024-03-17T15:58:23,-0.22671994134999998,0.15553346899999998,10.073783145999998,0.00015271630954950385,-0.005039638215133627,-0.04382958084070761,0.022260000000000002,0.42882000000000003,-0.5446,18.5,0,1064,526,387,1944,28.1887890625,66114,18.40930671415072,998.8505552916818,0
2024-03-17T15:58:23,-0.20757736054999998,0.14177473905,10.0235338714,0.04566217655530165,0.0019853120241435504,-0.04612032548395016,0.022260000000000002,0.42882000000000003,-0.5446,18.5,0,1064,526,387,1944,28.2286328125,68364,18.3498181058885,998.8561331438441,0
2024-03-17T15:58:23,-0.2105683888,0.1471585899,10.068997500799998,0.04092797095926703,-0.00473420559603462,-0.04413501345980661,0.023660000000000004,0.42014000000000007,-0.546,18.5,0,1064,526,387,1944,28.2286328125,68364,18.3498181058885,998.8561331438441,0
2024-03-17T15:58:23,-0.22731814699999997,0.14297115034999996,10.07318494035,0.041080687268816536,-0.0006108652381980154,-0.04550946024575215,0.023660000000000004,0.42014000000000007,-0.546,18.5,0,1064,526,387,1944,28.2286328125,68364,18.3498181058885,998.8561331438441,0
2024-03-17T15:58:23,-0.22851455829999998,0.15972090854999998,10.134800122299998,0.041080687268816536,-0.0016798794050445422,-0.04505131131710364,0.02058,0.42014000000000007,-0.5488000000000001,18.5,0,1064,526,387,1944,28.2286328125,68364,18.3498181058885,998.8561331438441,0
2024-03-17T15:58:23,-0.23270199784999998,0.1579262916,10.070792117749999,0.04276056667386108,-0.00473420559603462,-0.04550946024575215,0.015260000000000001,0.41902000000000006,-0.5502,18.5,0,1064,526,387,1944,28.2286328125,68364,18.3498181058885,998.8561331438441,0
2024-03-17T15:58:23,-0.22073788485,0.1782652837,10.09352393245,0.039706240482871004,-0.0019853120241435504,-0.041996985126113565,0.015260000000000001,0.41902000000000006,-0.5502,18.5,0,1064,526,387,1944,28.2286328125,68364,18.3498181058885,998.8561331438441,0
2024-03-17T15:58:23,-0.22432711874999997,0.14656038424999998,10.0941221381,0.041386119887915546,0.0006108652381980154,-0.0474947722698957,0.02114,0.41874000000000006,-0.54068,18.5,0,1064,526,387,1944,28.2286328125,68364,18.3498181058885,998.8561331438441,0
2024-03-17T15:58:23,-0.19262221929999998,0.17766707805,10.0941221381,0.04291328298341058,-0.00473420559603462,-0.04596760917440065,0.014700000000000001,0.41930000000000006,-0.5437600000000001,18.5,0,1064,526,387,1944,28.264375,70595,18.310689687730093,998.8657863691095,0
2024-03-17T15:58:23,-0.22851455829999998,0.15074782379999999,10.0773723799,0.04245513405476207,-0.002138028333693054,-0.04642575810304917,0.015260000000000001,0.42490000000000006,-0.54474,18.5,0,1064,526,387,1944,28.264375,70595,18.310689687730093,998.8657863691095,0
2024-03-17T15:58:23,-0.2225325018,0.16689937635,10.083354436399997,0.041691552507014555,-0.0024434609527920616,-0.04489859500755413,0.020300000000000002,0.42098,-0.5489400000000001,18.5,0,1064,526,387,1944,28.264375,70595,18.310689687730093,998.8657863691095,0
2024-03-17T15:58:23,-0.215354034,0.14775679555,10.067801089499998,0.041386119887915546,0.00045814892864851157,-0.04444044607890562,0.020300000000000002,0.42098,-0.5489400000000001,18.5,0,1064,526,387,1944,28.264375,70595,18.310689687730093,998.8657863691095,0
2024-03-17T15:58:23,-0.21296121140000002,0.18245272324999998,10.0893364929,0.04245513405476207,-0.003207042500539581,-0.04566217655530165,0.01694,0.42434000000000005,-0.53662,18.5,0,1064,526,387,1944,28.264375,70595,18.310689687730093,998.8657863691095,0
2024-03-17T15:58:23,-0.19022939669999997,0.13998012209999997,10.013962581,0.07773260156069746,-0.0016798794050445422,-0.04688390703169768,0.017220000000000003,0.41650000000000004,-0.5440400000000001,18.5,0,1064,526,387,1944,28.264375,70595,18.310689687730093,998.8657863691095,0
2024-03-17T15:58:23,-0.24526431649999997,0.13459627124999998,10.066006472549999,0.04260785036431157,0.03695734691097993,-0.04642575810304917,0.017220000000000003,0.41650000000000004,-0.5440400000000001,18.5,0,1064,526,387,1944,28.264375,70595,18.310689687730093,998.8657863691095,0
2024-03-17T15:58:23,-0.19860427579999998,0.18484554585,10.08155981945,0.04382958084070761,-0.0012217304763960308,-0.04520402762665314,0.018340000000000002,0.42266000000000004,-0.5405400000000001,18.5,0,1064,526,387,1944,28.299140625,72412,18.271512705632343,998.8649097306367,0
2024-03-17T15:58:24,-0.2524427843,0.14237294469999998,10.110871896299999,0.04153883619746505,-0.003970624048287101,-0.04612032548395016,0.018900000000000004,0.41734000000000004,-0.5482400000000001,18.5,0,1064,526,387,1944,28.299140625,72412,18.271512705632343,998.8649097306367,0
2024-03-17T15:58:24,-0.2009970984,0.1459621786,10.073783145999998,0.04382958084070761,-0.0033597588100890844,-0.0435241482216086,0.01582,0.41678000000000004,-0.5437600000000001,18.5,0,1064,526,387,1944,28.299140625,72412,18.271512705632343,998.8649097306367,0
2024-03-17T15:58:24,-0.20398812665,0.1471585899,10.079765202499999,0.040622538340168025,-0.004581489286485115,-0.04489859500755413,0.01666,0.41986,-0.5558000000000001,18.5,0,1064,526,387,1944,28.299140625,72412,18.271512705632343,998.8649097306367,0
2024-03-17T15:58:24,-0.2069791549,0.14895320685,10.1024970172,0.04214970143566306,0.0013744467859455349,-0.04673119072214818,0.01666,0.41986,-0.5558000000000001,18.5,0,1064,526,387,1944,28.299140625,72412,18.271512705632343,998.8649097306367,0
2024-03-17T15:58:24,-0.23688943739999999,0.16749758199999998,10.046863891749998,0.04260785036431157,-0.005192354524683131,-0.04520402762665314,0.013580000000000002,0.41762000000000005,-0.55062,18.5,0,1064,526,387,1944,28.299140625,72412,18.271512705632343,998.8649097306367,0
2024-03-17T15:58:24,-0.22671994134999998,0.16031911419999997,10.063015444300001,0.041691552507014555,-0.004123340357836604,-0.04505131131710364,0.01862,0.41930000000000006,-0.54124,18.5,0,1064,526,387,1944,28.299140625,72412,18.271512705632343,998.8649097306367,0
2024-03-17T15:58:24,-0.2309073809,0.18963119104999998,10.0223374601,0.041844268816564056,-0.00015271630954950385,-0.03924809155422249,0.018340000000000002,0.4142600000000001,-0.5450200000000001,18.5,0,1064,526,387,1944,28.3313671875,73871,18.21163612134819,998.8581236901757,0
2024-03-17T15:58:24,-0.19381863059999999,0.16151552549999998,10.076774174250001,0.04444044607890562,-0.006261368691529657,-0.04444044607890562,0.013020000000000002,0.41566000000000003,-0.5346600000000001,18.5,0,1064,526,387,1944,28.3313671875,73871,18.21163612134819,998.8581236901757,0
2024-03-17T15:58:24,-0.21834506225,0.1531406464,10.086943670299998,0.040622538340168025,-0.00473420559603462,-0.04535674393620265,0.013020000000000002,0.41566000000000003,-0.5346600000000001,18.5,0,1064,526,387,1944,28.3313671875,73871,18.21163612134819,998.8581236901757,0
2024-03-17T15:58:24,-0.21296121140000002,0.1806581063,10.250253812749998,0.04153883619746505,-0.005803219762881146,-0.04276056667386108,0.023940000000000003,0.4123,-0.5489400000000001,18.5,0,1064,526,387,1944,28.3313671875,73871,18.21163612134819,998.8581236901757,0
2024-03-17T15:58:24,-0.20518453794999997,0.1387837108,10.055238770849998,0.0355829001250344,-0.004123340357836604,-0.04596760917440065,0.02058,0.42546000000000006,-0.54208,18.5,0,1064,526,387,1944,28.3313671875,73871,18.21163612134819,998.8581236901757,0
2024-03-17T15:58:24,-0.22552353004999998,0.15134602945,10.057033387799999,0.03787364476827696,-0.0025961772623415654,-0.0435241482216086,0.02058,0.42546000000000006,-0.54208,18.5,0,1064,526,387,1944,28.3313671875,73871,18.21163612134819,998.8581236901757,0
2024-03-17T15:58:24,-0.22492532440000002,0.16510475939999997,10.06361364995,0.04413501345980661,-0.0007635815477475193,-0.04612032548395016,0.01666,0.41734000000000004,-0.55132,18.5,0,1064,526,387,1944,28.3313671875,73871,18.21163612134819,998.8581236901757,0
2024-03-17T15:58:24,-0.23928225999999997,0.15493526335,10.052247742599999,0.039400807863771994,0.0007635815477475193,-0.043982297150257116,0.02338,0.42098,-0.5453000000000001,18.5,0,1064,526,387,1944,28.3614453125,76000,18.15679816123579,998.8621593275441,0
2024-03-17T15:58:24,-0.22671994134999998,0.14895320685,10.07557776295,0.04260785036431157,-0.0036651914291880926,-0.043676864531158106,0.0161,0.41678000000000004,-0.55244,18.5,0,1064,526,387,1944,28.3614453125,76000,18.15679816123579,998.8621593275441,0
2024-03-17T15:58:24,-0.21236300575,0.1363908882,10.079765202499999,0.04520402762665314,-0.002138028333693054,-0.04291328298341058,0.018340000000000002,0.41874000000000006,-0.5532800000000001,18.5,0,1064,526,387,1944,28.3614453125,76000,18.15679816123579,998.8621593275441,0
2024-03-17T15:58:24,-0.22013967919999997,0.1698904046,10.0725867347,0.039400807863771994,-0.0006108652381980154,-0.040622538340168025,0.018340000000000002,0.41874000000000006,-0.5532800000000001,18.5,0,1064,526,387,1944,28.3614453125,76000,18.15679816123579,998.8621593275441,0
2024-03-17T15:58:24,-0.20338992099999997,0.15373885204999999,10.1168539528,0.04505131131710364,-0.003207042500539581,-0.04489859500755413,0.01414,0.42182000000000003,-0.54754,18.5,0,1064,526,387,1944,28.3614453125,76000,18.15679816123579,998.8621593275441,0
2024-03-17T15:58:24,-0.23748764304999997,0.16510475939999997,10.07318494035,0.04428772976935611,-0.003054326190990077,-0.04734205596034619,0.01414,0.41314000000000006,-0.5507600000000001,18.5,0,1064,526,387,1944,28.3614453125,76000,18.15679816123579,998.8621593275441,0
2024-03-17T15:58:24,-0.215354034,0.16091731985,10.08155981945,0.04596760917440065,-0.0038179077387375964,-0.04505131131710364,0.01414,0.41314000000000006,-0.5507600000000001,18.5,0,1064,526,387,1944,28.3614453125,76000,18.15679816123579,998.8621593275441,0
2024-03-17T15:58:24,-0.22432711874999997,0.15613167464999997,10.085149053349998,0.039400807863771994,-0.0012217304763960308,-0.04444044607890562,0.010500000000000002,0.42238000000000003,-0.5440400000000001,18.5,0,1064,526,387,1944,28.3891796875,78474,18.096710153823384,998.8534492262911,0
2024-03-17T15:58:24,-0.21954147355,0.1531406464,10.1383893562,0.04444044607890562,-0.0009162978572970231,-0.04550946024575215,0.01974,0.42042,-0.5455800000000001,18.5,0,1064,526,387,1944,28.3891796875,78474,18.096710153823384,998.8534492262911,0
2024-03-17T15:58:24,-0.215354034,0.15254244074999998,10.07438135165,0.04092797095926703,-0.0027488935718910697,-0.04306599929296009,0.01106,0.42154,-0.5359200000000001,18.5,0,1064,526,387,1944,28.3891796875,78474,18.096710153823384,998.8534492262911,0
2024-03-17T15:58:24,-0.20997018315,0.15972090854999998,10.09352393245,0.04123340357836604,0.00015271630954950385,-0.04489859500755413,0.015540000000000002,0.41398,-0.55062,18.5,0,1064,526,387,1944,28.3891796875,78474,18.096710153823384,998.8534492262911,0
2024-03-17T15:58:24,-0.21595223965000002,0.16689937635,10.045069274799998,0.04230241774521256,-0.0012217304763960308,-0.041996985126113565,0.015540000000000002,0.41398,-0.55062,18.5,0,1064,526,387,1944,28.3891796875,78474,18.096710153823384,998.8534492262911,0
2024-03-17T15:58:24,-0.22193429615000002,0.16211373114999997,10.105488045449999,0.04046982203061852,0.0,-0.04428772976935611,0.016380000000000002,0.41734000000000004,-0.5579000000000001,18.5,0,1064,526,387,1944,28.3891796875,78474,18.096710153823384,998.8534492262911,0
2024-03-17T15:58:24,-0.19561324754999998,0.16929219894999997,10.09113110985,0.04001167310197001,-0.00045814892864851157,-0.04153883619746505,0.012180000000000002,0.42098,-0.55062,18.5,0,1064,526,387,1944,28.3891796875,78474,18.096710153823384,998.8534492262911,0
2024-03-17T15:58:24,-0.2165504453,0.16510475939999997,10.06122082735,0.043676864531158106,-0.0019853120241435504,-0.04581489286485116,0.012180000000000002,0.42098,-0.55062,18.5,0,1064,526,387,1944,28.4157421875,79659,18.051981679005767,998.8553572343604,0
2024-03-17T15:58:24,-0.22671994134999998,0.1698904046,10.045069274799998,0.04291328298341058,-0.0007635815477475193,-0.04459316238845512,0.013580000000000002,0.42014000000000007,-0.5591600000000001,18.5,0,1064,526,387,1944,28.4157421875,79659,18.051981679005767,998.8553572343604,0
2024-03-17T15:58:24,-0.23389840915,0.1483550012,10.08155981945,0.04306599929296009,-0.005803219762881146,-0.041996985126113565,0.013580000000000002,0.42014000000000007,-0.5591600000000001,18.5,0,1064,526,387,1944,28.4157421875,79659,18.051981679005767,998.8553572343604,0
2024-03-17T15:58:24,-0.21894326790000002,0.16331014244999997,10.0929257268,0.04566217655530165,-0.003207042500539581,-0.04886921905584123,0.009380000000000001,0.41594000000000003,-0.5394200000000001,18.5,0,1064,526,387,1944,28.4157421875,79659,18.051981679005767,998.8553572343604,0
2024-03-17T15:58:24,-0.2117648001,0.1890329854,10.068997500799998,0.041996985126113565,-0.0038179077387375964,-0.04245513405476207,0.02478,0.42182000000000003,-0.54866,18.5,0,1064,526,387,1944,28.4157421875,79659,18.051981679005767,998.8553572343604,0
2024-03-17T15:58:24,-0.22492532440000002,0.1339980656,10.083354436399997,0.041080687268816536,-0.007330382858376185,-0.04734205596034619,0.0175,0.4142600000000001,-0.5453000000000001,18.5,0,1064,526,387,1945,28.4157421875,79659,18.051981679005767,998.8553572343604,0
2024-03-17T15:58:24,-0.23569302609999998,0.15672988029999999,10.076175968599998,0.04214970143566306,-0.0016798794050445422,-0.04673119072214818,0.0175,0.4142600000000001,-0.5453000000000001,18.5,0,1064,526,387,1945,28.4157421875,79659,18.051981679005767,998.8553572343604,0
2024-03-17T15:58:24,-0.21236300575,0.15912270289999997,10.028319516599998,0.04566217655530165,-0.001069014166846527,-0.04505131131710364,0.0119,0.42042,-0.5440400000000001,18.5,0,1064,526,387,1945,28.442890625,81664,18.002164573727555,998.856422964639,0
2024-03-17T15:58:24,-0.22791635265,0.005982056499999999,10.028319516599998,0.041996985126113565,-0.0013744467859455349,-0.04627304179349966,0.0161,0.41734000000000004,-0.5489400000000001,18.5,0,1064,526,387,1945,28.442890625,81664,18.002164573727555,998.856422964639,0
2024-03-17T15:58:24,-0.23030917524999997,0.16630117069999997,10.104291634149998,0.04230241774521256,-0.003207042500539581,-0.04306599929296009,0.01778,0.4207,-0.5385800000000001,18.5,0,1064,526,387,1945,28.442890625,81664,18.002164573727555,998.856422964639,0
2024-03-17T15:58:24,-0.2009970984,0.15373885204999999,10.0594262104,0.04016438941151951,0.0003054326190990077,-0.048411070127192715,0.018060000000000003,0.41818000000000005,-0.5404000000000001,18.5,0,1064,526,387,1945,28.442890625,81664,18.002164573727555,998.856422964639,0
2024-03-17T15:58:25,-0.22193429615000002,0.15613167464999997,10.0749795573,0.041386119887915546,0.0012217304763960308,-0.04612032548395016,0.018060000000000003,0.41818000000000005,-0.5404000000000001,18.5,0,1064,526,387,1945,28.442890625,81664,18.002164573727555,998.856422964639,0
2024-03-17T15:58:25,-0.22313070744999997,0.1579262916,10.025926693999999,0.04123340357836604,0.00015271630954950385,-0.04642575810304917,0.014700000000000001,0.42014000000000007,-0.5462800000000001,18.5,0,1064,526,387,1945,28.442890625,81664,18.002164573727555,998.856422964639,0
2024-03-17T15:58:25,-0.22073788485,0.16151552549999998,10.243075344949998,0.041080687268816536,-0.003054326190990077,-0.043982297150257116,0.020300000000000002,0.41986,-0.5430600000000001,18.5,0,1064,526,387,1945,28.442890625,81664,18.002164573727555,998.856422964639,0
2024-03-17T15:58:25,-0.22731814699999997,0.15972090854999998,10.088738287249999,0.04642575810304917,-0.0013744467859455349,-0.04657847441259867,0.020300000000000002,0.41986,-0.5430600000000001,18.5,0,1064,526,387,1945,28.467109375,83689,17.941937615892847,998.8563156534576,0
2024-03-17T15:58:25,-0.1782652837,0.17228322719999997,10.123434214949999,0.040622538340168025,-0.004276056667386108,-0.04657847441259867,0.02478,0.41846000000000005,-0.5451600000000001,18.5,0,1064,526,387,1945,28.467109375,83689,17.941937615892847,998.8563156534576,0
2024-03-17T15:58:25,-0.23150558654999998,0.16151552549999998,10.055238770849998,0.043676864531158106,-0.005803219762881146,-0.040622538340168025,0.02478,0.41846000000000005,-0.5451600000000001,18.5,0,1064,526,387,1945,28.467109375,83689,17.941937615892847,998.8563156534576,0
2024-03-17T15:58:25,-0.23569302609999998,0.16450655374999998,10.04447106915,0.039400807863771994,-0.002138028333693054,-0.0435241482216086,0.0161,0.41650000000000004,-0.5453000000000001,18.5,0,1064,526,387,1945,28.467109375,83689,17.941937615892847,998.8563156534576,0
2024-03-17T15:58:25,-0.18245272324999998,0.15433705769999997,10.0845508477,0.04428772976935611,-0.0012217304763960308,-0.04413501345980661,0.020300000000000002,0.42182000000000003,-0.5450200000000001,18.5,0,1064,526,387,1945,28.467109375,83689,17.941937615892847,998.8563156534576,0
2024-03-17T15:58:25,-0.26021945775,0.17108681589999997,10.02413207705,0.04016438941151951,-0.0024434609527920616,-0.04459316238845512,0.020300000000000002,0.42182000000000003,-0.5450200000000001,18.5,0,1064,526,387,1945,28.467109375,83689,17.941937615892847,998.8563156534576,0
2024-03-17T15:58:25,-0.20817556619999997,0.18125631194999997,10.134800122299998,0.04046982203061852,-0.0035124751196385882,-0.04489859500755413,0.01666,0.41594000000000003,-0.54124,18.5,0,1064,526,387,1945,28.467109375,83689,17.941937615892847,998.8563156534576,0
2024-03-17T15:58:25,-0.22193429615000002,0.16689937635,10.085747258999998,0.04230241774521256,-0.002138028333693054,-0.0435241482216086,0.012180000000000002,0.42518000000000006,-0.54068,18.5,0,1064,526,387,1945,28.489765625,84697,17.88677573721456,998.8590406335576,0
2024-03-17T15:58:25,-0.22671994134999998,0.15433705769999997,10.073783145999998,0.04413501345980661,-0.003054326190990077,-0.0433714319120591,0.023940000000000003,0.4142600000000001,-0.5453000000000001,18.5,0,1064,526,387,1945,28.489765625,84697,17.88677573721456,998.8590406335576,0
2024-03-17T15:58:25,-0.25124637299999997,0.16211373114999997,10.06361364995,0.07467827536970738,-0.00045814892864851157,-0.041844268816564056,0.023940000000000003,0.4142600000000001,-0.5453000000000001,18.5,0,1064,526,387,1945,28.489765625,84697,17.88677573721456,998.8590406335576,0
2024-03-17T15:58:25,-0.2141576227,0.14177473905,10.06839929515,0.04214970143566306,-0.0024434609527920616,-0.048411070127192715,0.013580000000000002,0.42042,-0.5317200000000001,18.5,0,1064,526,387,1945,28.489765625,84697,17.88677573721456,998.8590406335576,0
2024-03-17T15:58:25,-0.22911276394999996,0.14356935599999998,10.073783145999998,0.041386119887915546,-0.0019853120241435504,-0.0474947722698957,0.01414,0.41678000000000004,-0.5485200000000001,18.5,0,1064,526,387,1945,28.489765625,84697,17.88677573721456,998.8590406335576,0
2024-03-17T15:58:25,-0.2165504453,0.1639083481,10.09352393245,0.041080687268816536,-0.004886921905584123,-0.04321871560250959,0.01414,0.41678000000000004,-0.5485200000000001,18.5,0,1064,526,387,1945,28.489765625,84697,17.88677573721456,998.8590406335576,0
2024-03-17T15:58:25,-0.22971096959999998,0.14955141249999998,10.10309522285,0.04260785036431157,-0.0012217304763960308,-0.04230241774521256,0.013300000000000001,0.43134000000000006,-0.54656,18.5,0,1064,526,387,1945,28.489765625,84697,17.88677573721456,998.8590406335576,0
2024-03-17T15:58:25,-0.22731814699999997,0.1447657673,10.079765202499999,0.038484510006474966,-0.0025961772623415654,-0.041080687268816536,0.013020000000000002,0.42294000000000004,-0.5485200000000001,18.5,0,1064,526,387,1945,28.511640625,86877,17.846969865969132,998.858708482886,0
2024-03-17T15:58:25,-0.24646072779999997,0.14416756165,10.1072826624,0.040317105721069016,-0.0018325957145940463,-0.04535674393620265,0.01666,0.42210000000000003,-0.5520200000000001,18.5,0,1064,526,387,1945,28.511640625,86877,17.846969865969132,998.858708482886,0
2024-03-17T15:58:25,-0.21954147355,0.14117653339999997,10.087541875949999,0.04321871560250959,-0.002901609881440573,-0.04581489286485116,0.021700000000000004,0.42126,-0.54978,18.5,0,1064,526,387,1945,28.511640625,86877,17.846969865969132,998.858708482886,0
2024-03-17T15:58:25,-0.20398812665,0.15014961815,10.1264252432,0.039400807863771994,-0.005803219762881146,-0.041386119887915546,0.021700000000000004,0.4151,-0.5440400000000001,18.5,0,1064,526,387,1945,28.511640625,86877,17.846969865969132,998.858708482886,0
2024-03-17T15:58:25,-0.20937197749999997,0.30568308715,10.1168539528,0.041844268816564056,-0.003054326190990077,-0.04550946024575215,0.01694,0.4151,-0.5440400000000001,18.5,0,1064,526,387,1944,28.511640625,86877,17.846969865969132,998.858708482886,0
2024-03-17T15:58:25,-0.23030917524999997,0.16031911419999997,10.078568791199999,0.04016438941151951,-0.0033597588100890844,-0.04444044607890562,0.0175,0.41202000000000005,-0.53984,18.5,0,1064,526,387,1944,28.511640625,86877,17.846969865969132,998.858708482886,0
2024-03-17T15:58:25,-0.22432711874999997,0.15972090854999998,10.106086251099997,0.038942658935123484,-0.0016798794050445422,-0.04459316238845512,0.018060000000000003,0.41958000000000006,-0.5338200000000001,18.5,0,1064,526,387,1944,28.511640625,86877,17.846969865969132,998.858708482886,0
2024-03-17T15:58:25,-0.22911276394999996,0.1387837108,10.091729315499999,0.04214970143566306,-0.004581489286485115,-0.04474587869800463,0.018060000000000003,0.41958000000000006,-0.5338200000000001,18.5,0,1064,526,387,1944,28.5333203125,87964,17.807162531789505,998.8616358877822,0
2024-03-17T15:58:25,-0.2117648001,0.13818550515,10.0941221381,0.04230241774521256,-0.002901609881440573,-0.047952921198544204,0.01946,0.42014000000000007,-0.54754,18.5,0,1064,526,387,1944,28.5333203125,87964,17.807162531789505,998.8616358877822,0
2024-03-17T15:58:25,-0.21894326790000002,0.16091731985,10.068997500799998,0.041080687268816536,-0.0025961772623415654,-0.043676864531158106,0.01946,0.42014000000000007,-0.54754,18.5,0,1064,526,387,1944,28.5333203125,87964,17.807162531789505,998.8616358877822,0
2024-03-17T15:58:25,-0.22911276394999996,0.16211373114999997,10.236495082799998,0.040622538340168025,-0.0024434609527920616,-0.0435241482216086,0.0175,0.42182000000000003,-0.54222,18.5,0,1064,526,387,1944,28.5333203125,87964,17.807162531789505,998.8616358877822,0
2024-03-17T15:58:25,-0.21834506225,0.16630117069999997,10.10309522285,0.04245513405476207,-0.0044287729769356115,-0.04550946024575215,0.012740000000000001,0.4207,-0.5367600000000001,18.5,0,1064,526,387,1944,28.5333203125,87964,17.807162531789505,998.8616358877822,0
2024-03-17T15:58:25,-0.21595223965000002,0.17288143285000002,10.06361364995,0.04153883619746505,-0.004581489286485115,-0.0435241482216086,0.012740000000000001,0.4207,-0.5367600000000001,18.5,0,1064,526,387,1944,28.5333203125,87964,17.807162531789505,998.8616358877822,0
2024-03-17T15:58:25,-0.23629123174999997,0.13818550515,10.134800122299998,0.03665191429188092,-0.0027488935718910697,-0.04306599929296009,0.0119,0.41594000000000003,-0.5419400000000001,18.5,0,1064,526,387,1944,28.5333203125,87964,17.807162531789505,998.8616358877822,0
2024-03-17T15:58:25,-0.20279171534999998,0.16331014244999997,9.999007439749999,0.04276056667386108,-0.0012217304763960308,-0.04550946024575215,0.01106,0.41734000000000004,-0.5500600000000001,18.5,0,1064,526,387,1944,28.553828125,89742,17.762176011242193,998.8608733450316,0
2024-03-17T15:58:25,-0.22731814699999997,0.17048861024999998,10.052845948249999,0.041080687268816536,-0.0036651914291880926,-0.04703662334124718,0.009940000000000001,0.4089400000000001,-0.5425,18.5,0,1064,526,387,1944,28.553828125,89742,17.762176011242193,998.8608733450316,0
2024-03-17T15:58:25,-0.20997018315,0.18364913454999998,10.0953185494,0.04046982203061852,0.0007635815477475193,-0.04627304179349966,0.019180000000000003,0.41986,-0.53578,18.5,0,1064,526,387,1944,28.553828125,89742,17.762176011242193,998.8608733450316,0
2024-03-17T15:58:25,-0.21834506225,0.1734796385,10.112666513249998,0.04214970143566306,-0.0022907446432425577,-0.04413501345980661,0.019180000000000003,0.41986,-0.53578,18.5,0,1064,526,387,1944,28.553828125,89742,17.762176011242193,998.8608733450316,0
2024-03-17T15:58:25,-0.22193429615000002,0.15852449724999998,10.077970585549998,0.03924809155422249,-0.0033597588100890844,-0.041691552507014555,0.0175,0.41762000000000005,-0.5488000000000001,18.5,0,1064,526,387,1944,28.553828125,89742,17.762176011242193,998.8608733450316,0
2024-03-17T15:58:25,-0.23270199784999998,0.16570296504999998,10.085747258999998,0.04001167310197001,-0.0007635815477475193,-0.04016438941151951,0.02646,0.42182000000000003,-0.5488000000000001,18.5,0,1064,526,387,1944,28.553828125,89742,17.762176011242193,998.8608733450316,0
2024-03-17T15:58:25,-0.21116659445,0.179461695,10.08155981945,0.04276056667386108,-0.0016798794050445422,-0.04474587869800463,0.02646,0.42182000000000003,-0.5488000000000001,18.5,0,1064,526,387,1944,28.553828125,89742,17.762176011242193,998.8608733450316,0
2024-03-17T15:58:25,-0.20937197749999997,0.17647066675,10.046863891749998,0.04077525464971753,-0.00045814892864851157,-0.04214970143566306,0.01974,0.42322000000000004,-0.5429200000000001,18.5,0,1064,526,387,1944,28.5739453125,91295,17.7120588394986,998.8594759326847,0
2024-03-17T15:58:26,-0.22671994134999998,0.1579262916,10.08155981945,0.04230241774521256,-0.00473420559603462,-0.04245513405476207,0.013020000000000002,0.41650000000000004,-0.5496400000000001,18.5,0,1064,526,387,1944,28.5739453125,91295,17.7120588394986,998.8594759326847,0
2024-03-17T15:58:26,-0.20578274359999998,0.15373885204999999,10.039087218299999,0.043676864531158106,-0.004123340357836604,-0.041844268816564056,0.016380000000000002,0.41594000000000003,-0.54796,18.5,0,1064,526,387,1944,28.5739453125,91295,17.7120588394986,998.8594759326847,0
2024-03-17T15:58:26,-0.22492532440000002,0.16151552549999998,10.0654082669,0.041386119887915546,-0.00015271630954950385,-0.04214970143566306,0.02058,0.4207,-0.5345200000000001,18.5,0,1064,526,387,1944,28.5739453125,91295,17.7120588394986,998.8594759326847,0
2024-03-17T15:58:26,-0.23210379219999996,0.16689937635,10.0701939121,0.04321871560250959,-0.0022907446432425577,-0.04016438941151951,0.02058,0.4207,-0.5345200000000001,18.5,0,1064,526,387,1944,28.5739453125,91295,17.7120588394986,998.8594759326847,0
2024-03-17T15:58:26,-0.20817556619999997,0.16450655374999998,10.07318494035,0.039095375244672985,-0.0019853120241435504,-0.04153883619746505,0.019180000000000003,0.41762000000000005,-0.54866,18.5,0,1064,526,387,1944,28.5739453125,91295,17.7120588394986,998.8594759326847,0
2024-03-17T15:58:26,-0.2165504453,0.14656038424999998,10.0701939121,0.041691552507014555,-0.00473420559603462,-0.04123340357836604,0.019180000000000003,0.41566000000000003,-0.54222,18.5,0,1064,526,387,1944,28.5739453125,91295,17.7120588394986,998.8594759326847,0
2024-03-17T15:58:26,-0.21355941705,0.15732808594999997,10.122836009299998,0.039858956792420505,-0.004581489286485115,-0.04276056667386108,0.019180000000000003,0.41566000000000003,-0.54222,18.5,0,1064,526,387,1944,28.59328125,92904,17.67215534409393,998.8675463586368,0
2024-03-17T15:58:26,-0.23150558654999998,0.16809578764999997,10.0941221381,0.041080687268816536,-0.005192354524683131,-0.04016438941151951,0.014980000000000002,0.42378000000000005,-0.54068,18.5,0,1064,526,387,1944,28.59328125,92904,17.67215534409393,998.8675463586368,0
2024-03-17T15:58:26,-0.20997018315,0.1698904046,10.0725867347,0.04214970143566306,-0.002901609881440573,-0.041691552507014555,0.014980000000000002,0.42378000000000005,-0.54068,18.5,0,1064,526,387,1944,28.59328125,92904,17.67215534409393,998.8675463586368,0
2024-03-17T15:58:26,-0.2177468566,0.1782652837,10.12941627145,0.03756821214917795,0.0007635815477475193,-0.04718933965079669,0.017220000000000003,0.42546000000000006,-0.54012,18.5,0,1064,526,387,1944,28.59328125,92904,17.67215534409393,998.8675463586368,0
2024-03-17T15:58:26,-0.21595223965000002,0.15493526335,10.1024970172,0.039095375244672985,-0.006261368691529657,-0.04214970143566306,0.0119,0.41762000000000005,-0.54096,18.5,0,1064,526,387,1944,28.59328125,92904,17.67215534409393,998.8675463586368,0
2024-03-17T15:58:26,-0.19322042494999997,0.1579262916,10.098907783299998,0.041080687268816536,0.0,-0.04459316238845512,0.01862,0.42350000000000004,-0.5341,18.5,0,1064,526,387,1944,28.59328125,92904,17.67215534409393,998.8675463586368,0
2024-03-17T15:58:26,-0.23270199784999998,0.1363908882,10.062417238649997,0.0433714319120591,-0.0025961772623415654,-0.04276056667386108,0.01862,0.42350000000000004,-0.5341,18.5,0,1064,526,387,1944,28.59328125,92904,17.67215534409393,998.8675463586368,0
2024-03-17T15:58:26,-0.21355941705,0.15074782379999999,10.07438135165,0.04214970143566306,-0.001069014166846527,-0.038942658935123484,0.02058,0.41762000000000005,-0.5514600000000001,18.5,0,1064,526,387,1944,28.6118359375,94358,17.6117453444828,998.8707711137939,0
2024-03-17T15:58:26,-0.21116659445,0.15493526335,10.006784113199998,0.041844268816564056,-0.002138028333693054,-0.0433714319120591,0.011340000000000001,0.41930000000000006,-0.54922,18.5,0,1064,526,387,1944,28.6118359375,94358,17.6117453444828,998.8707711137939,0
2024-03-17T15:58:26,-0.20997018315,0.13339985995,10.034301573099999,0.03543018381548489,-0.005803219762881146,-0.04612032548395016,0.01694,0.41902000000000006,-0.55272,18.5,0,1064,526,387,1944,28.6118359375,94358,17.6117453444828,998.8707711137939,0
2024-03-17T15:58:26,-0.22671994134999998,0.15014961815,10.07916699685,0.04245513405476207,-0.0022907446432425577,-0.049021935365390734,0.01694,0.41902000000000006,-0.55272,18.5,0,1064,526,387,1944,28.6118359375,94358,17.6117453444828,998.8707711137939,0
2024-03-17T15:58:26,-0.2237289131,0.1471585899,10.1084790737,0.04306599929296009,-0.0019853120241435504,-0.04428772976935611,0.018900000000000004,0.41874000000000006,-0.5499200000000001,18.5,0,1064,526,387,1944,28.6118359375,94358,17.6117453444828,998.8707711137939,0
2024-03-17T15:58:26,-0.23928225999999997,0.18364913454999998,10.098907783299998,0.03665191429188092,-0.006261368691529657,-0.04214970143566306,0.014420000000000002,0.41622000000000003,-0.5474000000000001,18.5,0,1064,526,387,1944,28.6118359375,94358,17.6117453444828,998.8707711137939,0
2024-03-17T15:58:26,-0.22971096959999998,0.15074782379999999,10.080961613799998,0.04092797095926703,-0.038942658935123484,-0.04550946024575215,0.014420000000000002,0.41622000000000003,-0.5474000000000001,18.5,0,1064,526,387,1944,28.6118359375,94358,17.6117453444828,998.8707711137939,0
2024-03-17T15:58:26,-0.23808584869999996,0.15732808594999997,10.106086251099997,0.04474587869800463,-0.0016798794050445422,-0.04520402762665314,0.01862,0.42182000000000003,-0.546,18.5,0,1064,526,387,1944,28.6298046875,93802,17.582026020305985,998.8784132457138,0
2024-03-17T15:58:26,-0.20817556619999997,0.15852449724999998,10.07916699685,0.04550946024575215,-0.00045814892864851157,-0.04703662334124718,0.012180000000000002,0.42350000000000004,-0.5523,18.5,0,1064,526,387,1944,28.6298046875,93802,17.582026020305985,998.8784132457138,0
2024-03-17T15:58:26,-0.23449661479999998,0.15912270289999997,10.0462656861,0.04459316238845512,-0.0035124751196385882,-0.04627304179349966,0.0161,0.41734000000000004,-0.5546800000000001,18.5,0,1064,526,387,1944,28.6298046875,93802,17.582026020305985,998.8784132457138,0
2024-03-17T15:58:26,-0.21116659445,0.16151552549999998,10.077970585549998,0.04612032548395016,-0.0022907446432425577,-0.04459316238845512,0.01946,0.42434000000000005,-0.5453000000000001,18.5,0,1064,526,387,1944,28.6298046875,93802,17.582026020305985,998.8784132457138,0
2024-03-17T15:58:26,-0.23150558654999998,0.15613167464999997,10.082756230749998,0.043676864531158106,-0.0019853120241435504,-0.04428772976935611,0.01946,0.42434000000000005,-0.5453000000000001,18.5,0,1064,526,387,1944,28.6298046875,93802,17.582026020305985,998.8784132457138,0
2024-03-17T15:58:26,-0.24765713909999998,0.14895320685,10.1204431867,0.038179077387375956,-0.0016798794050445422,-0.04214970143566306,0.009380000000000001,0.41930000000000006,-0.5476800000000001,18.5,0,1064,526,387,1944,28.6298046875,93802,17.582026020305985,998.8784132457138,0
2024-03-17T15:58:26,-0.22432711874999997,0.18424734019999997,10.076774174250001,0.03924809155422249,0.038637226316024474,-0.04505131131710364,0.01946,0.42322000000000004,-0.55566,18.5,0,1064,526,387,1944,28.6298046875,93802,17.582026020305985,998.8784132457138,0
2024-03-17T15:58:26,-0.2141576227,0.15373885204999999,10.097113166349997,0.041996985126113565,0.00015271630954950385,-0.043982297150257116,0.01946,0.42322000000000004,-0.55566,18.5,0,1064,526,387,1944,28.6469921875,95231,17.51646383174802,998.877630900995,0
2024-03-17T15:58:26,-0.21595223965000002,0.15014961815,10.070792117749999,0.039095375244672985,-0.0027488935718910697,-0.04718933965079669,0.014700000000000001,0.42210000000000003,-0.55062,18.5,0,1064,526,387,1944,28.6469921875,95231,17.51646383174802,998.877630900995,0
2024-03-17T15:58:26,-0.20279171534999998,0.1639083481,10.06481006125,0.041996985126113565,-0.0035124751196385882,-0.04214970143566306,0.014700000000000001,0.42210000000000003,-0.55062,18.5,0,1064,526,387,1944,28.6469921875,95231,17.51646383174802,998.877630900995,0
2024-03-17T15:58:26,-0.22432711874999997,0.1698904046,10.190433247749999,0.04016438941151951,-0.003970624048287101,-0.04077525464971753,0.013300000000000001,0.41790000000000005,-0.5542600000000001,18.5,0,1064,526,387,1944,28.6469921875,95231,17.51646383174802,998.877630900995,0
2024-03-17T15:58:26,-0.23688943739999999,0.16749758199999998,10.088140081599997,0.04153883619746505,-0.0019853120241435504,-0.043982297150257116,0.014420000000000002,0.4142600000000001,-0.5418000000000001,18.5,0,1064,526,387,1944,28.6469921875,95231,17.51646383174802,998.877630900995,0
2024-03-17T15:58:26,-0.21236300575,0.1280160091,10.077970585549998,0.04016438941151951,-0.0022907446432425577,-0.04550946024575215,0.014420000000000002,0.4142600000000001,-0.5418000000000001,18.5,0,1064,526,387,1944,28.6469921875,95231,17.51646383174802,998.877630900995,0
2024-03-17T15:58:26,-0.21355941705,0.14895320685,10.087541875949999,0.04123340357836604,-0.0038179077387375964,-0.048716502746291725,0.0071400000000000005,0.42182000000000003,-0.54208,18.5,0,1064,526,387,1944,28.6469921875,95231,17.51646383174802,998.877630900995,0
2024-03-17T15:58:26,-0.2177468566,0.15373885204999999,10.12104139235,0.041080687268816536,-0.003054326190990077,-0.04520402762665314,0.009940000000000001,0.41818000000000005,-0.5474000000000001,18.5,0,1064,526,387,1944,28.6641796875,96705,17.471380893285122,998.8696893612266,0
2024-03-17T15:58:26,-0.23688943739999999,0.18125631194999997,10.104291634149998,0.04123340357836604,-0.0016798794050445422,-0.04581489286485116,0.012740000000000001,0.41678000000000004,-0.54866,18.5,0,1064,526,387,1944,28.6641796875,96705,17.471380893285122,998.8696893612266,0
2024-03-17T15:58:26,-0.23509482044999996,0.15852449724999998,10.131809094049999,0.041386119887915546,-0.001069014166846527,-0.04245513405476207,0.018340000000000002,0.4123,-0.5356400000000001,18.5,0,1064,526,387,1944,28.6641796875,96705,17.471380893285122,998.8696893612266,0
2024-03-17T15:58:26,-0.23748764304999997,0.16450655374999998,10.1120683076,0.04245513405476207,-0.0018325957145940463,-0.04734205596034619,0.023100000000000002,0.42014000000000007,-0.5537000000000001,18.5,0,1064,526,387,1944,28.6641796875,96705,17.471380893285122,998.8696893612266,0
2024-03-17T15:58:26,-0.22313070744999997,0.16749758199999998,10.071390323399998,0.03665191429188092,-0.0019853120241435504,-0.04092797095926703,0.023100000000000002,0.42014000000000007,-0.5537000000000001,18.5,0,1064,526,387,1944,28.6641796875,96705,17.471380893285122,998.8696893612266,0
2024-03-17T15:58:27,-0.22133609049999997,0.14656038424999998,10.083354436399997,0.038942658935123484,-0.005192354524683131,-0.04077525464971753,0.01414,0.41174000000000005,-0.54978,18.5,0,1064,526,387,1944,28.6641796875,96705,17.471380893285122,998.8696893612266,0
2024-03-17T15:58:27,-0.21834506225,0.15912270289999997,10.094720343749998,0.04092797095926703,-0.004581489286485115,-0.04428772976935611,0.01946,0.41650000000000004,-0.5415200000000001,18.5,0,1064,526,387,1944,28.6641796875,96705,17.471380893285122,998.8696893612266,0
2024-03-17T15:58:27,-0.2165504453,0.15912270289999997,10.003793084949999,0.04550946024575215,-0.0035124751196385882,-0.04535674393620265,0.01946,0.41650000000000004,-0.5415200000000001,18.5,0,1064,526,387,1944,28.6805859375,97940,17.436491016315415,998.8747963894696,0
2024-03-17T15:58:27,-0.21355941705,0.14177473905,10.110871896299999,0.03772092845872745,-0.004276056667386108,-0.04276056667386108,0.018340000000000002,0.41846000000000005,-0.5541200000000001,18.5,0,1064,526,387,1944,28.6805859375,97940,17.436491016315415,998.8747963894696,0
2024-03-17T15:58:27,-0.21595223965000002,0.1471585899,10.03848901265,0.0024434609527920616,-0.0056505034533316425,-0.0435241482216086,0.018340000000000002,0.41846000000000005,-0.5541200000000001,18.5,0,1064,526,387,1944,28.6805859375,97940,17.436491016315415,998.8747963894696,0
2024-03-17T15:58:27,-0.20757736054999998,0.17766707805,10.079765202499999,0.04428772976935611,-0.004123340357836604,-0.043982297150257116,0.01386,0.41734000000000004,-0.5677000000000001,18.5,0,1064,526,387,1944,28.6805859375,97940,17.436491016315415,998.8747963894696,0
2024-03-17T15:58:27,-0.22552353004999998,0.16151552549999998,10.105488045449999,0.039553524173321496,-0.004276056667386108,-0.04520402762665314,0.01414,0.41846000000000005,-0.5482400000000001,18.5,0,1064,526,387,1944,28.6805859375,97940,17.436491016315415,998.8747963894696,0
2024-03-17T15:58:27,-0.20638094924999997,0.16630117069999997,10.085747258999998,0.041996985126113565,-0.0012217304763960308,-0.04673119072214818,0.01414,0.41846000000000005,-0.5482400000000001,18.5,0,1064,526,387,1944,28.6805859375,97940,17.436491016315415,998.8747963894696,0
2024-03-17T15:58:27,-0.22073788485,0.16689937635,10.07438135165,0.043982297150257116,-0.0013744467859455349,-0.04596760917440065,0.021700000000000004,0.41930000000000006,-0.5628000000000001,18.5,0,1064,526,387,1944,28.6805859375,97940,17.436491016315415,998.8747963894696,0
2024-03-17T15:58:27,-0.20159530404999998,0.16211373114999997,10.112666513249998,0.03726277953007894,-0.0016798794050445422,-0.04153883619746505,0.01582,0.42378000000000005,-0.55622,18.5,0,1064,526,387,1944,28.695625,99148,17.3862058629189,998.875897912018,0
2024-03-17T15:58:27,-0.22851455829999998,0.15553346899999998,10.1659068161,0.04489859500755413,-0.0033597588100890844,-0.04657847441259867,0.007700000000000001,0.41790000000000005,-0.5602800000000001,18.5,0,1064,526,387,1944,28.695625,99148,17.3862058629189,998.875897912018,0
2024-03-17T15:58:27,-0.2141576227,0.16570296504999998,10.0905329042,0.04306599929296009,-0.00045814892864851157,-0.04550946024575215,0.01582,0.41762000000000005,-0.5495,18.5,0,1064,526,387,1944,28.695625,99148,17.3862058629189,998.875897912018,0
2024-03-17T15:58:27,-0.23389840915,0.17108681589999997,10.077970585549998,0.04016438941151951,-0.00595593607243065,-0.04306599929296009,0.01582,0.41762000000000005,-0.5495,18.5,0,1064,526,387,1944,28.695625,99148,17.3862058629189,998.875897912018,0
2024-03-17T15:58:27,-0.22133609049999997,0.16689937635,10.094720343749998,0.03924809155422249,-0.0035124751196385882,-0.04291328298341058,0.020020000000000003,0.42518000000000006,-0.5531400000000001,18.5,0,1064,526,387,1944,28.695625,99148,17.3862058629189,998.875897912018,0
2024-03-17T15:58:27,-0.2225325018,0.18604195715,10.100702400249999,0.04291328298341058,-0.003207042500539581,-0.04001167310197001,0.007980000000000001,0.42518000000000006,-0.55398,18.5,0,1064,526,387,1944,28.695625,99148,17.3862058629189,998.875897912018,0
2024-03-17T15:58:27,-0.2105683888,0.17766707805,9.976873830699999,0.04016438941151951,-0.0027488935718910697,-0.04413501345980661,0.007980000000000001,0.42518000000000006,-0.55398,18.5,0,1064,526,387,1944,28.695625,99148,17.3862058629189,998.875897912018,0
2024-03-17T15:58:27,-0.2225325018,0.16091731985,10.15693373135,0.04291328298341058,-0.00015271630954950385,-0.04657847441259867,0.01974,0.42238000000000003,-0.56084,18.5,0,1064,526,387,1944,28.7106640625,100566,17.3563692543832,998.876998475609,0
2024-03-17T15:58:27,-0.22971096959999998,0.15553346899999998,10.08395264205,0.04245513405476207,-0.0013744467859455349,-0.04230241774521256,0.02058,0.41790000000000005,-0.55524,18.5,0,1064,526,387,1944,28.7106640625,100566,17.3563692543832,998.876998475609,0
2024-03-17T15:58:27,-0.2177468566,0.16809578764999997,10.07916699685,0.041080687268816536,-0.0025961772623415654,-0.04718933965079669,0.01946,0.42126,-0.546,18.5,0,1064,526,387,1944,28.7106640625,100566,17.3563692543832,998.876998475609,0
2024-03-17T15:58:27,-0.21595223965000002,0.14895320685,10.1168539528,0.04581489286485116,0.00015271630954950385,-0.04306599929296009,0.01946,0.42126,-0.546,18.5,0,1064,526,387,1944,28.7106640625,100566,17.3563692543832,998.876998475609,0
2024-03-17T15:58:27,-0.21595223965000002,0.15912270289999997,10.085149053349998,0.041844268816564056,-0.0038179077387375964,-0.041080687268816536,0.018060000000000003,0.43218000000000006,-0.54488,18.5,0,1064,526,387,1944,28.7106640625,100566,17.3563692543832,998.876998475609,0
2024-03-17T15:58:27,-0.21296121140000002,0.15433705769999997,10.12941627145,0.041996985126113565,-0.0024434609527920616,-0.04596760917440065,0.018340000000000002,0.42266000000000004,-0.5730200000000001,18.5,0,1064,526,387,1944,28.7106640625,100566,17.3563692543832,998.876998475609,0
2024-03-17T15:58:27,-0.22971096959999998,0.16630117069999997,10.085747258999998,0.04001167310197001,-0.0035124751196385882,-0.043676864531158106,0.009100000000000002,0.42686,-0.56112,18.5,0,1064,526,387,1944,28.7106640625,100566,17.3563692543832,998.876998475609,0
2024-03-17T15:58:27,-0.23030917524999997,0.16869399329999998,10.067801089499998,0.04520402762665314,-0.0012217304763960308,-0.04260785036431157,0.009100000000000002,0.42686,-0.56112,18.5,0,1064,526,387,1944,28.7253125,101902,17.321410065714147,998.8828341207395,0
2024-03-17T15:58:27,-0.22313070744999997,0.16331014244999997,10.136594739249999,0.04566217655530165,-0.0024434609527920616,-0.04581489286485116,0.01582,0.41734000000000004,-0.55384,18.5,0,1064,526,387,1943,28.7253125,101902,17.321410065714147,998.8828341207395,0
2024-03-17T15:58:27,-0.215354034,0.16331014244999997,10.078568791199999,0.038484510006474966,-0.0022907446432425577,-0.041386119887915546,0.02254,0.41734000000000004,-0.55384,18.5,0,1064,526,387,1943,28.7253125,101902,17.321410065714147,998.8828341207395,0
2024-03-17T15:58:27,-0.21714865095,0.17587246110000002,10.0773723799,0.04459316238845512,-0.004276056667386108,-0.0433714319120591,0.01246,0.42238000000000003,-0.55132,18.5,0,1064,526,387,1943,28.7253125,101902,17.321410065714147,998.8828341207395,0
2024-03-17T15:58:27,-0.20398812665,0.17228322719999997,10.092327521149999,0.04489859500755413,0.0,-0.04001167310197001,0.023940000000000003,0.41342,-0.5446,18.5,0,1064,526,387,1943,28.7253125,101902,17.321410065714147,998.8828341207395,0
2024-03-17T15:58:27,-0.24167508259999998,0.13579268255,10.088140081599997,0.040622538340168025,-0.0022907446432425577,-0.04214970143566306,0.023940000000000003,0.41342,-0.5446,18.5,0,1064,526,387,1943,28.7253125,101902,17.321410065714147,998.8828341207395,0
2024-03-17T15:58:27,-0.2237289131,0.179461695,10.110273690649999,0.039706240482871004,-0.0009162978572970231,-0.038789942625573975,0.014980000000000002,0.41258000000000006,-0.5520200000000001,18.5,0,1064,526,387,1943,28.7253125,101902,17.321410065714147,998.8828341207395,0
2024-03-17T15:58:27,-0.20219350969999997,0.16749758199999998,10.079765202499999,0.04001167310197001,-0.004123340357836604,-0.04214970143566306,0.015540000000000002,0.41958000000000006,-0.5472600000000001,18.5,0,1064,526,387,1943,28.739765625,102584,17.26602820559953,998.8865629869993,0
2024-03-17T15:58:27,-0.19441683624999997,0.15672988029999999,10.101300605899999,0.0435241482216086,-0.002138028333693054,-0.04535674393620265,0.01666,0.41678000000000004,-0.5607000000000001,18.5,0,1064,526,387,1943,28.739765625,102584,17.26602820559953,998.8865629869993,0
2024-03-17T15:58:27,-0.20338992099999997,0.1447657673,10.03729260135,0.040317105721069016,-0.0009162978572970231,-0.04428772976935611,0.016380000000000002,0.41902000000000006,-0.5440400000000001,18.5,0,1064,526,387,1943,28.739765625,102584,17.26602820559953,998.8865629869993,0
2024-03-17T15:58:27,-0.19202401365,0.15493526335,10.097711372000001,0.04001167310197001,-0.0016798794050445422,-0.048258353817643214,0.016380000000000002,0.41902000000000006,-0.5440400000000001,18.5,0,1064,526,387,1943,28.739765625,102584,17.26602820559953,998.8865629869993,0
2024-03-17T15:58:27,-0.21355941705,0.15852449724999998,10.151549880500001,0.04153883619746505,-0.0022907446432425577,-0.04428772976935611,0.021700000000000004,0.41846000000000005,-0.55762,18.5,0,1064,526,387,1943,28.739765625,102584,17.26602820559953,998.8865629869993,0
2024-03-17T15:58:27,-0.2225325018,0.1698904046,10.1024970172,0.04214970143566306,-0.0024434609527920616,-0.04276056667386108,0.020300000000000002,0.41594000000000003,-0.54698,18.5,0,1064,526,387,1943,28.739765625,102584,17.26602820559953,998.8865629869993,0
2024-03-17T15:58:27,-0.19022939669999997,0.17706887240000002,10.1072826624,0.04260785036431157,-0.0038179077387375964,-0.04718933965079669,0.020300000000000002,0.41594000000000003,-0.54698,18.5,0,1064,526,387,1943,28.739765625,102584,17.26602820559953,998.8865629869993,0
2024-03-17T15:58:27,-0.26859433685,0.14895320685,10.06720288385,0.04123340357836604,-0.004276056667386108,-0.04046982203061852,0.012180000000000002,0.41734000000000004,-0.5523,18.5,0,1064,526,387,1943,28.7536328125,104295,17.241255117629134,998.8857624419604,0
2024-03-17T15:58:28,-0.19441683624999997,0.16630117069999997,10.094720343749998,0.03726277953007894,-0.00473420559603462,-0.04612032548395016,0.020300000000000002,0.4207,-0.5440400000000001,18.5,0,1064,526,387,1943,28.7536328125,104295,17.241255117629134,998.8857624419604,0
2024-03-17T15:58:28,-0.20877377184999998,0.13459627124999998,10.140782178799999,0.04123340357836604,-0.007941248096574201,-0.0435241482216086,0.014700000000000001,0.41818000000000005,-0.5402600000000001,18.5,0,1064,526,387,1943,28.7536328125,104295,17.241255117629134,998.8857624419604,0
2024-03-17T15:58:28,-0.22492532440000002,0.13339985995,10.086943670299998,0.0433714319120591,-0.0027488935718910697,-0.04260785036431157,0.009940000000000001,0.41622000000000003,-0.5461400000000001,18.5,0,1064,526,387,1943,28.7536328125,104295,17.241255117629134,998.8857624419604,0
2024-03-17T15:58:28,-0.21714865095,0.15732808594999997,10.0905329042,0.039706240482871004,-0.0025961772623415654,-0.04627304179349966,0.009940000000000001,0.41622000000000003,-0.5461400000000001,18.5,0,1064,526,387,1943,28.7536328125,104295,17.241255117629134,998.8857624419604,0
2024-03-17T15:58:28,-0.22612173569999997,0.12861421474999998,10.0941221381,0.04291328298341058,0.0012217304763960308,-0.039095375244672985,0.016380000000000002,0.41874000000000006,-0.5532800000000001,18.5,0,1064,526,387,1943,28.7536328125,104295,17.241255117629134,998.8857624419604,0
2024-03-17T15:58:28,-0.22492532440000002,0.16331014244999997,10.0845508477,0.040317105721069016,0.0,-0.04230241774521256,0.02058,0.41958000000000006,-0.55048,18.5,0,1064,526,387,1943,28.7536328125,104295,17.241255117629134,998.8857624419604,0
2024-03-17T15:58:28,-0.25064816735,0.17766707805,10.034301573099999,0.03787364476827696,-0.0006108652381980154,-0.0433714319120591,0.02058,0.42350000000000004,-0.54432,18.5,0,1064,526,387,1943,28.7669140625,105866,17.18074011029636,998.8858015296873,0
2024-03-17T15:58:28,-0.20817556619999997,0.16869399329999998,10.076175968599998,0.04123340357836604,-0.001069014166846527,-0.0433714319120591,0.01778,0.41538,-0.55986,18.5,0,1064,526,387,1943,28.7669140625,105866,17.18074011029636,998.8858015296873,0
2024-03-17T15:58:28,-0.20039889274999997,0.16450655374999998,10.1240324206,0.048411070127192715,-0.001069014166846527,-0.039706240482871004,0.01778,0.41538,-0.55986,18.5,0,1064,526,387,1943,28.7669140625,105866,17.18074011029636,998.8858015296873,0
2024-03-17T15:58:28,-0.25184457865,0.3038884702,10.12104139235,0.038179077387375956,-0.005039638215133627,-0.04489859500755413,0.01386,0.42714,-0.546,18.5,0,1064,526,387,1943,28.7669140625,105866,17.18074011029636,998.8858015296873,0
2024-03-17T15:58:28,-0.21954147355,0.12143574694999999,10.079765202499999,0.038331793696925465,-0.0018325957145940463,-0.04566217655530165,0.01946,0.42154,-0.5625200000000001,18.5,0,1064,526,387,1943,28.7669140625,105866,17.18074011029636,998.8858015296873,0
2024-03-17T15:58:28,-0.2105683888,0.1579262916,10.087541875949999,0.03588833274413341,0.0015271630954950385,-0.04535674393620265,0.019180000000000003,0.42042,-0.5495,18.5,0,1064,526,387,1943,28.7669140625,105866,17.18074011029636,998.8858015296873,0
2024-03-17T15:58:28,-0.23030917524999997,0.19082760235,10.079765202499999,0.04260785036431157,0.0,-0.04459316238845512,0.019180000000000003,0.42042,-0.5495,18.5,0,1064,526,387,1943,28.7669140625,105866,17.18074011029636,998.8858015296873,0
2024-03-17T15:58:28,-0.20997018315,0.13100703735,10.107880868049998,0.0433714319120591,-0.004886921905584123,-0.04428772976935611,0.018060000000000003,0.4142600000000001,-0.5607000000000001,18.5,0,1064,526,387,1943,28.780390625,106601,17.150859426977306,998.8861562319566,0
2024-03-17T15:58:28,-0.20159530404999998,0.17706887240000002,10.14496961835,0.040317105721069016,0.0003054326190990077,-0.040622538340168025,0.01862,0.41874000000000006,-0.5518800000000001,18.5,0,1063,525,387,1943,28.780390625,106601,17.150859426977306,998.8861562319566,0
2024-03-17T15:58:28,-0.23748764304999997,0.17228322719999997,10.09830957765,0.041386119887915546,-0.0003054326190990077,-0.04459316238845512,0.02338,0.42126,-0.54474,18.5,0,1063,525,387,1943,28.780390625,106601,17.150859426977306,998.8861562319566,0
2024-03-17T15:58:28,-0.20997018315,0.16271193679999998,10.0893364929,0.04001167310197001,-0.0036651914291880926,-0.043982297150257116,0.02338,0.42126,-0.54474,18.5,0,1063,525,387,1943,28.780390625,106601,17.150859426977306,998.8861562319566,0
2024-03-17T15:58:28,-0.21595223965000002,0.16809578764999997,10.0654082669,0.041691552507014555,-0.0013744467859455349,-0.04703662334124718,0.015260000000000001,0.42042,-0.5518800000000001,18.5,0,1063,525,387,1943,28.780390625,106601,17.150859426977306,998.8861562319566,0
2024-03-17T15:58:28,-0.2309073809,0.14416756165,10.086943670299998,0.03924809155422249,-0.0009162978572970231,-0.04321871560250959,0.0175,0.42490000000000006,-0.5580400000000001,18.5,0,1063,525,387,1943,28.780390625,106601,17.150859426977306,998.8861562319566,0
2024-03-17T15:58:28,-0.22492532440000002,0.16570296504999998,10.083354436399997,0.04001167310197001,-0.001069014166846527,-0.04046982203061852,0.0175,0.42490000000000006,-0.5580400000000001,18.5,0,1063,525,387,1943,28.780390625,106601,17.150859426977306,998.8861562319566,0
2024-03-17T15:58:28,-0.2237289131,0.16809578764999997,10.08395264205,0.0433714319120591,-0.0044287729769356115,-0.04230241774521256,0.021700000000000004,0.41790000000000005,-0.5565,18.5,0,1063,525,387,1943,28.79328125,107553,17.11075556141519,998.8873507646134,0
2024-03-17T15:58:28,-0.2009970984,0.18723836844999997,10.0773723799,0.04230241774521256,-0.0033597588100890844,-0.04627304179349966,0.014980000000000002,0.41734000000000004,-0.5485200000000001,18.5,0,1063,525,387,1943,28.79328125,107553,17.11075556141519,998.8873507646134,0
2024-03-17T15:58:28,-0.18723836844999997,0.17766707805,10.088140081599997,0.04077525464971753,-0.0013744467859455349,-0.04505131131710364,0.018340000000000002,0.41958000000000006,-0.54586,18.5,0,1063,525,387,1943,28.79328125,107553,17.11075556141519,998.8873507646134,0
2024-03-17T15:58:28,-0.23210379219999996,0.14656038424999998,10.088140081599997,0.043982297150257116,-0.0022907446432425577,-0.04474587869800463,0.014980000000000002,0.42518000000000006,-0.53088,18.5,0,1063,525,387,1943,28.79328125,107553,17.11075556141519,998.8873507646134,0
2024-03-17T15:58:28,-0.23569302609999998,0.15852449724999998,10.1168539528,0.041080687268816536,-0.00045814892864851157,-0.04382958084070761,0.014980000000000002,0.42518000000000006,-0.53088,18.5,0,1063,525,387,1943,28.79328125,107553,17.11075556141519,998.8873507646134,0
2024-03-17T15:58:28,-0.23210379219999996,0.16869399329999998,10.101898811549999,0.03604104905368291,-0.006719517620178169,-0.041386119887915546,0.013580000000000002,0.42350000000000004,-0.54712,18.5,0,1063,525,387,1943,28.79328125,107553,17.11075556141519,998.8873507646134,0
2024-03-17T15:58:28,-0.21296121140000002,0.179461695,10.08036340815,0.041386119887915546,0.0016798794050445422,-0.041844268816564056,0.014980000000000002,0.42182000000000003,-0.5394200000000001,18.5,0,1063,525,387,1943,28.79328125,107553,17.11075556141519,998.8873507646134,0
2024-03-17T15:58:28,-0.20757736054999998,0.16570296504999998,10.09352393245,0.0435241482216086,-0.0056505034533316425,-0.0433714319120591,0.014980000000000002,0.42182000000000003,-0.5394200000000001,18.5,0,1063,525,387,1943,28.8065625,108591,17.06049028688014,998.8891773848331,0
2024-03-17T15:58:28,-0.21116659445,0.1447657673,10.054042359550001,0.04734205596034619,-0.0009162978572970231,-0.04688390703169768,0.014420000000000002,0.42490000000000006,-0.5467000000000001,18.5,0,1063,525,387,1943,28.8065625,108591,17.06049028688014,998.8891773848331,0
2024-03-17T15:58:28,-0.2225325018,0.1531406464,10.067801089499998,0.04306599929296009,-0.0027488935718910697,-0.04474587869800463,0.014420000000000002,0.42490000000000006,-0.5467000000000001,18.5,0,1063,525,387,1943,28.8065625,108591,17.06049028688014,998.8891773848331,0
2024-03-17T15:58:28,-0.23928225999999997,0.1483550012,10.09591675505,0.04321871560250959,-0.003207042500539581,-0.04688390703169768,0.022820000000000003,0.42322000000000004,-0.5441800000000001,18.5,0,1063,525,387,1943,28.8065625,108591,17.06049028688014,998.8891773848331,0
2024-03-17T15:58:28,-0.20039889274999997,0.17288143285000002,10.085747258999998,0.039706240482871004,-0.001069014166846527,-0.04810563750809371,0.008260000000000002,0.42238000000000003,-0.5418000000000001,18.5,0,1063,525,387,1943,28.8065625,108591,17.06049028688014,998.8891773848331,0
2024-03-17T15:58:28,-0.22971096959999998,0.17886348935000002,10.13539832795,0.03756821214917795,0.0015271630954950385,-0.04413501345980661,0.008260000000000002,0.42238000000000003,-0.5418000000000001,18.5,0,1063,525,387,1943,28.8065625,108591,17.06049028688014,998.8891773848331,0
2024-03-17T15:58:28,-0.2165504453,0.15972090854999998,10.12104139235,0.0433714319120591,-0.00473420559603462,-0.043676864531158106,0.020020000000000003,0.42266000000000004,-0.5321400000000001,18.5,0,1063,525,387,1943,28.8065625,108591,17.06049028688014,998.8891773848331,0
2024-03-17T15:58:28,-0.20398812665,0.19621145319999997,10.06839929515,0.03665191429188092,-0.00473420559603462,-0.04230241774521256,0.024500000000000004,0.41874000000000006,-0.5531400000000001,18.5,0,1063,525,387,1943,28.8200390625,109436,17.04082474220513,998.8948994502075,0
2024-03-17T15:58:28,-0.22013967919999997,0.16510475939999997,10.06361364995,0.03756821214917795,0.0024434609527920616,-0.04153883619746505,0.021700000000000004,0.41762000000000005,-0.56084,18.5,0,1063,525,387,1943,28.8200390625,109436,17.04082474220513,998.8948994502075,0
2024-03-17T15:58:28,-0.20458633229999998,0.15613167464999997,10.036096190049998,0.040622538340168025,-0.0027488935718910697,-0.04413501345980661,0.021700000000000004,0.41818000000000005,-0.5521600000000001,18.5,0,1063,525,387,1943,28.8200390625,109436,17.04082474220513,998.8948994502075,0
2024-03-17T15:58:28,-0.21355941705,0.15254244074999998,10.0821580251,0.04382958084070761,-0.004123340357836604,-0.04566217655530165,0.021700000000000004,0.41818000000000005,-0.5521600000000001,18.5,0,1063,525,387,1943,28.8200390625,109436,17.04082474220513,998.8948994502075,0
2024-03-17T15:58:28,-0.20578274359999998,0.15014961815,10.083354436399997,0.04291328298341058,-0.00595593607243065,-0.04612032548395016,0.01666,0.42686,-0.54362,18.5,0,1063,525,387,1943,28.8200390625,109436,17.04082474220513,998.8948994502075,0
2024-03-17T15:58:28,-0.20518453794999997,0.1531406464,10.0845508477,0.04123340357836604,-0.0016798794050445422,-0.048716502746291725,0.013300000000000001,0.42378000000000005,-0.5570600000000001,18.5,0,1063,525,387,1943,28.8200390625,109436,17.04082474220513,998.8948994502075,0
2024-03-17T15:58:29,-0.21714865095,0.1531406464,10.08634546465,0.04245513405476207,-0.0003054326190990077,-0.04214970143566306,0.016380000000000002,0.41790000000000005,-0.5446,18.5,0,1063,525,387,1943,28.8200390625,109436,17.04082474220513,998.8948994502075,0
2024-03-17T15:58:29,-0.22731814699999997,0.1639083481,10.1072826624,0.04153883619746505,-0.003207042500539581,-0.04566217655530165,0.016380000000000002,0.41790000000000005,-0.5446,18.5,0,1063,525,387,1943,28.832734375,111313,17.01092979996542,998.8939856419513,0
2024-03-17T15:58:29,-0.26739792554999997,0.13938191645,10.06361364995,0.04230241774521256,-0.002901609881440573,-0.04382958084070761,0.012180000000000002,0.4142600000000001,-0.55286,18.5,0,1063,526,387,1943,28.832734375,111313,17.01092979996542,998.8939856419513,0
2024-03-17T15:58:29,-0.20937197749999997,0.17886348935000002,10.0905329042,0.039400807863771994,0.0007635815477475193,-0.048716502746291725,0.012180000000000002,0.4142600000000001,-0.55286,18.5,0,1063,526,387,1943,28.832734375,111313,17.01092979996542,998.8939856419513,0
2024-03-17T15:58:29,-0.21894326790000002,0.17228322719999997,10.216156090699998,0.038942658935123484,-0.0024434609527920616,-0.04550946024575215,0.02338,0.41818000000000005,-0.56406,18.5,0,1063,526,387,1943,28.832734375,111313,17.01092979996542,998.8939856419513,0
2024-03-17T15:58:29,-0.20817556619999997,0.15014961815,10.08036340815,0.041996985126113565,-0.005803219762881146,-0.04459316238845512,0.018900000000000004,0.41846000000000005,-0.55356,18.5,0,1063,526,387,1943,28.832734375,111313,17.01092979996542,998.8939856419513,0
2024-03-17T15:58:29,-0.23688943739999999,0.14117653339999997,10.07438135165,0.041691552507014555,-0.004581489286485115,-0.041844268816564056,0.018900000000000004,0.41846000000000005,-0.55356,18.5,0,1063,526,387,1943,28.832734375,111313,17.01092979996542,998.8939856419513,0
2024-03-17T15:58:29,-0.19920248144999997,0.13998012209999997,10.0666046782,0.04489859500755413,-0.00045814892864851157,-0.04566217655530165,0.016380000000000002,0.42098,-0.55132,18.5,0,1063,526,387,1943,28.832734375,111313,17.01092979996542,998.8939856419513,0
2024-03-17T15:58:29,-0.2105683888,0.17886348935000002,10.0354979844,0.03802636107782646,-0.038637226316024474,-0.04260785036431157,0.01946,0.41538,-0.5489400000000001,18.5,0,1063,526,387,1943,28.8450390625,112126,16.955554877043358,998.8852785079737,0
2024-03-17T15:58:29,-0.19142580799999998,0.16151552549999998,10.073783145999998,0.039400807863771994,-0.004123340357836604,-0.04550946024575215,0.010500000000000002,0.42210000000000003,-0.55832,18.5,0,1063,526,387,1943,28.8450390625,112126,16.955554877043358,998.8852785079737,0
2024-03-17T15:58:29,-0.23030917524999997,0.1746760498,10.092327521149999,0.039095375244672985,-0.003207042500539581,-0.043676864531158106,0.020860000000000004,0.42238000000000003,-0.5502,18.5,0,1063,526,387,1943,28.8450390625,112126,16.955554877043358,998.8852785079737,0
2024-03-17T15:58:29,-0.22133609049999997,0.1471585899,10.14018397315,0.040317105721069016,-0.0016798794050445422,-0.04734205596034619,0.020860000000000004,0.42238000000000003,-0.5502,18.5,0,1063,526,387,1943,28.8450390625,112126,16.955554877043358,998.8852785079737,0
2024-03-17T15:58:29,-0.22671994134999998,0.16570296504999998,10.1048898398,0.038789942625573975,-0.0033597588100890844,-0.039858956792420505,0.020020000000000003,0.42602000000000007,-0.5525800000000001,18.5,0,1063,526,387,1943,28.8450390625,112126,16.955554877043358,998.8852785079737,0
2024-03-17T15:58:29,-0.19621145319999997,0.16091731985,10.13420191665,0.039553524173321496,-0.002138028333693054,-0.04382958084070761,0.02198,0.42182000000000003,-0.5474000000000001,18.5,0,1063,526,387,1943,28.8450390625,112126,16.955554877043358,998.8852785079737,0
2024-03-17T15:58:29,-0.25543381255,0.15732808594999997,10.119844981049999,0.04214970143566306,-0.001069014166846527,-0.04245513405476207,0.02198,0.42182000000000003,-0.5474000000000001,18.5,0,1063,526,387,1943,28.8450390625,112126,16.955554877043358,998.8852785079737,0
2024-03-17T15:58:29,-0.20997018315,0.15852449724999998,10.088140081599997,0.04046982203061852,-0.003207042500539581,-0.04520402762665314,0.01974,0.42546000000000006,-0.54586,18.5,0,1063,526,387,1943,28.8563671875,113484,16.930696194237576,998.8893084126701,0
2024-03-17T15:58:29,-0.24346969954999997,0.15493526335,10.09352393245,0.041691552507014555,-0.0015271630954950385,-0.041996985126113565,0.01582,0.42182000000000003,-0.55608,18.5,0,1063,526,387,1943,28.8563671875,113484,16.930696194237576,998.8893084126701,0
2024-03-17T15:58:29,-0.22791635265,0.16510475939999997,10.1001041946,0.04077525464971753,-0.0025961772623415654,-0.04642575810304917,0.014980000000000002,0.41594000000000003,-0.5292,18.5,0,1063,526,387,1943,28.8563671875,113484,16.930696194237576,998.8893084126701,0
2024-03-17T15:58:29,-0.2117648001,0.1579262916,10.08036340815,0.04306599929296009,-0.0027488935718910697,-0.039858956792420505,0.012180000000000002,0.42378000000000005,-0.5573400000000001,19.5,0,1063,526,387,1943,28.8563671875,113484,16.930696194237576,998.8893084126701,0
2024-03-17T15:58:29,-0.2165504453,0.17168502154999998,10.0893364929,0.043982297150257116,-0.0027488935718910697,-0.04413501345980661,0.012180000000000002,0.42378000000000005,-0.5573400000000001,18.5,0,1063,526,387,1943,28.8563671875,113484,16.930696194237576,998.8893084126701,0
2024-03-17T15:58:29,-0.22193429615000002,0.16929219894999997,10.085149053349998,0.04092797095926703,-0.0003054326190990077,-0.04413501345980661,0.012180000000000002,0.41874000000000006,-0.5453000000000001,18.5,0,1063,526,387,1943,28.8563671875,113484,16.930696194237576,998.8893084126701,0
2024-03-17T15:58:29,-0.21296121140000002,0.12502498085,10.06481006125,0.038942658935123484,-0.004123340357836604,-0.04153883619746505,0.0161,0.41790000000000005,-0.54978,18.5,0,1063,526,387,1943,28.8563671875,113484,16.930696194237576,998.8893084126701,0
2024-03-17T15:58:29,-0.21236300575,0.15613167464999997,10.061819032999999,0.038484510006474966,-0.0006108652381980154,-0.04123340357836604,0.0161,0.41790000000000005,-0.54978,18.5,0,1063,526,387,1943,28.8680859375,114020,16.89059137448626,998.8957606391263,0
2024-03-17T15:58:29,-0.23330020349999997,0.15672988029999999,10.082756230749998,0.038789942625573975,-0.004276056667386108,-0.04245513405476207,0.024220000000000002,0.41314000000000006,-0.5426400000000001,18.5,0,1063,526,387,1943,28.8680859375,114020,16.89059137448626,998.8957606391263,0
2024-03-17T15:58:29,-0.22851455829999998,0.18245272324999998,10.082756230749998,0.04214970143566306,-0.004886921905584123,-0.04230241774521256,0.017220000000000003,0.42126,-0.5391400000000001,18.5,0,1063,526,387,1943,28.8680859375,114020,16.89059137448626,998.8957606391263,0
2024-03-17T15:58:29,-0.22612173569999997,0.19262221929999998,10.080961613799998,0.039095375244672985,-0.005192354524683131,-0.04489859500755413,0.015260000000000001,0.41706000000000004,-0.5472600000000001,18.5,0,1063,526,387,1943,28.8680859375,114020,16.89059137448626,998.8957606391263,0
2024-03-17T15:58:29,-0.20877377184999998,0.17886348935000002,10.09950598895,0.040622538340168025,0.00045814892864851157,-0.041691552507014555,0.027860000000000003,0.42126,-0.53662,18.5,0,1063,526,387,1943,28.8680859375,114020,16.89059137448626,998.8957606391263,0
2024-03-17T15:58:29,-0.20757736054999998,0.16510475939999997,10.232307643249998,0.04123340357836604,-0.0024434609527920616,-0.04413501345980661,0.027860000000000003,0.42126,-0.53662,18.5,0,1063,526,387,1943,28.8680859375,114020,16.89059137448626,998.8957606391263,0
2024-03-17T15:58:29,-0.2141576227,0.1806581063,10.066006472549999,0.04245513405476207,0.002138028333693054,-0.0433714319120591,0.014980000000000002,0.41258000000000006,-0.5577600000000001,18.5,0,1063,526,387,1943,28.8680859375,114020,16.89059137448626,998.8957606391263,0
2024-03-17T15:58:29,-0.23030917524999997,0.1878365741,10.0953185494,0.038942658935123484,-0.003207042500539581,-0.04673119072214818,0.01246,0.41706000000000004,-0.5511800000000001,18.5,0,1063,526,387,1943,28.8790234375,114952,16.86063382982062,998.897366922861,0
2024-03-17T15:58:29,-0.2009970984,0.16271193679999998,10.076774174250001,0.038484510006474966,-0.004123340357836604,-0.04214970143566306,0.014700000000000001,0.41790000000000005,-0.5429200000000001,18.5,0,1063,526,387,1943,28.8790234375,114952,16.86063382982062,998.897366922861,0
2024-03-17T15:58:29,-0.21296121140000002,0.1746760498,10.0749795573,0.04214970143566306,-0.003054326190990077,-0.04428772976935611,0.013300000000000001,0.41930000000000006,-0.5525800000000001,18.5,0,1063,526,387,1943,28.8790234375,114952,16.86063382982062,998.897366922861,0
2024-03-17T15:58:29,-0.24227328824999997,0.16689937635,10.1168539528,0.04214970143566306,-0.005345070834232635,-0.04260785036431157,0.013300000000000001,0.41930000000000006,-0.5525800000000001,18.5,0,1063,526,387,1943,28.8790234375,114952,16.86063382982062,998.897366922861,0
2024-03-17T15:58:29,-0.22432711874999997,0.1639083481,10.04447106915,0.04153883619746505,-0.003970624048287101,-0.04612032548395016,0.023940000000000003,0.42294000000000004,-0.55272,18.5,0,1063,526,387,1943,28.8790234375,114952,16.86063382982062,998.897366922861,0
2024-03-17T15:58:29,-0.215354034,0.16570296504999998,10.1048898398,0.040317105721069016,-0.0024434609527920616,-0.041844268816564056,0.01414,0.41202000000000005,-0.55272,18.5,0,1063,526,387,1943,28.8790234375,114952,16.86063382982062,998.897366922861,0
2024-03-17T15:58:29,-0.20578274359999998,0.16271193679999998,10.067801089499998,0.039553524173321496,-0.0019853120241435504,-0.04535674393620265,0.01414,0.41202000000000005,-0.55272,18.5,0,1063,526,387,1943,28.8790234375,114952,16.86063382982062,998.897366922861,0
2024-03-17T15:58:29,-0.22851455829999998,0.16450655374999998,10.1001041946,0.039095375244672985,-0.0036651914291880926,-0.04673119072214818,0.018340000000000002,0.41706000000000004,-0.54138,19.5,0,1063,526,387,1943,28.889765625,116299,16.82558458321727,998.8950762109332,0
2024-03-17T15:58:29,-0.21714865095,0.16570296504999998,10.0929257268,0.04016438941151951,-0.0006108652381980154,-0.0435241482216086,0.018900000000000004,0.41706000000000004,-0.5481,18.5,0,1063,526,387,1943,28.889765625,116299,16.82558458321727,998.8950762109332,0
2024-03-17T15:58:30,-0.26321048599999997,0.15672988029999999,10.096514960699999,0.03802636107782646,-0.0018325957145940463,-0.04260785036431157,0.0175,0.42042,-0.5476800000000001,18.5,0,1063,526,387,1943,28.889765625,116299,16.82558458321727,998.8950762109332,0
2024-03-17T15:58:30,-0.20338992099999997,0.15732808594999997,10.097113166349997,0.04489859500755413,-0.0015271630954950385,-0.04260785036431157,0.01778,0.41118000000000005,-0.5370400000000001,18.5,0,1063,526,387,1943,28.889765625,116299,16.82558458321727,998.8950762109332,0
2024-03-17T15:58:30,-0.22013967919999997,0.1471585899,10.134800122299998,0.038179077387375956,-0.005039638215133627,-0.04291328298341058,0.01778,0.41118000000000005,-0.5370400000000001,19.5,0,1063,526,387,1943,28.889765625,116299,16.82558458321727,998.8950762109332,0
2024-03-17T15:58:30,-0.20817556619999997,0.15014961815,10.1024970172,0.04092797095926703,-0.004886921905584123,-0.039400807863771994,0.02142,0.42210000000000003,-0.553,18.5,0,1063,526,387,1943,28.889765625,116299,16.82558458321727,998.8950762109332,0
2024-03-17T15:58:30,-0.20877377184999998,0.17766707805,10.0845508477,0.04535674393620265,-0.0007635815477475193,-0.041691552507014555,0.018060000000000003,0.41930000000000006,-0.5521600000000001,18.5,0,1063,526,387,1943,28.889765625,116299,16.82558458321727,998.8950762109332,0
2024-03-17T15:58:30,-0.20638094924999997,0.16450655374999998,10.06720288385,0.03726277953007894,-0.007177666548826681,-0.038331793696925465,0.018060000000000003,0.41930000000000006,-0.5521600000000001,19.5,0,1063,526,387,1943,28.9005078125,117925,16.785458127668498,998.8909948029105,0
2024-03-17T15:58:30,-0.21834506225,0.1579262916,10.07318494035,0.03772092845872745,0.0,-0.0476474885794452,0.01778,0.42658,-0.5551,18.5,0,1063,526,387,1943,28.9005078125,117925,16.785458127668498,998.8909948029105,0
2024-03-17T15:58:30,-0.22073788485,0.16510475939999997,10.09591675505,0.038484510006474966,0.0013744467859455349,-0.04413501345980661,0.01778,0.42658,-0.5551,18.5,0,1063,526,387,1943,28.9005078125,117925,16.785458127668498,998.8909948029105,0
2024-03-17T15:58:30,-0.22671994134999998,0.14297115034999996,10.127621654499999,0.040317105721069016,-0.0003054326190990077,-0.048258353817643214,0.014700000000000001,0.41566000000000003,-0.55874,19.5,0,1063,526,387,1943,28.9005078125,117925,16.785458127668498,998.8909948029105,0
2024-03-17T15:58:30,-0.23868405434999998,0.14416756165,10.101898811549999,0.03665191429188092,-0.0018325957145940463,-0.04230241774521256,0.02478,0.42238000000000003,-0.55132,18.5,0,1063,526,387,1943,28.9005078125,117925,16.785458127668498,998.8909948029105,0
2024-03-17T15:58:30,-0.20279171534999998,0.16749758199999998,10.218548913299998,0.04214970143566306,-0.0016798794050445422,-0.04291328298341058,0.02478,0.42238000000000003,-0.55132,19.5,0,1063,526,387,1943,28.9005078125,117925,16.785458127668498,998.8909948029105,0
2024-03-17T15:58:30,-0.2237289131,0.16630117069999997,10.09591675505,0.03924809155422249,-0.005345070834232635,-0.041691552507014555,0.01862,0.42714,-0.5570600000000001,19.5,0,1063,526,387,1943,28.9005078125,117925,16.785458127668498,998.8909948029105,0
2024-03-17T15:58:30,-0.215354034,0.15972090854999998,10.10309522285,0.04001167310197001,-0.0027488935718910697,-0.04535674393620265,0.01582,0.42406000000000005,-0.5516,18.5,0,1063,526,387,1943,28.9102734375,118090,16.755460780627015,998.8978619251554,0
2024-03-17T15:58:30,-0.22492532440000002,0.15134602945,10.13420191665,0.041691552507014555,0.0006108652381980154,-0.04550946024575215,0.018900000000000004,0.41034000000000004,-0.5546800000000001,18.5,0,1063,526,387,1943,28.9102734375,118090,16.755460780627015,998.8978619251554,0
2024-03-17T15:58:30,-0.23449661479999998,0.16809578764999997,10.094720343749998,0.04046982203061852,-0.0022907446432425577,-0.04321871560250959,0.01414,0.41958000000000006,-0.5423600000000001,18.5,0,1063,526,387,1943,28.9102734375,118090,16.755460780627015,998.8978619251554,0
2024-03-17T15:58:30,-0.215354034,0.1531406464,10.0701939121,0.041080687268816536,-0.005039638215133627,-0.04321871560250959,0.01414,0.42490000000000006,-0.5672800000000001,18.5,0,1063,526,387,1943,28.9102734375,118090,16.755460780627015,998.8978619251554,0
2024-03-17T15:58:30,-0.23150558654999998,0.16271193679999998,10.0558369765,0.04276056667386108,-0.00015271630954950385,-0.04627304179349966,0.015540000000000002,0.42490000000000006,-0.5672800000000001,18.5,0,1063,526,387,1943,28.9102734375,118090,16.755460780627015,998.8978619251554,0
2024-03-17T15:58:30,-0.20458633229999998,0.16869399329999998,10.176674517799999,0.04153883619746505,-0.0013744467859455349,-0.041691552507014555,0.018060000000000003,0.42294000000000004,-0.5455800000000001,18.5,0,1063,526,387,1943,28.9102734375,118090,16.755460780627015,998.8978619251554,0
2024-03-17T15:58:30,-0.2177468566,0.14955141249999998,10.0905329042,0.04306599929296009,-0.003970624048287101,-0.04566217655530165,0.0175,0.41986,-0.5446,18.5,0,1063,525,387,1943,28.9102734375,118090,16.755460780627015,998.8978619251554,0
2024-03-17T15:58:30,-0.22492532440000002,0.14775679555,10.101300605899999,0.04276056667386108,-0.0013744467859455349,-0.04413501345980661,0.0175,0.41986,-0.5446,18.5,0,1063,525,387,1943,28.9204296875,118090,16.720406906736628,998.8982008882242,0
2024-03-17T15:58:30,-0.24646072779999997,0.16570296504999998,10.0175518149,0.0355829001250344,-0.001069014166846527,-0.04214970143566306,0.012740000000000001,0.42154,-0.55286,18.5,0,1063,525,387,1943,28.9204296875,118090,16.720406906736628,998.8982008882242,0
2024-03-17T15:58:30,-0.22612173569999997,0.16091731985,10.076175968599998,0.04077525464971753,-0.00045814892864851157,-0.043982297150257116,0.02254,0.41678000000000004,-0.55524,18.5,0,1063,525,387,1943,28.9204296875,118090,16.720406906736628,998.8982008882242,0
2024-03-17T15:58:30,-0.19022939669999997,0.14775679555,10.080961613799998,0.04306599929296009,-0.0007635815477475193,-0.04276056667386108,0.015260000000000001,0.4148200000000001,-0.55356,18.5,0,1063,525,387,1943,28.9204296875,118090,16.720406906736628,998.8982008882242,0
2024-03-17T15:58:30,-0.22851455829999998,0.16271193679999998,10.110273690649999,0.04077525464971753,-0.0013744467859455349,-0.04627304179349966,0.015260000000000001,0.4148200000000001,-0.55356,18.5,0,1063,525,387,1943,28.9204296875,118090,16.720406906736628,998.8982008882242,0
2024-03-17T15:58:30,-0.22492532440000002,0.18484554585,10.08155981945,0.040622538340168025,-0.0036651914291880926,-0.04291328298341058,0.020300000000000002,0.42042,-0.55286,19.5,0,1063,525,387,1943,28.9204296875,118090,16.720406906736628,998.8982008882242,0
2024-03-17T15:58:30,-0.24167508259999998,0.18245272324999998,10.101898811549999,0.039706240482871004,0.0,-0.04505131131710364,0.028140000000000005,0.41734000000000004,-0.5628000000000001,18.5,0,1063,525,387,1943,28.9204296875,118090,16.720406906736628,998.8982008882242,0
2024-03-17T15:58:30,-0.2141576227,0.15672988029999999,10.0893364929,0.04077525464971753,-0.0007635815477475193,-0.04321871560250959,0.028140000000000005,0.41734000000000004,-0.5628000000000001,18.5,0,1063,525,387,1943,28.9309765625,119006,16.680300573495646,998.9027524721367,0
2024-03-17T15:58:30,-0.22791635265,0.16151552549999998,10.2580304862,0.038789942625573975,-0.0036651914291880926,-0.04520402762665314,0.02198,0.41286,-0.54922,18.5,0,1063,525,387,1943,28.9309765625,119006,16.680300573495646,998.9027524721367,0
2024-03-17T15:58:30,-0.22133609049999997,0.15972090854999998,10.069595706449999,0.04230241774521256,-0.0036651914291880926,-0.041386119887915546,0.02198,0.41286,-0.54922,18.5,0,1063,525,387,1943,28.9309765625,119006,16.680300573495646,998.9027524721367,0
2024-03-17T15:58:30,-0.19740786449999997,0.17108681589999997,10.09830957765,0.039400807863771994,-0.00015271630954950385,-0.04092797095926703,0.024220000000000002,0.42574000000000006,-0.53802,18.5,0,1063,525,387,1943,28.9309765625,119006,16.680300573495646,998.9027524721367,0
2024-03-17T15:58:30,-0.2584248408,0.1579262916,10.09950598895,0.038942658935123484,-0.003207042500539581,-0.041996985126113565,0.018900000000000004,0.41958000000000006,-0.5383000000000001,18.5,0,1063,525,387,1943,28.9309765625,119006,16.680300573495646,998.9027524721367,0
2024-03-17T15:58:30,-0.2309073809,0.15254244074999998,10.14736244095,0.041844268816564056,-0.0022907446432425577,-0.041996985126113565,0.018900000000000004,0.41958000000000006,-0.5383000000000001,19.5,0,1063,525,387,1943,28.9309765625,119006,16.680300573495646,998.9027524721367,0
2024-03-17T15:58:30,-0.215354034,0.15373885204999999,10.086943670299998,0.038637226316024474,-0.002138028333693054,-0.04306599929296009,0.017220000000000003,0.42154,-0.5426400000000001,19.5,0,1063,525,387,1943,28.9309765625,119006,16.680300573495646,998.9027524721367,0
2024-03-17T15:58:30,-0.21236300575,0.15613167464999997,10.082756230749998,0.04276056667386108,-0.006414085001079162,-0.04245513405476207,0.023100000000000002,0.41342,-0.5542600000000001,18.5,0,1063,525,387,1943,28.9411328125,119511,16.650345938599465,998.9030905828727,0
