Timestamp,Accel_X,Accel_Y,Accel_Z,Gyro_X,Gyro_Y,Gyro_Z,Mag_X,Mag_Y,Mag_Z,LSM9DS1_Temp,Proximity,Color_R,Color_G,Color_B,Color_C,BME680_Temp,Gas,Humidity,Pressure,Switch_Pressed,GPS_Latitude,GPS_Longitude,GPS_Speed,GPS_Timestamp
2024-03-17T16:26:06,-1.0145567824,2.43888443505,9.52044291975,0.020769418098732523,0.02351831167062359,0.08613199858592017,0.04662,0.4403000000000001,-0.43498000000000003,14.5,0,0,0,0,0,33.574921875,163517,100,695.662002676745,0,,,,N/A
2024-03-17T16:26:06,-1.02352986715,2.4305095559499996,9.55513884745,0.018784106074588976,0.021991148575128558,0.08613199858592017,0.051660000000000005,0.44534,-0.44926000000000005,14.5,0,0,0,0,0,33.574921875,163517,100,695.662002676745,0,,,,N/A
2024-03-17T16:26:06,-1.00917293155,2.46879471755,9.567102960449999,0.018478673455489966,0.023976460599272102,0.08552113334772216,0.046900000000000004,0.43862000000000007,-0.43904000000000004,15.5,0,0,0,0,0,33.574921875,163517,100,695.662002676745,0,,,,N/A
2024-03-17T16:26:06,-1.0037890807,2.4346969955,9.5246303593,0.019394971312786988,0.02306016274197508,0.08842274322916273,0.046900000000000004,0.43862000000000007,-0.43904000000000004,15.5,0,0,0,0,0,33.574921875,163517,100,695.662002676745,0,,,,N/A
2024-03-17T16:26:06,-1.0624132344,2.4436700802499995,9.588638363849999,0.019394971312786988,0.020463985479633514,0.0907134878724053,0.04242,0.45458000000000004,-0.43624000000000007,14.5,0,0,0,0,0,33.574921875,163517,100,695.662002676745,0,,,,N/A
2024-03-17T16:26:06,-1.0384850084,2.5866412305999997,9.52522856495,0.018020524526841455,0.016798794050445424,0.08872817584826173,0.0427,0.44758000000000003,-0.44744000000000006,15.5,0,0,0,0,0,33.574921875,163517,100,695.662002676745,0,,,,N/A
2024-03-17T16:26:06,-1.00797652025,2.4634108667000003,9.4061856406,0.020158552860534508,0.020769418098732523,0.08735372906231621,0.046900000000000004,0.45150000000000007,-0.44926000000000005,14.5,0,0,0,0,0,33.574921875,163517,100,695.662002676745,0,,,,N/A
2024-03-17T16:26:06,-1.01635139935,2.45802701585,9.523433948,0.012064588454410803,0.02168571595602955,0.08827002691961322,0.046900000000000004,0.45150000000000007,-0.44926000000000005,15.5,0,0,0,0,0,22.5755078125,18122,18.200167115922184,999.2297240664947,0,,,,N/A
2024-03-17T16:26:06,-1.01515498805,2.5818555854,9.598807859899999,0.02168571595602955,0.020463985479633514,0.08216137453763307,0.0357,0.4473000000000001,-0.44926000000000005,15.5,0,0,0,0,0,22.5755078125,18122,18.200167115922184,999.2297240664947,0,,,,N/A
2024-03-17T16:26:06,-1.0450652705499999,2.4538395763,9.584450924299999,0.01664607774089592,0.020922134408282028,0.08384125394267762,0.0357,0.4473000000000001,-0.44926000000000005,15.5,0,0,0,0,0,22.5755078125,18122,18.200167115922184,999.2297240664947,0,,,,N/A
2024-03-17T16:26:06,-1.016949605,2.4490539311,9.5880401582,0.019242255003237483,0.020005836550985007,0.08643743120501918,0.04438,0.44702000000000003,-0.4389,15.5,0,0,0,0,0,22.5755078125,18122,18.200167115922184,999.2297240664947,0,,,,N/A
2024-03-17T16:26:06,-1.0187442219499998,2.42333108815,9.576076045199999,0.01466076571675237,0.021227567027381034,0.08521570072862314,0.046340000000000006,0.45458000000000004,-0.43442000000000003,15.5,0,0,0,0,0,22.5755078125,18122,18.200167115922184,999.2297240664947,0,,,,N/A
2024-03-17T16:26:06,-0.9954142015999999,2.4526431649999996,9.537790883599998,0.02229658119422756,0.01893682238413848,0.08735372906231621,0.046340000000000006,0.45458000000000004,-0.43442000000000003,15.5,0,0,0,0,0,22.5755078125,18122,18.200167115922184,999.2297240664947,0,,,,N/A
2024-03-17T16:26:06,-1.0007980524499998,2.4502503424,9.63649481585,0.02428189321837111,0.022449297503777065,0.0872010127527667,0.046060000000000004,0.44870000000000004,-0.43694000000000005,15.5,0,0,0,0,0,22.5755078125,18122,18.200167115922184,999.2297240664947,0,,,,N/A
2024-03-17T16:26:06,-1.0366903914499999,2.4693929231999996,9.60060247685,0.01786780821729195,0.022143864884678056,0.08765916168141522,0.044660000000000005,0.44170000000000004,-0.44548000000000004,15.5,0,0,0,0,0,22.8239453125,26915,18.254230637112457,999.2309813487808,0,,,,N/A
2024-03-17T16:26:06,-1.0624132344,2.4329023785499997,9.49890751635,0.020463985479633514,0.02168571595602955,0.08933904108645975,0.044660000000000005,0.44954,-0.43862000000000007,15.5,0,0,0,0,0,22.8239453125,26915,18.254230637112457,999.2309813487808,0,,,,N/A
2024-03-17T16:26:06,-1.0277173067,2.4729821571,9.558728081349999,0.020158552860534508,0.020922134408282028,0.08765916168141522,0.04018000000000001,0.44422,-0.43960000000000005,15.5,0,0,0,0,0,22.8239453125,26915,18.254230637112457,999.2309813487808,0,,,,N/A
2024-03-17T16:26:06,-1.02233345585,2.42572391075,9.589236569499999,0.02061670178918302,0.019700403931885997,0.08979719001510826,0.04018000000000001,0.44422,-0.43960000000000005,15.5,0,0,0,0,0,22.8239453125,26915,18.254230637112457,999.2309813487808,0,,,,N/A
2024-03-17T16:26:06,-1.0145567824,2.46400907235,9.57069219435,0.02061670178918302,0.020158552860534508,0.08475755179997463,0.048580000000000005,0.44534,-0.44520000000000004,15.5,0,0,0,0,0,22.8239453125,26915,18.254230637112457,999.2309813487808,0,,,,N/A
2024-03-17T16:26:06,-0.9816554716499999,2.44008084635,9.60060247685,0.018173240836390957,0.019700403931885997,0.08689558013366769,0.04102,0.44114000000000003,-0.44772,15.5,0,0,0,0,0,22.8239453125,26915,18.254230637112457,999.2309813487808,0,,,,N/A
2024-03-17T16:26:06,-1.03788680275,2.4394826406999996,9.58265630735,0.020158552860534508,0.02428189321837111,0.08949175739600926,0.04102,0.44114000000000003,-0.44772,15.5,0,0,0,0,0,23.186640625,35133,18.314629057273297,999.230302243574,0,,,,N/A
2024-03-17T16:26:06,-1.0073783146,2.4370898180999996,9.6394858441,0.020158552860534508,0.01710422666954443,0.08903360846736075,0.04438,0.44282000000000005,-0.4478600000000001,15.5,0,8647,8311,10344,23435,23.186640625,35133,18.314629057273297,999.230302243574,0,,,,N/A
2024-03-17T16:26:06,-0.99242317335,2.4323041728999995,9.628119936749998,0.01756237559819294,0.02168571595602955,0.08842274322916273,0.045500000000000006,0.44506000000000007,-0.44926000000000005,15.5,0,8647,8311,10344,23435,23.186640625,35133,18.314629057273297,999.230302243574,0,,,,N/A
2024-03-17T16:26:06,-1.0325029519,2.4275185276999998,9.625128908499999,0.018784106074588976,0.025198191075668133,0.08643743120501918,0.046060000000000004,0.44450000000000006,-0.4529,15.5,0,8647,8311,10344,23435,23.186640625,35133,18.314629057273297,999.230302243574,0,,,,N/A
2024-03-17T16:26:06,-0.9547362173999999,2.4622144553999994,9.61256658985,0.01786780821729195,0.019853120241435502,0.08872817584826173,0.046060000000000004,0.44450000000000006,-0.44800000000000006,15.5,0,8647,8311,10344,23435,23.186640625,35133,18.314629057273297,999.230302243574,0,,,,N/A
2024-03-17T16:26:06,-1.00917293155,2.4424736689499995,9.61256658985,0.02290744643242558,0.020311269170084013,0.0872010127527667,0.05138,0.45178,-0.44800000000000006,15.5,0,8647,8311,10344,23435,23.186640625,35133,18.314629057273297,999.230302243574,0,,,,N/A
2024-03-17T16:26:06,-1.0552347666,2.4472593141499996,9.56351372655,0.019547687622336492,0.017409659288643436,0.08277223977583109,0.04438,0.44814000000000004,-0.44422,15.5,0,8647,8311,10344,23435,23.5755078125,42873,18.356261938634205,999.245085888366,0,,,,N/A
2024-03-17T16:26:06,-1.03310115755,2.4915265322499995,9.59222759775,0.020463985479633514,0.020769418098732523,0.08689558013366769,0.04914000000000001,0.4459,-0.43638000000000005,15.5,0,8647,8311,10344,23435,23.5755078125,42873,18.356261938634205,999.245085888366,0,,,,N/A
2024-03-17T16:26:06,-1.0360921857999998,2.4526431649999996,9.647262517549999,0.02428189321837111,0.02290744643242558,0.08735372906231621,0.04914000000000001,0.4459,-0.43638000000000005,15.5,0,8647,8311,10344,23435,23.5755078125,42873,18.356261938634205,999.245085888366,0,,,,N/A
2024-03-17T16:26:06,-1.0127621654499999,2.48793729835,9.6562356023,0.02229658119422756,0.019547687622336492,0.08460483549042512,0.041580000000000006,0.44534,-0.43722000000000005,15.5,0,8647,8311,10344,23435,23.5755078125,42873,18.356261938634205,999.245085888366,0,,,,N/A
2024-03-17T16:26:06,-1.0253244841,2.4753749797,9.6490571345,0.020005836550985007,0.020311269170084013,0.08796459430051423,0.04942,0.44702000000000003,-0.4354,15.5,0,8647,8311,10344,23435,23.5755078125,42873,18.356261938634205,999.245085888366,0,,,,N/A
2024-03-17T16:26:06,-1.01395857675,2.4430718745999997,9.632307376299998,0.022143864884678056,0.01893682238413848,0.09010262263420728,0.039900000000000005,0.4478600000000001,-0.44842000000000004,15.5,0,8647,8311,10344,23435,23.5755078125,42873,18.356261938634205,999.245085888366,0,,,,N/A
2024-03-17T16:26:06,-1.0271191010499998,2.44845572545,9.632307376299998,0.019547687622336492,0.018020524526841455,0.08689558013366769,0.039900000000000005,0.4478600000000001,-0.44842000000000004,15.5,0,8647,8311,10344,23435,23.9462109375,50217,18.376635584931634,999.2455989052756,0,,,,N/A
2024-03-17T16:26:07,-1.05583297225,2.428714939,9.6418786667,0.015882496193148403,0.023671027980173096,0.08597928227637067,0.04662,0.44702000000000003,-0.44576000000000005,15.5,0,8647,8311,10344,23435,23.9462109375,50217,18.376635584931634,999.2455989052756,0,,,,N/A
2024-03-17T16:26:07,-0.9912267620499999,2.45563419325,9.66879792095,0.021838432265579053,0.027794368338009703,0.08781187799096472,0.04186000000000001,0.4461800000000001,-0.4513600000000001,15.5,0,8647,8311,10344,23435,23.9462109375,50217,18.376635584931634,999.2455989052756,0,,,,N/A
2024-03-17T16:26:07,-1.01395857675,2.47477677405,9.614361206799998,0.01786780821729195,0.019853120241435502,0.08918632477691024,0.04186000000000001,0.4461800000000001,-0.4513600000000001,15.5,0,8647,8311,10344,23435,23.9462109375,50217,18.376635584931634,999.2455989052756,0,,,,N/A
2024-03-17T16:26:07,-1.0217352502,2.4317059672499997,9.66640509835,0.020769418098732523,0.020769418098732523,0.08796459430051423,0.046900000000000004,0.44870000000000004,-0.43652,15.5,0,8647,8311,10344,23435,23.9462109375,50217,18.376635584931634,999.2455989052756,0,,,,N/A
2024-03-17T16:26:07,-1.0289137179999999,2.4352952011499998,9.6538427797,0.02061670178918302,0.016798794050445424,0.0867428638241182,0.05222,0.4461800000000001,-0.4513600000000001,15.5,0,8647,8311,10344,23435,23.9462109375,50217,18.376635584931634,999.2455989052756,0,,,,N/A
2024-03-17T16:26:07,-1.0013962581,2.4616162497499996,9.655637396649999,0.02351831167062359,0.025961772623415653,0.08811731061006371,0.04102,0.4478600000000001,-0.43596,15.5,0,8647,8311,10344,23435,23.9462109375,50217,18.376635584931634,999.2455989052756,0,,,,N/A
2024-03-17T16:26:07,-1.01635139935,2.45683060455,9.7040920543,0.01893682238413848,0.016798794050445424,0.08811731061006371,0.04102,0.4478600000000001,-0.43596,15.5,0,8647,8311,10344,23435,24.2864453125,56734,18.405607674221404,999.2598514405042,0,,,,N/A
2024-03-17T16:26:07,-1.0540383553,2.46400907235,9.722038223799998,0.021991148575128558,0.020769418098732523,0.08689558013366769,0.0357,0.44422,-0.44478,15.5,0,8647,8311,10344,23435,24.2864453125,56734,18.405607674221404,999.2598514405042,0,,,,N/A
2024-03-17T16:26:07,-0.9469595439499999,2.4394826406999996,9.629914553699999,0.02306016274197508,0.02168571595602955,0.08933904108645975,0.041580000000000006,0.4478600000000001,-0.43442000000000003,15.5,0,8647,8311,10344,23435,24.2864453125,56734,18.405607674221404,999.2598514405042,0,,,,N/A
2024-03-17T16:26:07,-1.0205388389,2.4586252214999997,9.6382894328,0.02168571595602955,0.02336559536107409,0.08918632477691024,0.0441,0.44170000000000004,-0.43988000000000005,15.5,0,8647,8311,10344,23435,24.2864453125,56734,18.405607674221404,999.2598514405042,0,,,,N/A
2024-03-17T16:26:07,-1.0594222061499998,2.4520449593499998,9.727422074649999,0.017409659288643436,0.020463985479633514,0.08796459430051423,0.0413,0.45766,-0.44226000000000004,15.5,0,8647,8311,10344,23435,24.2864453125,56734,18.405607674221404,999.2598514405042,0,,,,N/A
2024-03-17T16:26:07,-0.9990034354999999,2.44008084635,9.638887638449999,0.021991148575128558,0.019242255003237483,0.08811731061006371,0.0413,0.45766,-0.44226000000000004,15.5,0,8647,8311,10344,23435,24.2864453125,56734,18.405607674221404,999.2598514405042,0,,,,N/A
2024-03-17T16:26:07,-1.0175478106499998,2.43768802375,9.669994332249999,0.024434609527920616,0.02138028333693054,0.08552113334772216,0.038500000000000006,0.44002,-0.4467400000000001,15.5,0,8647,8311,10344,23435,24.2864453125,56734,18.405607674221404,999.2598514405042,0,,,,N/A
2024-03-17T16:26:07,-0.9415756931,2.4472593141499996,9.683154856549999,0.019700403931885997,0.01664607774089592,0.08429940287132612,0.043820000000000005,0.44646,-0.44716,15.5,0,8647,8311,10344,23435,24.5872265625,63193,18.412050725321034,999.2698104241728,0,,,,N/A
2024-03-17T16:26:07,-1.0277173067,2.4658036893,9.578468867799998,0.019089538693687978,0.02229658119422756,0.08521570072862314,0.035980000000000005,0.44702000000000003,-0.44394000000000006,15.5,0,8662,8313,10350,23462,24.5872265625,63193,18.412050725321034,999.2698104241728,0,,,,N/A
2024-03-17T16:26:07,-1.0354939801499998,2.4394826406999996,9.652048162749999,0.02107485071783153,0.02061670178918302,0.08567384965727166,0.035980000000000005,0.44702000000000003,-0.44394000000000006,15.5,0,8662,8313,10350,23462,24.5872265625,63193,18.412050725321034,999.2698104241728,0,,,,N/A
2024-03-17T16:26:07,-1.0253244841,2.4454646972,9.66879792095,0.018784106074588976,0.018784106074588976,0.08781187799096472,0.03934,0.44982000000000005,-0.44310000000000005,15.5,0,8662,8313,10350,23462,24.5872265625,63193,18.412050725321034,999.2698104241728,0,,,,N/A
2024-03-17T16:26:07,-1.0145567824,2.43888443505,9.66879792095,0.018173240836390957,0.02138028333693054,0.08613199858592017,0.0427,0.45066,-0.44772,15.5,0,8662,8313,10350,23462,24.5872265625,63193,18.412050725321034,999.2698104241728,0,,,,N/A
2024-03-17T16:26:07,-0.9882357337999998,2.4311077616,9.6382894328,0.020463985479633514,0.02336559536107409,0.08903360846736075,0.039900000000000005,0.45122,-0.44646,15.5,0,8662,8313,10350,23462,24.5872265625,63193,18.412050725321034,999.2698104241728,0,,,,N/A
2024-03-17T16:26:07,-1.0576275892,2.4281167333499996,9.65922663055,0.018173240836390957,0.018020524526841455,0.08964447370555875,0.039900000000000005,0.45122,-0.44646,15.5,0,8662,8313,10350,23462,24.8493359375,68642,18.40616354395859,999.273340115157,0,,,,N/A
2024-03-17T16:26:07,-0.9672985360499999,2.4454646972,9.61137017855,0.021227567027381034,0.019853120241435502,0.08643743120501918,0.040740000000000005,0.44562000000000007,-0.43918000000000007,15.5,0,8662,8313,10350,23462,24.8493359375,68642,18.40616354395859,999.273340115157,0,,,,N/A
2024-03-17T16:26:07,-1.02233345585,2.4346969955,9.721440018149998,0.018478673455489966,0.020158552860534508,0.08796459430051423,0.03542,0.45094000000000006,-0.43946,15.5,0,8662,8313,10350,23462,24.8493359375,68642,18.40616354395859,999.273340115157,0,,,,N/A
2024-03-17T16:26:07,-1.0085747259,2.4442682858999993,9.7399843933,0.022449297503777065,0.020769418098732523,0.08750644537186571,0.04046,0.4548600000000001,-0.44114000000000003,15.5,0,8662,8313,10350,23462,24.8493359375,68642,18.40616354395859,999.273340115157,0,,,,N/A
2024-03-17T16:26:07,-1.01395857675,2.416750826,9.63649481585,0.022143864884678056,0.02107485071783153,0.08994990632465777,0.04046,0.4548600000000001,-0.44114000000000003,15.5,0,8662,8313,10350,23462,24.8493359375,68642,18.40616354395859,999.273340115157,0,,,,N/A
2024-03-17T16:26:07,-0.9882357337999998,2.4496521367499997,9.681958445249998,0.02229658119422756,0.019394971312786988,0.08414668656177661,0.03794,0.45178,-0.44646,15.5,0,8662,8313,10350,23462,24.8493359375,68642,18.40616354395859,999.273340115157,0,,,,N/A
2024-03-17T16:26:07,-1.02352986715,2.4311077616,9.683154856549999,0.01786780821729195,0.02138028333693054,0.08827002691961322,0.0357,0.44254000000000004,-0.45052000000000003,15.5,0,8662,8313,10350,23462,25.077265625,74065,18.418834301069793,999.2796595410949,0,,,,N/A
2024-03-17T16:26:07,-1.0289137179999999,2.4777678023,9.6861458848,0.018020524526841455,0.021991148575128558,0.08521570072862314,0.041580000000000006,0.44814000000000004,-0.4478600000000001,15.5,0,8662,8313,10350,23462,25.077265625,74065,18.418834301069793,999.2796595410949,0,,,,N/A
2024-03-17T16:26:07,-0.9942177902999998,2.4514467537,9.6993064091,0.022143864884678056,0.01893682238413848,0.08552113334772216,0.038220000000000004,0.4526200000000001,-0.45220000000000005,15.5,0,8662,8313,10350,23462,25.077265625,74065,18.418834301069793,999.2796595410949,0,,,,N/A
2024-03-17T16:26:07,-1.0181460163,2.4789642136,9.676574594399998,0.01756237559819294,0.01863138976503947,0.0872010127527667,0.03374,0.45150000000000007,-0.45514000000000004,15.5,0,8662,8313,10350,23462,25.077265625,74065,18.418834301069793,999.2796595410949,0,,,,N/A
2024-03-17T16:26:07,-1.0336993632,2.4610180441,9.6837530622,0.014202616788103858,0.018173240836390957,0.08918632477691024,0.03962,0.45038000000000006,-0.4438000000000001,15.5,0,8662,8313,10350,23462,25.077265625,74065,18.418834301069793,999.2796595410949,0,,,,N/A
2024-03-17T16:26:07,-1.03788680275,2.4586252214999997,9.7016992317,0.018478673455489966,0.02306016274197508,0.08903360846736075,0.03962,0.45038000000000006,-0.4438000000000001,15.5,0,8662,8313,10350,23462,25.077265625,74065,18.418834301069793,999.2796595410949,0,,,,N/A
2024-03-17T16:26:07,-0.9912267620499999,2.4574288101999997,9.704690259949999,0.019242255003237483,0.01832595714594046,0.08613199858592017,0.03542,0.44814000000000004,-0.45052000000000003,15.5,0,8662,8313,10350,23462,25.077265625,74065,18.418834301069793,999.2796595410949,0,,,,N/A
2024-03-17T16:26:07,-1.0348957745,2.4520449593499998,9.611968384199999,0.015577063574049392,0.02428189321837111,0.08399397025222713,0.038500000000000006,0.45122,-0.45178,15.5,0,8662,8313,10350,23462,25.2739453125,78767,18.409335968086,999.2900821204249,0,,,,N/A
2024-03-17T16:26:07,-1.0851450490999999,2.44606290285,9.713663344699999,0.016951510359994926,0.018784106074588976,0.08643743120501918,0.04018000000000001,0.45402000000000003,-0.4461800000000001,15.5,0,8662,8313,10350,23462,25.2739453125,78767,18.409335968086,999.2900821204249,0,,,,N/A
2024-03-17T16:26:07,-1.00917293155,2.4317059672499997,9.714261550349999,0.015882496193148403,0.016951510359994926,0.09086620418195479,0.03794,0.4537400000000001,-0.4403000000000001,15.5,0,8662,8313,10350,23462,25.2739453125,78767,18.409335968086,999.2900821204249,0,,,,N/A
2024-03-17T16:26:07,-0.9523433947999999,2.4478575198,9.7112705221,0.01756237559819294,0.021991148575128558,0.08735372906231621,0.03794,0.4537400000000001,-0.4403000000000001,15.5,0,8662,8313,10350,23462,25.2739453125,78767,18.409335968086,999.2900821204249,0,,,,N/A
2024-03-17T16:26:07,-0.98404829425,2.44127725765,9.72024360685,0.019853120241435502,0.020922134408282028,0.0872010127527667,0.039900000000000005,0.4459,-0.44366,15.5,0,8662,8313,10350,23462,25.2739453125,78767,18.409335968086,999.2900821204249,0,,,,N/A
2024-03-17T16:26:08,-1.01395857675,2.4418754632999997,9.69751179215,0.02504547476611863,0.01893682238413848,0.08857545953871222,0.03626000000000001,0.44926000000000005,-0.43932000000000004,15.5,0,8662,8313,10350,23462,25.2739453125,78767,18.409335968086,999.2900821204249,0,,,,N/A
2024-03-17T16:26:08,-1.0145567824,2.4592234271499995,9.695118969549998,0.020311269170084013,0.0238237442897226,0.0870482964432172,0.03626000000000001,0.44926000000000005,-0.43932000000000004,15.5,0,8662,8313,10350,23462,25.4446484375,82623,18.388163557426658,999.3043695627476,0,,,,N/A
2024-03-17T16:26:08,-1.0037890807,2.47358036275,9.714261550349999,0.020463985479633514,0.016798794050445424,0.08735372906231621,0.029540000000000004,0.45346000000000003,-0.44716,15.5,0,8672,8315,10343,23471,25.4446484375,82623,18.388163557426658,999.3043695627476,0,,,,N/A
2024-03-17T16:26:08,-1.0743773474,2.4442682858999993,9.6753781831,0.03252857393404432,-0.1385136927614,0.06536258048718765,0.038500000000000006,0.4467400000000001,-0.44492000000000004,15.5,0,8672,8315,10343,23471,25.4446484375,82623,18.388163557426658,999.3043695627476,0,,,,N/A
2024-03-17T16:26:08,-1.02592268975,2.476571391,9.722636429449999,-0.06139195643890055,0.7180720875017671,0.3883575751843883,0.03794,0.4543000000000001,-0.44128,15.5,0,8672,8315,10343,23471,25.4446484375,82623,18.388163557426658,999.3043695627476,0,,,,N/A
2024-03-17T16:26:08,-1.0121639597999998,2.4520449593499998,9.7040920543,0.06612616203493517,-0.11362093430483086,-0.06261368691529658,0.03794,0.4543000000000001,-0.44128,15.5,0,8672,8315,10343,23471,25.4446484375,82623,18.388163557426658,999.3043695627476,0,,,,N/A
2024-03-17T16:26:08,-1.0181460163,2.4394826406999996,9.685547679149998,0.05650503453331642,-0.09697485656393494,-0.06887505560682623,0.037380000000000004,0.4529,-0.4467400000000001,15.5,0,8672,8315,10343,23471,25.4446484375,82623,18.388163557426658,999.3043695627476,0,,,,N/A
2024-03-17T16:26:08,-1.0354939801499998,2.4705893344999996,9.6933243526,0.052534410485029326,-0.07941248096574201,-0.0673478925113312,0.03514,0.4461800000000001,-0.4443600000000001,15.5,0,8672,8315,10343,23471,25.4446484375,82623,18.388163557426658,999.3043695627476,0,,,,N/A
2024-03-17T16:26:08,-0.9469595439499999,2.45443778195,9.65683380795,0.04718933965079669,-0.0636827010821431,-0.061544672748450054,0.03514,0.4461800000000001,-0.4443600000000001,15.5,0,8672,8315,10343,23471,25.591328125,87236,18.355418507947373,999.309730157524,0,,,,N/A
2024-03-17T16:26:08,-1.0271191010499998,2.4185454429499997,9.859625523299998,0.03481931857728687,-0.008399397025222712,-0.057879481319261954,0.03794,0.44394000000000006,-0.45066,15.5,0,8672,8315,10343,23471,25.591328125,87236,18.355418507947373,999.309730157524,0,,,,N/A
2024-03-17T16:26:08,-1.0007980524499998,2.4598216327999998,9.72383284075,0.04245513405476207,-0.0022907446432425577,-0.051770828937281806,0.042980000000000004,0.46298,-0.45094000000000006,15.5,0,8672,8315,10343,23471,25.591328125,87236,18.355418507947373,999.309730157524,0,,,,N/A
2024-03-17T16:26:08,-1.0241280728,2.4352952011499998,9.735796953749999,0.030695978219450276,0.0036651914291880926,-0.057879481319261954,0.038500000000000006,0.44562000000000007,-0.44212000000000007,15.5,0,8672,8315,10343,23471,25.591328125,87236,18.355418507947373,999.309730157524,0,,,,N/A
2024-03-17T16:26:08,-1.0187442219499998,2.4305095559499996,9.69751179215,0.038331793696925465,0.004276056667386108,-0.05482515512827188,0.039060000000000004,0.44954,-0.4526200000000001,15.5,0,8672,8315,10343,23471,25.591328125,87236,18.355418507947373,999.309730157524,0,,,,N/A
2024-03-17T16:26:08,-0.9655039191,2.42572391075,9.62692352545,0.03665191429188092,0.010995574287564279,-0.05467243881872238,0.039060000000000004,0.44954,-0.4526200000000001,15.5,0,8672,8315,10343,23471,25.591328125,87236,18.355418507947373,999.309730157524,0,,,,N/A
2024-03-17T16:26:08,-1.01515498805,2.39820645085,9.753144917599998,0.03436116964863837,0.013744467859455347,-0.05238169417547982,0.042980000000000004,0.44982000000000005,-0.45542,15.5,0,8672,8315,10343,23471,25.719453125,90415,18.347210978811926,999.3061929884569,0,,,,N/A
2024-03-17T16:26:08,-0.9888339394499999,2.4604198384499996,9.6849494735,0.037110063220529434,0.018020524526841455,-0.04718933965079669,0.04102,0.45570000000000005,-0.4529,15.5,0,8672,8315,10343,23471,25.719453125,90415,18.347210978811926,999.3061929884569,0,,,,N/A
2024-03-17T16:26:08,-1.0007980524499998,2.5932214927499997,9.677771005699999,0.03634648167278191,0.013897184169004852,-0.048258353817643214,0.03654,0.44814000000000004,-0.45472,15.5,0,8672,8315,10343,23471,25.719453125,90415,18.347210978811926,999.3061929884569,0,,,,N/A
2024-03-17T16:26:08,-1.0354939801499998,2.4616162497499996,9.7363951594,0.0355829001250344,0.014355333097653362,-0.04642575810304917,0.03654,0.44814000000000004,-0.45472,15.5,0,8672,8315,10343,23471,25.719453125,90415,18.347210978811926,999.3061929884569,0,,,,N/A
2024-03-17T16:26:08,-1.02233345585,2.4945175605,9.7340023368,0.039095375244672985,0.013591751549905842,-0.052228977865930316,0.03962,0.45234,-0.45052000000000003,15.5,0,8672,8315,10343,23471,25.719453125,90415,18.347210978811926,999.3061929884569,0,,,,N/A
2024-03-17T16:26:08,-1.0121639597999998,2.4526431649999996,9.75135030065,0.03802636107782646,0.012980886311707827,-0.0476474885794452,0.04522,0.4520600000000001,-0.44926000000000005,15.5,0,8672,8315,10343,23471,25.719453125,90415,18.347210978811926,999.3061929884569,0,,,,N/A
2024-03-17T16:26:08,-0.9774680320999999,2.4358934068,9.73101130855,0.03726277953007894,0.013897184169004852,-0.050854531079984784,0.04522,0.4520600000000001,-0.44926000000000005,15.5,0,8672,8315,10343,23471,25.82921875,94253,18.317515349854446,999.3012294345191,0,,,,N/A
2024-03-17T16:26:08,-1.02352986715,2.4478575198,9.677771005699999,0.04276056667386108,0.007788531787024696,-0.049938233222687756,0.044660000000000005,0.45598,-0.44058,15.5,0,8672,8315,10343,23471,25.82921875,94253,18.317515349854446,999.3012294345191,0,,,,N/A
2024-03-17T16:26:08,-1.03908321405,2.4520449593499998,9.72383284075,0.03772092845872745,0.010384709049366262,-0.04642575810304917,0.04018000000000001,0.4520600000000001,-0.44520000000000004,15.5,0,8672,8315,10343,23471,25.82921875,94253,18.317515349854446,999.3012294345191,0,,,,N/A
2024-03-17T16:26:08,-1.0055836976499999,2.42572391075,9.716056167299998,0.04077525464971753,0.007635815477475193,-0.04505131131710364,0.041580000000000006,0.44926000000000005,-0.44408000000000003,15.5,0,8672,8315,10343,23471,25.82921875,94253,18.317515349854446,999.3012294345191,0,,,,N/A
2024-03-17T16:26:08,-1.0013962581,2.4454646972,9.705886671250001,0.038484510006474966,0.007177666548826681,-0.04459316238845512,0.041580000000000006,0.44926000000000005,-0.44408000000000003,15.5,0,8672,8315,10343,23471,25.82921875,94253,18.317515349854446,999.3012294345191,0,,,,N/A
2024-03-17T16:26:08,-1.0181460163,2.47358036275,9.696315380849999,0.03772092845872745,0.007941248096574201,-0.04550946024575215,0.03962,0.44646,-0.43876000000000004,15.5,0,8672,8315,10343,23471,25.82921875,94253,18.317515349854446,999.3012294345191,0,,,,N/A
2024-03-17T16:26:08,-1.0342975688499998,2.464607278,9.775278526649998,0.039706240482871004,0.009621127501618741,-0.041844268816564056,0.039900000000000005,0.4478600000000001,-0.43554000000000004,15.5,0,8672,8315,10343,23471,25.926484375,95935,18.27177442870341,999.299048925867,0,,,,N/A
2024-03-17T16:26:08,-1.01395857675,2.4777678023,9.7842516114,0.03726277953007894,0.004886921905584123,-0.04596760917440065,0.0371,0.45066,-0.44996,15.5,0,8671,8303,10334,23458,25.926484375,95935,18.27177442870341,999.299048925867,0,,,,N/A
2024-03-17T16:26:08,-1.0354939801499998,2.44606290285,9.773483909699998,0.04382958084070761,0.005803219762881146,-0.04642575810304917,0.0371,0.45066,-0.44996,15.5,0,8671,8303,10334,23458,25.926484375,95935,18.27177442870341,999.299048925867,0,,,,N/A
2024-03-17T16:26:08,-1.0187442219499998,2.4478575198,9.723234635099999,0.04382958084070761,0.0025961772623415654,-0.04566217655530165,0.039060000000000004,0.44702000000000003,-0.44856000000000007,15.5,0,8671,8303,10334,23458,25.926484375,95935,18.27177442870341,999.299048925867,0,,,,N/A
2024-03-17T16:26:08,-0.9487541609,2.5950161097,9.727422074649999,0.037110063220529434,0.0036651914291880926,-0.0433714319120591,0.04522,0.44282000000000005,-0.44338000000000005,15.5,0,8671,8303,10334,23458,25.926484375,95935,18.27177442870341,999.299048925867,0,,,,N/A
2024-03-17T16:26:08,-1.0815558152,2.4520449593499998,9.714261550349999,0.039706240482871004,0.0012217304763960308,-0.0435241482216086,0.04522,0.44282000000000005,-0.44338000000000005,15.5,0,8671,8303,10334,23458,25.926484375,95935,18.27177442870341,999.299048925867,0,,,,N/A
2024-03-17T16:26:08,-1.02592268975,2.4562323989,9.769894675799998,0.04077525464971753,0.002901609881440573,-0.0435241482216086,0.0427,0.44954,-0.44142000000000003,15.5,0,8671,8303,10334,23458,26.0130078125,99440,18.24589509414411,999.2989629321664,0,,,,N/A
2024-03-17T16:26:09,-1.02233345585,2.43409878985,9.589236569499999,0.036499197982331415,0.0003054326190990077,-0.0435241482216086,0.03878,0.44926000000000005,-0.44422,15.5,0,8671,8303,10334,23458,26.0130078125,99440,18.24589509414411,999.2989629321664,0,,,,N/A
2024-03-17T16:26:09,-1.0199406332499998,2.42213467685,9.7340023368,0.038484510006474966,0.002138028333693054,-0.04077525464971753,0.035980000000000005,0.44450000000000006,-0.43624000000000007,15.5,0,8671,8303,10334,23458,26.0130078125,99440,18.24589509414411,999.2989629321664,0,,,,N/A
2024-03-17T16:26:09,-1.02233345585,2.44845572545,9.7806623775,0.04230241774521256,0.0024434609527920616,-0.04321871560250959,0.035980000000000005,0.44450000000000006,-0.43624000000000007,15.5,0,8671,8303,10334,23458,26.0130078125,99440,18.24589509414411,999.2989629321664,0,,,,N/A
2024-03-17T16:26:09,-1.0354939801499998,2.4394826406999996,9.73460054245,0.039553524173321496,0.0024434609527920616,-0.038942658935123484,0.0357,0.44702000000000003,-0.44282000000000005,15.5,0,8671,8303,10334,23458,26.0130078125,99440,18.24589509414411,999.2989629321664,0,,,,N/A
2024-03-17T16:26:09,-1.0205388389,2.4161526203499997,9.714261550349999,0.04092797095926703,-0.0013744467859455349,-0.04260785036431157,0.03374,0.4501,-0.45038000000000006,15.5,0,8671,8303,10334,23458,26.0130078125,99440,18.24589509414411,999.2989629321664,0,,,,N/A
2024-03-17T16:26:09,-0.9882357337999998,2.4263221163999997,9.714261550349999,0.0433714319120591,-0.001069014166846527,-0.04321871560250959,0.03374,0.4501,-0.45038000000000006,15.5,0,8671,8303,10334,23458,26.0130078125,99440,18.24589509414411,999.2989629321664,0,,,,N/A
2024-03-17T16:26:09,-1.02352986715,2.4562323989,9.72981489725,0.04291328298341058,0.0003054326190990077,-0.04077525464971753,0.03514,0.44982000000000005,-0.4397400000000001,15.5,0,8671,8303,10334,23458,26.08859375,101902,18.219406039582147,999.3006671270425,0,,,,N/A
2024-03-17T16:26:09,-0.97567341515,2.4658036893,9.73340413115,0.03375030441044035,-0.0003054326190990077,-0.04321871560250959,0.0371,0.44226000000000004,-0.44310000000000005,15.5,0,8671,8303,10334,23458,26.08859375,101902,18.219406039582147,999.3006671270425,0,,,,N/A
2024-03-17T16:26:09,-1.0097711372,2.4406790519999997,9.7196454012,0.0435241482216086,0.003970624048287101,-0.04596760917440065,0.0371,0.44226000000000004,-0.44310000000000005,15.5,0,8671,8303,10334,23458,26.08859375,101902,18.219406039582147,999.3006671270425,0,,,,N/A
2024-03-17T16:26:09,-1.0360921857999998,2.4185454429499997,9.73818977635,0.039553524173321496,0.00045814892864851157,-0.0433714319120591,0.03318,0.45542,-0.45416,15.5,0,8671,8303,10334,23458,26.08859375,101902,18.219406039582147,999.3006671270425,0,,,,N/A
2024-03-17T16:26:09,-1.0133603711,2.45563419325,9.767501853199999,0.03527746750593539,-0.0024434609527920616,-0.039400807863771994,0.03934,0.45038000000000006,-0.44926000000000005,15.5,0,8671,8303,10334,23458,26.08859375,101902,18.219406039582147,999.3006671270425,0,,,,N/A
2024-03-17T16:26:09,-1.0271191010499998,2.4406790519999997,9.846464998999998,0.038484510006474966,0.0012217304763960308,-0.04016438941151951,0.03934,0.45038000000000006,-0.44926000000000005,15.5,0,8671,8303,10334,23458,26.08859375,101902,18.219406039582147,999.3006671270425,0,,,,N/A
2024-03-17T16:26:09,-0.9475577495999999,2.4329023785499997,9.7639126193,0.041080687268816536,-0.0019853120241435504,-0.04780020488899471,0.034300000000000004,0.4461800000000001,-0.43050000000000005,15.5,0,8671,8303,10334,23458,26.1563671875,104425,18.172026985028655,999.3074711255416,0,,,,N/A
2024-03-17T16:26:09,-1.04745809315,2.4382862293999996,9.7340023368,0.04092797095926703,0.0018325957145940463,-0.039553524173321496,0.0371,0.4520600000000001,-0.43260000000000004,15.5,0,8671,8303,10334,23458,26.1563671875,104425,18.172026985028655,999.3074711255416,0,,,,N/A
2024-03-17T16:26:09,-0.9954142015999999,2.4179472372999995,9.717850784249999,0.039400807863771994,-0.0016798794050445422,-0.04245513405476207,0.0371,0.4520600000000001,-0.43260000000000004,15.5,0,8671,8303,10334,23458,26.1563671875,104425,18.172026985028655,999.3074711255416,0,,,,N/A
2024-03-17T16:26:09,-0.9966106129,2.4352952011499998,9.750752095,0.040317105721069016,-0.0007635815477475193,-0.04581489286485116,0.042140000000000004,0.44702000000000003,-0.44058,15.5,0,8671,8303,10334,23458,26.1563671875,104425,18.172026985028655,999.3074711255416,0,,,,N/A
2024-03-17T16:26:09,-1.0247262784499998,2.45443778195,9.7363951594,0.04642575810304917,0.00015271630954950385,-0.04489859500755413,0.04326000000000001,0.44842000000000004,-0.43302,15.5,0,8671,8303,10334,23458,26.1563671875,104425,18.172026985028655,999.3074711255416,0,,,,N/A
2024-03-17T16:26:09,-1.0037890807,2.4478575198,9.722636429449999,0.039858956792420505,0.0019853120241435504,-0.04260785036431157,0.04326000000000001,0.44842000000000004,-0.43302,15.5,0,8671,8303,10334,23458,26.1563671875,104425,18.172026985028655,999.3074711255416,0,,,,N/A
2024-03-17T16:26:09,-1.0295119236499999,2.4382862293999996,9.773483909699998,0.04153883619746505,0.0006108652381980154,-0.04321871560250959,0.039060000000000004,0.45626000000000005,-0.43624000000000007,15.5,0,8671,8303,10334,23458,26.1563671875,104425,18.172026985028655,999.3074711255416,0,,,,N/A
2024-03-17T16:26:09,-1.0085747259,2.42572391075,9.70827949385,0.0018325957145940463,0.0012217304763960308,-0.04642575810304917,0.03514,0.45346000000000003,-0.44226000000000004,15.5,0,8674,8295,10320,23444,26.217109375,107211,18.13960150428932,999.3099566523928,0,,,,N/A
2024-03-17T16:26:09,-0.9846464998999999,2.4586252214999997,9.652048162749999,0.040317105721069016,0.0012217304763960308,-0.0433714319120591,0.0427,0.45514000000000004,-0.44282000000000005,15.5,0,8674,8295,10320,23444,26.217109375,107211,18.13960150428932,999.3099566523928,0,,,,N/A
2024-03-17T16:26:09,-0.9948159959499998,2.4783660079499996,9.60060247685,0.04046982203061852,0.0003054326190990077,-0.04413501345980661,0.0371,0.4537400000000001,-0.43442000000000003,15.5,0,8674,8295,10320,23444,26.217109375,107211,18.13960150428932,999.3099566523928,0,,,,N/A
2024-03-17T16:26:09,-1.0576275892,2.476571391,9.722038223799998,0.038484510006474966,0.0015271630954950385,-0.04123340357836604,0.0371,0.4537400000000001,-0.43442000000000003,15.5,0,8674,8295,10320,23444,26.217109375,107211,18.13960150428932,999.3099566523928,0,,,,N/A
2024-03-17T16:26:09,-1.0265208954,2.4801606249,9.71186872775,0.03741549583962844,-0.0016798794050445422,-0.04428772976935611,0.03542,0.44982000000000005,-0.44310000000000005,15.5,0,8674,8295,10320,23444,26.217109375,107211,18.13960150428932,999.3099566523928,0,,,,N/A
2024-03-17T16:26:09,-0.9744770038499999,2.4753749797,9.689136913049998,0.03924809155422249,0.00045814892864851157,-0.041844268816564056,0.0413,0.45234,-0.4502400000000001,15.5,0,8674,8295,10320,23444,26.217109375,107211,18.13960150428932,999.3099566523928,0,,,,N/A
2024-03-17T16:26:09,-1.0295119236499999,2.4807588305499997,9.725627457699998,0.04230241774521256,0.0003054326190990077,-0.04474587869800463,0.034300000000000004,0.45066,-0.43792000000000003,15.5,0,8674,8295,10320,23444,26.27296875,109792,18.09157245877671,999.3223182997662,0,,,,N/A
2024-03-17T16:26:09,-0.9750752094999998,2.428714939,9.77049288145,0.04046982203061852,0.0070249502392771765,-0.04428772976935611,0.03542,0.45178,-0.42686,15.5,0,8674,8295,10320,23444,26.27296875,109792,18.09157245877671,999.3223182997662,0,,,,N/A
2024-03-17T16:26:09,-1.0295119236499999,2.45802701585,9.744171832849998,0.03787364476827696,-0.0018325957145940463,-0.04535674393620265,0.03542,0.45178,-0.42686,15.5,0,8674,8295,10320,23444,26.27296875,109792,18.09157245877671,999.3223182997662,0,,,,N/A
2024-03-17T16:26:09,-1.0097711372,2.4538395763,9.721440018149998,0.039706240482871004,0.001069014166846527,-0.04382958084070761,0.03514,0.4529,-0.44688000000000005,15.5,0,8674,8295,10320,23444,26.27296875,109792,18.09157245877671,999.3223182997662,0,,,,N/A
2024-03-17T16:26:09,-1.04985091575,2.4323041728999995,9.710074110799999,0.04230241774521256,-0.001069014166846527,-0.04596760917440065,0.042140000000000004,0.44870000000000004,-0.44002,15.5,0,8674,8295,10320,23444,26.27296875,109792,18.09157245877671,999.3223182997662,0,,,,N/A
2024-03-17T16:26:09,-0.99601240725,2.43768802375,9.775876732299999,0.040622538340168025,0.0018325957145940463,-0.04444044607890562,0.042140000000000004,0.44870000000000004,-0.44002,15.5,0,8674,8295,10320,23444,26.27296875,109792,18.09157245877671,999.3223182997662,0,,,,N/A
2024-03-17T16:26:09,-1.0133603711,2.4586252214999997,9.777073143599997,0.038331793696925465,0.00045814892864851157,-0.043982297150257116,0.032060000000000005,0.4501,-0.44114000000000003,15.5,0,8674,8295,10320,23444,26.323359375,112201,18.04325002534727,999.323995543856,0,,,,N/A
2024-03-17T16:26:09,-1.03070833495,2.44606290285,9.76690364755,0.040317105721069016,0.0006108652381980154,-0.04016438941151951,0.034300000000000004,0.44702000000000003,-0.43946,15.5,0,8674,8295,10320,23444,26.323359375,112201,18.04325002534727,999.323995543856,0,,,,N/A
2024-03-17T16:26:09,-1.00797652025,2.4346969955,9.67477997745,0.04214970143566306,-0.0018325957145940463,-0.04276056667386108,0.034300000000000004,0.44702000000000003,-0.43946,15.5,0,8674,8295,10320,23444,26.323359375,112201,18.04325002534727,999.323995543856,0,,,,N/A
2024-03-17T16:26:09,-1.0205388389,2.50468705655,9.6861458848,0.041691552507014555,0.0003054326190990077,-0.04428772976935611,0.04046,0.4596200000000001,-0.4473000000000001,15.5,0,8674,8295,10320,23444,26.323359375,112201,18.04325002534727,999.323995543856,0,,,,N/A
2024-03-17T16:26:09,-1.0241280728,2.44008084635,9.742975421549998,0.03756821214917795,0.003054326190990077,-0.04016438941151951,0.041580000000000006,0.45682000000000006,-0.44226000000000004,15.5,0,8674,8295,10320,23444,26.323359375,112201,18.04325002534727,999.323995543856,0,,,,N/A
2024-03-17T16:26:09,-1.0205388389,2.4604198384499996,9.732805925500001,0.039553524173321496,0.0007635815477475193,-0.04550946024575215,0.03682,0.45738000000000006,-0.44338000000000005,15.5,0,8674,8295,10320,23444,26.323359375,112201,18.04325002534727,999.323995543856,0,,,,N/A
2024-03-17T16:26:10,-1.040877831,2.4329023785499997,9.7196454012,0.04046982203061852,0.038484510006474966,-0.04474587869800463,0.03682,0.45738000000000006,-0.44338000000000005,15.5,0,8674,8295,10320,23444,26.3684765625,114020,18.00997207812269,999.3242230596824,0,,,,N/A
2024-03-17T16:26:10,-1.00319087505,2.48793729835,9.759126974099999,0.040317105721069016,0.0006108652381980154,-0.04306599929296009,0.03682,0.4520600000000001,-0.4566800000000001,15.5,0,8674,8295,10320,23444,26.3684765625,114020,18.00997207812269,999.3242230596824,0,,,,N/A
2024-03-17T16:26:10,-1.0085747259,2.4514467537,9.75135030065,0.041844268816564056,0.003207042500539581,-0.04153883619746505,0.044660000000000005,0.4543000000000001,-0.43946,15.5,0,8674,8295,10320,23444,26.3684765625,114020,18.00997207812269,999.3242230596824,0,,,,N/A
2024-03-17T16:26:10,-1.0540383553,2.4029920960499997,9.786644434,0.04657847441259867,0.0035124751196385882,-0.040622538340168025,0.044660000000000005,0.4543000000000001,-0.43946,15.5,0,8674,8295,10320,23444,26.3684765625,114020,18.00997207812269,999.3242230596824,0,,,,N/A
2024-03-17T16:26:10,-0.9762716207999999,2.4430718745999997,9.789037256599999,0.0474947722698957,0.0018325957145940463,-0.04306599929296009,0.038500000000000006,0.46130000000000004,-0.45738000000000006,15.5,0,8674,8295,10320,23444,26.3684765625,114020,18.00997207812269,999.3242230596824,0,,,,N/A
2024-03-17T16:26:10,-1.0205388389,2.4406790519999997,9.738787982,0.038942658935123484,0.0015271630954950385,-0.04245513405476207,0.032900000000000006,0.44870000000000004,-0.45150000000000007,15.5,0,8674,8295,10320,23444,26.3684765625,114020,18.00997207812269,999.3242230596824,0,,,,N/A
2024-03-17T16:26:10,-1.0115657541499998,2.4299113503,9.740582598949999,0.04016438941151951,-0.0018325957145940463,-0.04276056667386108,0.03514,0.45458000000000004,-0.43876000000000004,15.5,0,8669,8283,10300,23398,26.3684765625,114020,18.00997207812269,999.3242230596824,0,,,,N/A
2024-03-17T16:26:10,-0.9996016411499998,2.4514467537,9.71665437295,0.04489859500755413,-0.0033597588100890844,-0.04917465167494024,0.03514,0.45458000000000004,-0.43876000000000004,15.5,0,8669,8283,10300,23398,26.4102734375,116540,17.966299445796228,999.3243948969607,0,,,,N/A
2024-03-17T16:26:10,-1.0791629926,2.50349064525,9.789037256599999,0.040317105721069016,0.0,-0.04734205596034619,0.0483,0.4529,-0.44520000000000004,15.5,0,8669,8283,10300,23398,26.4102734375,116540,17.966299445796228,999.3243948969607,0,,,,N/A
2024-03-17T16:26:10,-1.0271191010499998,2.4155544147,9.664012275749998,0.03756821214917795,0.038484510006474966,-0.04413501345980661,0.037660000000000006,0.46130000000000004,-0.44170000000000004,15.5,0,8669,8283,10300,23398,26.4102734375,116540,17.966299445796228,999.3243948969607,0,,,,N/A
2024-03-17T16:26:10,-1.0211370445499999,2.4239292938,9.7423772159,0.04123340357836604,0.0012217304763960308,-0.04459316238845512,0.03458000000000001,0.44702000000000003,-0.44156000000000006,15.5,0,8669,8283,10300,23398,26.4102734375,116540,17.966299445796228,999.3243948969607,0,,,,N/A
2024-03-17T16:26:10,-1.03310115755,2.41017056385,9.89013401145,0.04123340357836604,0.0009162978572970231,-0.04550946024575215,0.03318,0.4537400000000001,-0.44156000000000006,15.5,0,8669,8283,10300,23398,26.4102734375,116540,17.966299445796228,999.3243948969607,0,,,,N/A
2024-03-17T16:26:10,-0.9978070242,2.4382862293999996,9.73101130855,0.04077525464971753,0.0007635815477475193,-0.04489859500755413,0.0315,0.45234,-0.4494,15.5,0,8669,8283,10300,23398,26.4102734375,116540,17.966299445796228,999.3243948969607,0,,,,N/A
2024-03-17T16:26:10,-1.0277173067,2.4496521367499997,9.71306513905,0.0433714319120591,0.0003054326190990077,-0.04382958084070761,0.0315,0.45234,-0.4494,15.5,0,8669,8283,10300,23398,26.4481640625,118587,17.927526816444576,999.3271274457677,0,,,,N/A
2024-03-17T16:26:10,-1.0145567824,2.4616162497499996,9.722038223799998,0.04245513405476207,0.00015271630954950385,-0.039858956792420505,0.03682,0.45038000000000006,-0.45332000000000006,15.5,0,8669,8283,10300,23398,26.4481640625,118587,17.927526816444576,999.3271274457677,0,,,,N/A
2024-03-17T16:26:10,-1.0456634761999999,2.4622144553999994,9.752546711949998,0.03802636107782646,0.003054326190990077,-0.04245513405476207,0.044660000000000005,0.45178,-0.4426800000000001,16.5,0,8669,8283,10300,23398,26.4481640625,118587,17.927526816444576,999.3271274457677,0,,,,N/A
2024-03-17T16:26:10,-0.98404829425,2.476571391,9.705886671250001,0.04153883619746505,-0.0006108652381980154,-0.041996985126113565,0.044660000000000005,0.45178,-0.4426800000000001,15.5,0,8669,8283,10300,23398,26.4481640625,118587,17.927526816444576,999.3271274457677,0,,,,N/A
2024-03-17T16:26:10,-1.00797652025,2.4454646972,9.72622566335,0.04276056667386108,0.0007635815477475193,-0.04245513405476207,0.03794,0.45738000000000006,-0.44562000000000007,15.5,0,8669,8283,10300,23398,26.4481640625,118587,17.927526816444576,999.3271274457677,0,,,,N/A
2024-03-17T16:26:10,-1.0295119236499999,2.45683060455,9.775876732299999,0.04230241774521256,0.002901609881440573,-0.03695734691097993,0.03374,0.45990000000000003,-0.45682000000000006,15.5,0,8669,8283,10300,23398,26.4481640625,118587,17.927526816444576,999.3271274457677,0,,,,N/A
2024-03-17T16:26:10,-1.1790633361499998,2.4592234271499995,9.79083187355,0.036804630601430424,0.0007635815477475193,-0.038789942625573975,0.03374,0.45990000000000003,-0.45682000000000006,15.5,0,8669,8283,10300,23398,26.4852734375,120622,17.878508483902884,999.3250171726817,0,,,,N/A
2024-03-17T16:26:10,-1.040877831,2.4430718745999997,9.723234635099999,0.039400807863771994,0.0013744467859455349,-0.04535674393620265,0.037660000000000006,0.45570000000000005,-0.44478,15.5,0,8669,8283,10300,23398,26.4852734375,120622,17.878508483902884,999.3250171726817,0,,,,N/A
2024-03-17T16:26:10,-1.0187442219499998,2.4496521367499997,9.75493953455,0.038331793696925465,-0.0015271630954950385,-0.043982297150257116,0.040740000000000005,0.45038000000000006,-0.43834,15.5,0,8669,8283,10300,23398,26.4852734375,120622,17.878508483902884,999.3250171726817,0,,,,N/A
2024-03-17T16:26:10,-1.0271191010499998,2.44486649155,9.749555683699999,0.03665191429188092,0.0006108652381980154,-0.04291328298341058,0.040740000000000005,0.45038000000000006,-0.43834,15.5,0,8669,8283,10300,23398,26.4852734375,120622,17.878508483902884,999.3250171726817,0,,,,N/A
2024-03-17T16:26:10,-1.0145567824,2.4658036893,9.722038223799998,0.04046982203061852,0.0025961772623415654,-0.041386119887915546,0.03682,0.4537400000000001,-0.45808000000000004,15.5,0,8669,8283,10300,23398,26.4852734375,120622,17.878508483902884,999.3250171726817,0,,,,N/A
2024-03-17T16:26:10,-1.0271191010499998,2.4574288101999997,9.741180804599999,0.03772092845872745,0.0016798794050445422,-0.038789942625573975,0.03794,0.44982000000000005,-0.43750000000000006,15.5,0,8669,8283,10300,23398,26.4852734375,120622,17.878508483902884,999.3250171726817,0,,,,N/A
2024-03-17T16:26:10,-1.0115657541499998,2.4873390927,9.8069834261,0.039553524173321496,-0.0022907446432425577,-0.04444044607890562,0.032900000000000006,0.4529,-0.45066,15.5,0,8669,8283,10300,23398,26.519453125,121841,17.829342490432,999.3288411712069,0,,,,N/A
2024-03-17T16:26:10,-0.9690931529999999,2.42931314465,9.681360239599998,0.04046982203061852,-0.0003054326190990077,-0.048411070127192715,0.04102,0.4501,-0.45696000000000003,15.5,0,8669,8283,10300,23398,26.519453125,121841,17.829342490432,999.3288411712069,0,,,,N/A
2024-03-17T16:26:10,-1.0037890807,2.43409878985,9.7375915707,0.038942658935123484,-0.0006108652381980154,-0.04489859500755413,0.04102,0.4501,-0.45696000000000003,15.5,0,8669,8283,10300,23398,26.519453125,121841,17.829342490432,999.3288411712069,0,,,,N/A
2024-03-17T16:26:10,-1.0103693428499998,2.4281167333499996,9.75733235715,0.04046982203061852,-0.00015271630954950385,-0.04810563750809371,0.0427,0.45066,-0.44702000000000003,16.5,0,8669,8283,10300,23398,26.519453125,121841,17.829342490432,999.3288411712069,0,,,,N/A
2024-03-17T16:26:10,-1.06181502875,2.4394826406999996,9.7806623775,0.039858956792420505,0.0,-0.04321871560250959,0.03318,0.44982000000000005,-0.44492000000000004,15.5,0,8669,8283,10300,23398,26.519453125,121841,17.829342490432,999.3288411712069,0,,,,N/A
2024-03-17T16:26:10,-1.0133603711,2.4370898180999996,9.732805925500001,0.04092797095926703,0.0015271630954950385,-0.04382958084070761,0.03318,0.44982000000000005,-0.44492000000000004,15.5,0,8647,8262,10277,23344,26.519453125,121841,17.829342490432,999.3288411712069,0,,,,N/A
2024-03-17T16:26:10,-1.04626168185,2.43649161245,9.7172525786,0.039706240482871004,0.0009162978572970231,-0.04046982203061852,0.04046,0.44646,-0.44016000000000005,15.5,0,8647,8262,10277,23344,26.551484375,123808,17.785173561390604,999.3256015773557,0,,,,N/A
2024-03-17T16:26:11,-0.9798608546999998,2.4538395763,9.71306513905,0.039706240482871004,0.0015271630954950385,-0.04245513405476207,0.043820000000000005,0.44982000000000005,-0.4461800000000001,15.5,0,8647,8262,10277,23344,26.551484375,123808,17.785173561390604,999.3256015773557,0,,,,N/A
2024-03-17T16:26:11,-1.0253244841,2.4741785683999997,9.775278526649998,0.04230241774521256,-0.0007635815477475193,-0.04245513405476207,0.03234,0.45122,-0.44170000000000004,15.5,0,8647,8262,10277,23344,26.551484375,123808,17.785173561390604,999.3256015773557,0,,,,N/A
2024-03-17T16:26:11,-1.0420742422999998,2.4454646972,9.726823868999999,0.03665191429188092,-0.001069014166846527,-0.04428772976935611,0.03234,0.45122,-0.44170000000000004,15.5,0,8647,8262,10277,23344,26.551484375,123808,17.785173561390604,999.3256015773557,0,,,,N/A
2024-03-17T16:26:11,-1.0444670649,2.4520449593499998,9.75613594585,0.039400807863771994,0.003207042500539581,-0.039400807863771994,0.03458000000000001,0.4537400000000001,-0.43204000000000004,15.5,0,8647,8262,10277,23344,26.551484375,123808,17.785173561390604,999.3256015773557,0,,,,N/A
2024-03-17T16:26:11,-1.0522437383499998,2.4442682858999993,9.7423772159,0.0433714319120591,0.0003054326190990077,-0.04016438941151951,0.037660000000000006,0.45122,-0.43568000000000007,15.5,0,8647,8262,10277,23344,26.551484375,123808,17.785173561390604,999.3256015773557,0,,,,N/A
2024-03-17T16:26:11,-1.064806057,2.4382862293999996,9.7423772159,0.041996985126113565,-0.038637226316024474,-0.04276056667386108,0.037660000000000006,0.45122,-0.43568000000000007,15.5,0,8647,8262,10277,23344,26.551484375,123808,17.785173561390604,999.3256015773557,0,,,,N/A
2024-03-17T16:26:11,-0.98045906035,2.4275185276999998,9.7172525786,0.03726277953007894,-0.0022907446432425577,-0.04459316238845512,0.03682,0.4585000000000001,-0.44450000000000006,15.5,0,8647,8262,10277,23344,26.58078125,125558,17.740866160320458,999.3268326907428,0,,,,N/A
2024-03-17T16:26:11,-1.0253244841,2.4358934068,9.702297437349998,0.041691552507014555,0.001069014166846527,-0.04016438941151951,0.03514,0.45150000000000007,-0.4443600000000001,15.5,0,8647,8262,10277,23344,26.58078125,125558,17.740866160320458,999.3268326907428,0,,,,N/A
2024-03-17T16:26:11,-1.0193424276,2.46520548365,9.762716207999999,0.041080687268816536,-0.00015271630954950385,-0.04428772976935611,0.027020000000000002,0.4537400000000001,-0.44744000000000006,15.5,0,8647,8262,10277,23344,26.58078125,125558,17.740866160320458,999.3268326907428,0,,,,N/A
2024-03-17T16:26:11,-1.0372885971,2.4538395763,9.744770038499999,0.041996985126113565,0.0009162978572970231,-0.04001167310197001,0.04102,0.45570000000000005,-0.43414,15.5,0,8647,8262,10277,23344,26.58078125,125558,17.740866160320458,999.3268326907428,0,,,,N/A
2024-03-17T16:26:11,-1.0277173067,2.4317059672499997,9.746564655449998,0.038179077387375956,-0.00045814892864851157,-0.04321871560250959,0.0315,0.45822,-0.44058,15.5,0,8647,8262,10277,23344,26.58078125,125558,17.740866160320458,999.3268326907428,0,,,,N/A
2024-03-17T16:26:11,-1.02352986715,2.4586252214999997,9.832706269049998,0.041996985126113565,-0.038484510006474966,-0.043676864531158106,0.0315,0.45822,-0.44058,15.5,0,8647,8262,10277,23344,26.58078125,125558,17.740866160320458,999.3268326907428,0,,,,N/A
2024-03-17T16:26:11,-1.03070833495,2.4442682858999993,9.78724263965,0.038942658935123484,-0.0013744467859455349,-0.047952921198544204,0.03654,0.46130000000000004,-0.4403000000000001,15.5,0,8647,8262,10277,23344,26.610078125,127551,17.69656970657015,999.3334117059396,0,,,,N/A
2024-03-17T16:26:11,-1.0767701699999999,2.45683060455,9.598807859899999,0.04123340357836604,0.003054326190990077,-0.041386119887915546,0.03262,0.4548600000000001,-0.43904000000000004,15.5,0,8647,8262,10277,23344,26.610078125,127551,17.69656970657015,999.3334117059396,0,,,,N/A
2024-03-17T16:26:11,-1.0037890807,2.4598216327999998,9.6083791503,0.040317105721069016,-0.002138028333693054,-0.04703662334124718,0.03962,0.45514000000000004,-0.44716,15.5,0,8647,8262,10277,23344,26.610078125,127551,17.69656970657015,999.3334117059396,0,,,,N/A
2024-03-17T16:26:11,-1.0055836976499999,2.47597318535,9.775278526649998,0.037110063220529434,-0.001069014166846527,-0.0433714319120591,0.029820000000000003,0.44870000000000004,-0.44604000000000005,15.5,0,8647,8262,10277,23344,26.610078125,127551,17.69656970657015,999.3334117059396,0,,,,N/A
2024-03-17T16:26:11,-1.00199446375,2.4604198384499996,9.7423772159,0.039706240482871004,0.0027488935718910697,-0.04489859500755413,0.028700000000000003,0.44926000000000005,-0.44394000000000006,15.5,0,8647,8262,10277,23344,26.610078125,127551,17.69656970657015,999.3334117059396,0,,,,N/A
2024-03-17T16:26:11,-0.9912267620499999,2.4562323989,9.71665437295,0.039095375244672985,-0.0027488935718910697,-0.04276056667386108,0.028700000000000003,0.44926000000000005,-0.44394000000000006,15.5,0,8647,8262,10277,23344,26.610078125,127551,17.69656970657015,999.3334117059396,0,,,,N/A
2024-03-17T16:26:11,-1.0606186174499999,2.4681965119,9.7603233854,0.038484510006474966,-0.038942658935123484,-0.04688390703169768,0.029820000000000003,0.44870000000000004,-0.44520000000000004,15.5,0,8647,8262,10277,23344,26.636640625,129112,17.66232926309467,999.3355443562219,0,,,,N/A
2024-03-17T16:26:11,-1.03908321405,2.47716959665,9.8189475391,0.04153883619746505,0.0006108652381980154,-0.041844268816564056,0.03654,0.44954,-0.44058,15.5,0,8647,8262,10277,23344,26.636640625,129112,17.66232926309467,999.3355443562219,0,,,,N/A
2024-03-17T16:26:11,-1.0265208954,2.4628126610499996,9.844670382049998,0.039400807863771994,0.0009162978572970231,-0.04245513405476207,0.03542,0.45150000000000007,-0.4459,15.5,0,8647,8262,10277,23344,26.636640625,129112,17.66232926309467,999.3355443562219,0,,,,N/A
2024-03-17T16:26:11,-1.0217352502,2.45683060455,9.731609514199999,0.07788531787024697,-0.002138028333693054,-0.04886921905584123,0.035980000000000005,0.4543000000000001,-0.43652,15.5,0,8647,8262,10277,23344,26.636640625,129112,17.66232926309467,999.3355443562219,0,,,,N/A
2024-03-17T16:26:11,-1.0187442219499998,2.428714939,9.687940501749999,0.038179077387375956,0.0016798794050445422,-0.04673119072214818,0.035980000000000005,0.4543000000000001,-0.43652,15.5,0,8629,8242,10251,23279,26.636640625,129112,17.66232926309467,999.3355443562219,0,,,,N/A
2024-03-17T16:26:11,-1.0217352502,2.4598216327999998,9.713663344699999,0.03481931857728687,-0.00045814892864851157,-0.04459316238845512,0.033460000000000004,0.45066,-0.42644000000000004,15.5,0,8629,8242,10251,23279,26.636640625,129112,17.66232926309467,999.3355443562219,0,,,,N/A
2024-03-17T16:26:11,-1.04745809315,2.4622144553999994,9.696315380849999,0.039095375244672985,0.0036651914291880926,-0.04291328298341058,0.03794,0.45122,-0.44814000000000004,15.5,0,8629,8242,10251,23279,26.6606640625,130510,17.602481763341927,999.3335483982602,0,,,,N/A
2024-03-17T16:26:11,-1.0265208954,2.4664018949499997,9.769894675799998,0.039095375244672985,0.0022907446432425577,-0.039095375244672985,0.0413,0.44702000000000003,-0.43946,15.5,0,8629,8242,10251,23279,26.6606640625,130510,17.602481763341927,999.3335483982602,0,,,,N/A
2024-03-17T16:26:11,-1.05583297225,2.4598216327999998,9.69033332435,0.039706240482871004,-0.0019853120241435504,-0.0435241482216086,0.038220000000000004,0.4526200000000001,-0.45038000000000006,15.5,0,8629,8242,10251,23279,26.6606640625,130510,17.602481763341927,999.3335483982602,0,,,,N/A
2024-03-17T16:26:11,-0.9990034354999999,2.476571391,9.7471628611,0.03695734691097993,-0.0009162978572970231,-0.0435241482216086,0.04438,0.45598,-0.44296,15.5,0,8629,8242,10251,23279,26.6606640625,130510,17.602481763341927,999.3335483982602,0,,,,N/A
2024-03-17T16:26:11,-1.0372885971,2.4795624192499996,9.769894675799998,0.038942658935123484,-0.0007635815477475193,-0.04428772976935611,0.04438,0.45598,-0.44296,15.5,0,8629,8242,10251,23279,26.6606640625,130510,17.602481763341927,999.3335483982602,0,,,,N/A
2024-03-17T16:26:11,-1.0061819033,2.4436700802499995,9.71067231645,0.039553524173321496,0.0035124751196385882,-0.04550946024575215,0.037660000000000006,0.45038000000000006,-0.43876000000000004,15.5,0,8629,8242,10251,23279,26.6606640625,130510,17.602481763341927,999.3335483982602,0,,,,N/A
2024-03-17T16:26:11,-0.9954142015999999,2.4442682858999993,9.74177901025,0.03787364476827696,0.0013744467859455349,-0.04459316238845512,0.04186000000000001,0.45178,-0.43862000000000007,15.5,0,8629,8242,10251,23279,26.6606640625,130510,17.602481763341927,999.3335483982602,0,,,,N/A
2024-03-17T16:26:11,-1.0372885971,2.4592234271499995,9.76092159105,0.04092797095926703,-0.0007635815477475193,-0.04489859500755413,0.04186000000000001,0.45178,-0.43862000000000007,15.5,0,8629,8242,10251,23279,26.68390625,132042,17.5782671814324,999.3356325537242,0,,,,N/A
2024-03-17T16:26:11,-0.97328059255,2.4741785683999997,9.889535805799998,0.041386119887915546,-0.00015271630954950385,-0.04291328298341058,0.034300000000000004,0.4537400000000001,-0.43204000000000004,15.5,0,8629,8242,10251,23279,26.68390625,132042,17.5782671814324,999.3356325537242,0,,,,N/A
2024-03-17T16:26:11,-1.01635139935,2.4335005842,9.771091087099999,0.039553524173321496,-0.0024434609527920616,-0.0435241482216086,0.034300000000000004,0.4537400000000001,-0.43204000000000004,15.5,0,8629,8242,10251,23279,26.68390625,132042,17.5782671814324,999.3356325537242,0,,,,N/A
2024-03-17T16:26:11,-1.02592268975,2.4191436485999995,9.703493848649998,0.03802636107782646,0.0025961772623415654,-0.04382958084070761,0.03122,0.45542,-0.44576000000000005,15.5,0,8629,8242,10251,23279,26.68390625,132042,17.5782671814324,999.3356325537242,0,,,,N/A
2024-03-17T16:26:11,-1.0187442219499998,2.4352952011499998,9.726823868999999,0.04123340357836604,-0.0035124751196385882,-0.04566217655530165,0.03682,0.4478600000000001,-0.4548600000000001,15.5,0,8629,8242,10251,23279,26.68390625,132042,17.5782671814324,999.3356325537242,0,,,,N/A
2024-03-17T16:26:11,-1.0313065406,2.4430718745999997,9.744171832849998,0.04092797095926703,-0.0016798794050445422,-0.04459316238845512,0.03486000000000001,0.45234,-0.45416,15.5,0,8629,8242,10251,23279,26.68390625,132042,17.5782671814324,999.3356325537242,0,,,,N/A
2024-03-17T16:26:11,-0.9846464998999999,2.44845572545,9.699904614749999,0.04092797095926703,0.0003054326190990077,-0.043982297150257116,0.03486000000000001,0.45234,-0.45416,15.5,0,8629,8242,10251,23279,26.7044140625,133189,17.528445507239784,999.3314875624485,0,,,,N/A
2024-03-17T16:26:12,-1.0277173067,2.4562323989,9.6622176588,0.04413501345980661,-0.0024434609527920616,-0.04459316238845512,0.038500000000000006,0.4478600000000001,-0.44562000000000007,15.5,0,8629,8242,10251,23279,26.7044140625,133189,17.528445507239784,999.3314875624485,0,,,,N/A
2024-03-17T16:26:12,-0.9912267620499999,2.46999112885,9.7363951594,0.04092797095926703,-0.004123340357836604,-0.04413501345980661,0.03458000000000001,0.44898000000000005,-0.43848000000000004,15.5,0,8629,8242,10251,23279,26.7044140625,133189,17.528445507239784,999.3314875624485,0,,,,N/A
2024-03-17T16:26:12,-1.0372885971,2.4430718745999997,9.72383284075,0.039858956792420505,-0.0033597588100890844,-0.04596760917440065,0.03794,0.45150000000000007,-0.44100000000000006,15.5,0,8629,8242,10251,23279,26.7044140625,133189,17.528445507239784,999.3314875624485,0,,,,N/A
2024-03-17T16:26:12,-0.9828518829499999,2.44845572545,9.8931250397,0.038942658935123484,-0.0019853120241435504,-0.04505131131710364,0.03794,0.45150000000000007,-0.44100000000000006,15.5,0,8629,8242,10251,23279,26.7044140625,133189,17.528445507239784,999.3314875624485,0,,,,N/A
2024-03-17T16:26:12,-1.01395857675,2.4532413706500003,9.77049288145,0.04535674393620265,-0.0006108652381980154,-0.04566217655530165,0.03402,0.4459,-0.4491200000000001,15.5,0,8629,8242,10251,23279,26.7044140625,133189,17.528445507239784,999.3314875624485,0,,,,N/A
2024-03-17T16:26:12,-0.97806623775,2.44486649155,9.66640509835,0.04810563750809371,-0.003207042500539581,-0.04474587869800463,0.03374,0.44702000000000003,-0.44506000000000007,15.5,0,8629,8242,10251,23279,26.7251171875,135325,17.48374091282324,999.3312261388234,0,,,,N/A
2024-03-17T16:26:12,-1.0133603711,2.4203400598999996,9.72024360685,0.040317105721069016,-0.0003054326190990077,-0.0435241482216086,0.04242,0.4526200000000001,-0.44506000000000007,15.5,0,8629,8242,10251,23279,26.7251171875,135325,17.48374091282324,999.3312261388234,0,,,,N/A
2024-03-17T16:26:12,-1.0103693428499998,2.4478575198,9.753144917599998,0.036804630601430424,0.00045814892864851157,-0.04459316238845512,0.0371,0.44506000000000007,-0.43932000000000004,15.5,0,8629,8242,10251,23279,26.7251171875,135325,17.48374091282324,999.3312261388234,0,,,,N/A
2024-03-17T16:26:12,-1.0061819033,2.4424736689499995,9.8153583052,0.04214970143566306,-0.0025961772623415654,-0.04489859500755413,0.040740000000000005,0.45094000000000006,-0.45276000000000005,15.5,0,8608,8220,10230,23227,26.7251171875,135325,17.48374091282324,999.3312261388234,0,,,,N/A
2024-03-17T16:26:12,-0.9870393224999998,2.4430718745999997,9.748359272399998,0.041386119887915546,0.00015271630954950385,-0.0474947722698957,0.03542,0.44758000000000003,-0.42840000000000006,15.5,0,8608,8220,10230,23227,26.7251171875,135325,17.48374091282324,999.3312261388234,0,,,,N/A
2024-03-17T16:26:12,-1.0145567824,2.4574288101999997,9.7782695549,0.041080687268816536,-0.0022907446432425577,-0.04505131131710364,0.03542,0.44758000000000003,-0.42840000000000006,15.5,0,8608,8220,10230,23227,26.7251171875,135325,17.48374091282324,999.3312261388234,0,,,,N/A
2024-03-17T16:26:12,-1.0271191010499998,2.4789642136,9.773483909699998,0.038942658935123484,0.0007635815477475193,-0.04520402762665314,0.03542,0.44114000000000003,-0.43988000000000005,15.5,0,8608,8220,10230,23227,26.7251171875,135325,17.48374091282324,999.3312261388234,0,,,,N/A
2024-03-17T16:26:12,-1.0115657541499998,2.4550359876,9.72861848595,0.03787364476827696,0.0006108652381980154,-0.03924809155422249,0.04662,0.45234,-0.42490000000000006,15.5,0,8608,8220,10230,23227,26.7438671875,136309,17.45421071312079,999.3313580298549,0,,,,N/A
2024-03-17T16:26:12,-1.03190474625,2.4263221163999997,9.785448022699999,0.04581489286485116,0.0013744467859455349,-0.04520402762665314,0.038220000000000004,0.45122,-0.4466,16.5,0,8608,8220,10230,23227,26.7438671875,136309,17.45421071312079,999.3313580298549,0,,,,N/A
2024-03-17T16:26:12,-0.96849494735,2.4508485480499997,9.73460054245,0.038942658935123484,0.0003054326190990077,-0.040622538340168025,0.03878,0.44814000000000004,-0.44870000000000004,15.5,0,8608,8220,10230,23227,26.7438671875,136309,17.45421071312079,999.3313580298549,0,,,,N/A
2024-03-17T16:26:12,-1.0271191010499998,2.4472593141499996,9.7651090306,0.04001167310197001,0.0019853120241435504,-0.0435241482216086,0.03878,0.44814000000000004,-0.44870000000000004,15.5,0,8608,8220,10230,23227,26.7438671875,136309,17.45421071312079,999.3313580298549,0,,,,N/A
2024-03-17T16:26:12,-1.0073783146,2.4466611085,9.76331441365,0.0433714319120591,-0.001069014166846527,-0.04413501345980661,0.03318,0.44954,-0.4466,15.5,0,8608,8220,10230,23227,26.7438671875,136309,17.45421071312079,999.3313580298549,0,,,,N/A
2024-03-17T16:26:12,-0.9906285563999999,2.4723839514499995,9.7914300792,0.039095375244672985,-0.0024434609527920616,-0.04596760917440065,0.03654,0.44702000000000003,-0.44898000000000005,15.5,0,8608,8220,10230,23227,26.7438671875,136309,17.45421071312079,999.3313580298549,0,,,,N/A
2024-03-17T16:26:12,-1.0265208954,2.4508485480499997,9.91286582615,0.03772092845872745,-0.0007635815477475193,-0.043982297150257116,0.03654,0.44702000000000003,-0.44898000000000005,15.5,0,8608,8220,10230,23227,26.760859375,137531,17.40932811225086,999.3304167928187,0,,,,N/A
2024-03-17T16:26:12,-0.9589236569499999,2.4789642136,9.7304131029,0.03802636107782646,-0.002138028333693054,-0.04092797095926703,0.039060000000000004,0.44982000000000005,-0.4606,15.5,0,8608,8220,10230,23227,26.760859375,137531,17.40932811225086,999.3304167928187,0,,,,N/A
2024-03-17T16:26:12,-1.07377914175,2.4346969955,9.7615197967,0.041080687268816536,-0.002901609881440573,-0.04566217655530165,0.038500000000000006,0.44562000000000007,-0.44296,15.5,0,8608,8220,10230,23227,26.760859375,137531,17.40932811225086,999.3304167928187,0,,,,N/A
2024-03-17T16:26:12,-1.0055836976499999,2.4358934068,9.7471628611,0.04077525464971753,-0.0018325957145940463,-0.04245513405476207,0.038500000000000006,0.44562000000000007,-0.44296,15.5,0,8608,8220,10230,23227,26.760859375,137531,17.40932811225086,999.3304167928187,0,,,,N/A
2024-03-17T16:26:12,-0.99720881855,2.4173490316499997,9.750752095,0.04382958084070761,-0.002901609881440573,-0.04413501345980661,0.04242,0.44982000000000005,-0.44394000000000006,15.5,0,8608,8220,10230,23227,26.760859375,137531,17.40932811225086,999.3304167928187,0,,,,N/A
2024-03-17T16:26:12,-0.9894321450999999,2.4191436485999995,9.721440018149998,0.04276056667386108,-0.0007635815477475193,-0.04428772976935611,0.03626000000000001,0.4520600000000001,-0.45150000000000007,15.5,0,8608,8220,10230,23227,26.760859375,137531,17.40932811225086,999.3304167928187,0,,,,N/A
2024-03-17T16:26:12,-0.98404829425,2.4442682858999993,9.754341328899999,0.04321871560250959,0.0,-0.04535674393620265,0.03626000000000001,0.4520600000000001,-0.45150000000000007,15.5,0,8608,8220,10230,23227,26.760859375,137531,17.40932811225086,999.3304167928187,0,,,,N/A
2024-03-17T16:26:12,-1.0265208954,2.4107687694999997,9.6753781831,0.04016438941151951,-0.00045814892864851157,-0.04016438941151951,0.04018000000000001,0.44170000000000004,-0.43946,15.5,0,8608,8220,10230,23227,26.776875,139925,17.35423622719734,999.3243190164624,0,,,,N/A
2024-03-17T16:26:12,-0.94456672135,2.4173490316499997,9.7782695549,0.04092797095926703,-0.001069014166846527,-0.04627304179349966,0.0427,0.4571,-0.43806000000000006,15.5,0,8608,8220,10230,23227,26.776875,139925,17.35423622719734,999.3243190164624,0,,,,N/A
2024-03-17T16:26:12,-0.9966106129,2.4466611085,9.7399843933,0.040317105721069016,-0.0006108652381980154,-0.04444044607890562,0.0427,0.4571,-0.43806000000000006,15.5,0,8608,8220,10230,23227,26.776875,139925,17.35423622719734,999.3243190164624,0,,,,N/A
2024-03-17T16:26:12,-1.0211370445499999,2.4442682858999993,9.7304131029,0.03787364476827696,-0.0015271630954950385,-0.04321871560250959,0.03542,0.4520600000000001,-0.43484,15.5,0,8608,8220,10230,23227,26.776875,139925,17.35423622719734,999.3243190164624,0,,,,N/A
2024-03-17T16:26:12,-1.0187442219499998,2.4436700802499995,9.848857821599998,0.04001167310197001,-0.0015271630954950385,-0.04382958084070761,0.03682,0.45122,-0.42980000000000007,15.5,0,8608,8220,10230,23227,26.776875,139925,17.35423622719734,999.3243190164624,0,,,,N/A
2024-03-17T16:26:12,-0.96131647955,2.416750826,9.7471628611,0.03695734691097993,-0.00045814892864851157,-0.04459316238845512,0.03682,0.45122,-0.42980000000000007,15.5,0,8608,8220,10230,23227,26.776875,139925,17.35423622719734,999.3243190164624,0,,,,N/A
2024-03-17T16:26:12,-1.0450652705499999,2.4394826406999996,9.7064848769,0.041386119887915546,-0.0006108652381980154,-0.04230241774521256,0.039060000000000004,0.45178,-0.4466,15.5,0,8608,8220,10230,23227,26.79171875,140391,17.334689820273535,999.3305909236425,0,,,,N/A
2024-03-17T16:26:12,-1.0061819033,2.45683060455,9.754341328899999,0.037110063220529434,-0.0016798794050445422,-0.04214970143566306,0.03458000000000001,0.44562000000000007,-0.45528,15.5,0,8608,8220,10230,23227,26.79171875,140391,17.334689820273535,999.3305909236425,0,,,,N/A
2024-03-17T16:26:12,-1.0055836976499999,2.46879471755,9.739386187649998,0.03436116964863837,0.00045814892864851157,-0.043982297150257116,0.03458000000000001,0.44562000000000007,-0.45528,15.5,0,8600,8209,10217,23205,26.79171875,140391,17.334689820273535,999.3305909236425,0,,,,N/A
2024-03-17T16:26:13,-0.9912267620499999,2.4675983062499998,9.723234635099999,0.038942658935123484,-0.0025961772623415654,-0.041996985126113565,0.03542,0.4601800000000001,-0.44184,15.5,0,8600,8209,10217,23205,26.79171875,140391,17.334689820273535,999.3305909236425,0,,,,N/A
2024-03-17T16:26:13,-0.9672985360499999,2.4574288101999997,9.78724263965,0.03772092845872745,0.001069014166846527,-0.04596760917440065,0.033460000000000004,0.45066,-0.43512000000000006,15.5,0,8600,8209,10217,23205,26.79171875,140391,17.334689820273535,999.3305909236425,0,,,,N/A
2024-03-17T16:26:13,-1.0181460163,2.4311077616,9.75374312325,0.038789942625573975,0.00045814892864851157,-0.04153883619746505,0.03934,0.44702000000000003,-0.44422,15.5,0,8600,8209,10217,23205,26.79171875,140391,17.334689820273535,999.3305909236425,0,,,,N/A
2024-03-17T16:26:13,-0.9822536772999998,2.45802701585,9.75972517975,0.0018325957145940463,-0.00045814892864851157,-0.041844268816564056,0.03934,0.44702000000000003,-0.44422,15.5,0,8600,8209,10217,23205,26.8065625,142525,17.27956402195342,999.3315089133307,0,,,,N/A
2024-03-17T16:26:13,-1.0588240004999998,2.4335005842,9.667003304,0.03726277953007894,0.0,-0.04291328298341058,0.04354000000000001,0.4543000000000001,-0.44044000000000005,15.5,0,8600,8209,10217,23205,26.8065625,142525,17.27956402195342,999.3315089133307,0,,,,N/A
2024-03-17T16:26:13,-1.0127621654499999,2.3024935468499996,9.71665437295,0.038331793696925465,-0.0019853120241435504,-0.04230241774521256,0.037380000000000004,0.44534,-0.45598,15.5,0,8600,8209,10217,23205,26.8065625,142525,17.27956402195342,999.3315089133307,0,,,,N/A
2024-03-17T16:26:13,-0.9672985360499999,2.48674088705,9.759126974099999,0.03695734691097993,0.00045814892864851157,-0.04382958084070761,0.03626000000000001,0.45066,-0.45808000000000004,15.5,0,8600,8209,10217,23205,26.8065625,142525,17.27956402195342,999.3315089133307,0,,,,N/A
2024-03-17T16:26:13,-1.0444670649,2.4329023785499997,9.7615197967,0.039706240482871004,-0.003970624048287101,-0.043676864531158106,0.03626000000000001,0.45066,-0.45808000000000004,15.5,0,8600,8209,10217,23205,26.8065625,142525,17.27956402195342,999.3315089133307,0,,,,N/A
2024-03-17T16:26:13,-1.02352986715,2.47358036275,9.718448989899999,0.0357356164345839,-0.0024434609527920616,-0.043676864531158106,0.030660000000000003,0.4590600000000001,-0.42364,15.5,0,8600,8209,10217,23205,26.8065625,142525,17.27956402195342,999.3315089133307,0,,,,N/A
2024-03-17T16:26:13,-0.9912267620499999,2.4705893344999996,9.73340413115,0.039553524173321496,0.00015271630954950385,-0.04718933965079669,0.039060000000000004,0.44842000000000004,-0.4443600000000001,15.5,0,8600,8209,10217,23205,26.820625,143495,17.249821963687317,999.3311567846353,0,,,,N/A
2024-03-17T16:26:13,-1.0360921857999998,2.40777774125,9.758528768449999,0.041996985126113565,-0.003207042500539581,-0.043982297150257116,0.042140000000000004,0.4459,-0.44604000000000005,15.5,0,8600,8209,10217,23205,26.820625,143495,17.249821963687317,999.3311567846353,0,,,,N/A
2024-03-17T16:26:13,-0.97567341515,2.4215364712,9.72502925205,0.041996985126113565,0.0013744467859455349,-0.04612032548395016,0.040740000000000005,0.44702000000000003,-0.4491200000000001,15.5,0,8600,8209,10217,23205,26.820625,143495,17.249821963687317,999.3311567846353,0,,,,N/A
2024-03-17T16:26:13,-0.9966106129,2.42572391075,9.74177901025,0.04077525464971753,0.0019853120241435504,-0.04474587869800463,0.03458000000000001,0.45822,-0.4496800000000001,15.5,0,8600,8209,10217,23205,26.820625,143495,17.249821963687317,999.3311567846353,0,,,,N/A
2024-03-17T16:26:13,-1.02352986715,2.4227328824999996,9.784849817049999,0.041844268816564056,-0.0068722339297276735,-0.0435241482216086,0.03542,0.45570000000000005,-0.4496800000000001,15.5,0,8600,8209,10217,23205,26.820625,143495,17.249821963687317,999.3311567846353,0,,,,N/A
2024-03-17T16:26:13,-1.00797652025,2.4729821571,9.7651090306,0.03802636107782646,0.0022907446432425577,-0.041996985126113565,0.03542,0.45570000000000005,-0.4496800000000001,15.5,0,8600,8209,10217,23205,26.820625,143495,17.249821963687317,999.3311567846353,0,,,,N/A
2024-03-17T16:26:13,-1.00319087505,2.41256338645,9.775876732299999,0.04046982203061852,-0.0012217304763960308,-0.04276056667386108,0.0371,0.45570000000000005,-0.45066,15.5,0,8600,8209,10217,23205,26.820625,143495,17.249821963687317,999.3311567846353,0,,,,N/A
2024-03-17T16:26:13,-0.99720881855,2.41256338645,9.69751179215,0.03741549583962844,0.0019853120241435504,-0.039400807863771994,0.039900000000000005,0.45122,-0.44058,15.5,0,8600,8209,10217,23205,26.83390625,143373,17.194646738306858,999.3295346035994,0,,,,N/A
2024-03-17T16:26:13,-1.0342975688499998,2.4610180441,9.690931529999999,0.038942658935123484,-0.001069014166846527,-0.04153883619746505,0.04046,0.45402000000000003,-0.4491200000000001,15.5,0,8600,8209,10217,23205,26.83390625,143373,17.194646738306858,999.3295346035994,0,,,,N/A
2024-03-17T16:26:13,-0.9888339394499999,2.43409878985,9.811769071299999,0.037110063220529434,-0.00045814892864851157,-0.04505131131710364,0.033460000000000004,0.45094000000000006,-0.43582000000000004,15.5,0,8600,8209,10217,23205,26.83390625,143373,17.194646738306858,999.3295346035994,0,,,,N/A
2024-03-17T16:26:13,-1.0384850084,2.42692032205,9.798010341349999,0.039400807863771994,-0.038637226316024474,-0.04444044607890562,0.033460000000000004,0.45094000000000006,-0.43582000000000004,15.5,0,8600,8209,10217,23205,26.83390625,143373,17.194646738306858,999.3295346035994,0,,,,N/A
2024-03-17T16:26:13,-0.9966106129,2.464607278,9.774680320999998,0.03695734691097993,0.0016798794050445422,-0.04428772976935611,0.037380000000000004,0.44954,-0.45416,15.5,0,8600,8209,10217,23205,26.83390625,143373,17.194646738306858,999.3295346035994,0,,,,N/A
2024-03-17T16:26:13,-1.01515498805,2.4508485480499997,9.746564655449998,0.036804630601430424,-0.0027488935718910697,-0.043982297150257116,0.04102,0.4543000000000001,-0.44576000000000005,15.5,0,8600,8209,10217,23205,26.83390625,143373,17.194646738306858,999.3295346035994,0,,,,N/A
2024-03-17T16:26:13,-1.01515498805,2.46999112885,9.66640509835,0.07651087108430142,0.0003054326190990077,-0.043982297150257116,0.04102,0.4543000000000001,-0.44576000000000005,15.5,0,8600,8209,10217,23205,26.83390625,143373,17.194646738306858,999.3295346035994,0,,,,N/A
2024-03-17T16:26:13,-1.0049854919999999,2.4741785683999997,9.7423772159,0.038179077387375956,0.00015271630954950385,-0.04505131131710364,0.038220000000000004,0.44646,-0.44814000000000004,15.5,0,8600,8209,10217,23205,26.8481640625,144478,17.154776882208385,999.325928947349,0,,,,N/A
2024-03-17T16:26:13,-1.0007980524499998,2.4514467537,9.781260583149999,0.04016438941151951,0.001069014166846527,-0.04321871560250959,0.033460000000000004,0.44702000000000003,-0.44898000000000005,15.5,0,8598,8204,10209,23188,26.8481640625,144478,17.154776882208385,999.325928947349,0,,,,N/A
2024-03-17T16:26:13,-1.0845468434499999,2.47716959665,9.8273224182,0.039095375244672985,-0.0003054326190990077,-0.04535674393620265,0.032900000000000006,0.44898000000000005,-0.43176000000000003,15.5,0,8598,8204,10209,23188,26.8481640625,144478,17.154776882208385,999.325928947349,0,,,,N/A
2024-03-17T16:26:13,-1.0372885971,2.4454646972,9.769894675799998,0.039400807863771994,-0.00015271630954950385,-0.04214970143566306,0.04046,0.45234,-0.43848000000000004,15.5,0,8598,8204,10209,23188,26.8481640625,144478,17.154776882208385,999.325928947349,0,,,,N/A
2024-03-17T16:26:13,-1.0295119236499999,2.4490539311,9.7423772159,0.03726277953007894,-0.001069014166846527,-0.043982297150257116,0.04046,0.45234,-0.43848000000000004,15.5,0,8598,8204,10209,23188,26.8481640625,144478,17.154776882208385,999.325928947349,0,,,,N/A
2024-03-17T16:26:13,-1.02592268975,2.4628126610499996,9.790233667899999,0.041691552507014555,-0.0013744467859455349,-0.04612032548395016,0.04018000000000001,0.45934,-0.43806000000000006,16.5,0,8598,8204,10209,23188,26.8481640625,144478,17.154776882208385,999.325928947349,0,,,,N/A
2024-03-17T16:26:13,-1.0295119236499999,2.44127725765,9.741180804599999,0.038789942625573975,-0.0024434609527920616,-0.043676864531158106,0.03486000000000001,0.4520600000000001,-0.44506000000000007,16.5,0,8598,8204,10209,23188,26.86203125,147123,17.11997330029527,999.3234722354634,0,,,,N/A
2024-03-17T16:26:13,-1.0025926694,2.44606290285,9.71306513905,0.037110063220529434,-0.0022907446432425577,-0.0433714319120591,0.03542,0.45094000000000006,-0.42980000000000007,15.5,0,8598,8204,10209,23188,26.86203125,147123,17.11997330029527,999.3234722354634,0,,,,N/A
2024-03-17T16:26:13,-1.0211370445499999,2.4634108667000003,9.774680320999998,0.04123340357836604,-0.0007635815477475193,-0.04382958084070761,0.0371,0.45178,-0.43232000000000004,15.5,0,8598,8204,10209,23188,26.86203125,147123,17.11997330029527,999.3234722354634,0,,,,N/A
2024-03-17T16:26:13,-0.9984052298499999,2.44127725765,9.7567341515,0.04276056667386108,0.0006108652381980154,-0.04520402762665314,0.0371,0.45178,-0.43232000000000004,15.5,0,8598,8204,10209,23188,26.86203125,147123,17.11997330029527,999.3234722354634,0,,,,N/A
2024-03-17T16:26:13,-1.0199406332499998,2.43409878985,9.74776106675,0.03405573702953936,-0.0033597588100890844,-0.04306599929296009,0.042140000000000004,0.44758000000000003,-0.44422,15.5,0,8598,8204,10209,23188,26.86203125,147123,17.11997330029527,999.3234722354634,0,,,,N/A
2024-03-17T16:26:13,-0.9936195846499999,2.4335005842,9.7363951594,0.04016438941151951,0.001069014166846527,-0.04444044607890562,0.03654,0.44954,-0.44212000000000007,15.5,0,8598,8204,10209,23188,26.86203125,147123,17.11997330029527,999.3234722354634,0,,,,N/A
2024-03-17T16:26:13,-1.0049854919999999,2.4239292938,9.7340023368,0.04153883619746505,-0.0018325957145940463,-0.04535674393620265,0.03654,0.44954,-0.44212000000000007,15.5,0,8598,8204,10209,23188,26.87609375,147123,17.080113632193882,999.3195472367431,0,,,,N/A
2024-03-17T16:26:14,-0.98524470555,2.46400907235,9.717850784249999,0.04092797095926703,0.0015271630954950385,-0.04505131131710364,0.04018000000000001,0.45094000000000006,-0.43470000000000003,15.5,0,8598,8204,10209,23188,26.87609375,147123,17.080113632193882,999.3195472367431,0,,,,N/A
2024-03-17T16:26:14,-1.0217352502,2.4203400598999996,9.72502925205,0.04276056667386108,0.0007635815477475193,-0.04673119072214818,0.039900000000000005,0.44758000000000003,-0.44058,15.5,0,8598,8204,10209,23188,26.87609375,147123,17.080113632193882,999.3195472367431,0,,,,N/A
2024-03-17T16:26:14,-1.0289137179999999,2.4323041728999995,9.72622566335,0.038179077387375956,0.001069014166846527,-0.04444044607890562,0.039900000000000005,0.44758000000000003,-0.44058,15.5,0,8598,8204,10209,23188,26.87609375,147123,17.080113632193882,999.3195472367431,0,,,,N/A
2024-03-17T16:26:14,-1.01635139935,2.42213467685,9.742975421549998,0.038637226316024474,-0.0003054326190990077,-0.04459316238845512,0.04242,0.45094000000000006,-0.44702000000000003,15.5,0,8598,8204,10209,23188,26.87609375,147123,17.080113632193882,999.3195472367431,0,,,,N/A
2024-03-17T16:26:14,-0.97208418125,2.4717857457999997,9.8548398781,0.0357356164345839,0.0009162978572970231,-0.0435241482216086,0.04354000000000001,0.44478,-0.44716,15.5,0,8598,8204,10209,23188,26.87609375,147123,17.080113632193882,999.3195472367431,0,,,,N/A
2024-03-17T16:26:14,-1.0199406332499998,2.4783660079499996,9.766305441899998,0.04260785036431157,0.0013744467859455349,-0.043982297150257116,0.0371,0.4585000000000001,-0.44534,15.5,0,8598,8204,10209,23188,26.8878125,148286,17.040141683433024,999.3243064323076,0,,,,N/A
2024-03-17T16:26:14,-0.9930213789999999,2.46520548365,9.7962157244,0.03756821214917795,0.00045814892864851157,-0.04306599929296009,0.042980000000000004,0.44646,-0.43722000000000005,15.5,0,8598,8204,10209,23188,26.8878125,148286,17.040141683433024,999.3243064323076,0,,,,N/A
2024-03-17T16:26:14,-0.9978070242,2.42093826555,9.75613594585,0.041844268816564056,0.0016798794050445422,-0.041844268816564056,0.046900000000000004,0.4590600000000001,-0.4478600000000001,15.5,0,8598,8204,10209,23188,26.8878125,148286,17.040141683433024,999.3243064323076,0,,,,N/A
2024-03-17T16:26:14,-1.01515498805,2.4311077616,9.6801638283,0.04230241774521256,0.0015271630954950385,-0.04734205596034619,0.03486000000000001,0.45738000000000006,-0.45178,15.5,0,8598,8204,10209,23188,26.8878125,148286,17.040141683433024,999.3243064323076,0,,,,N/A
2024-03-17T16:26:14,-1.0313065406,2.4478575198,9.750752095,0.039706240482871004,0.0009162978572970231,-0.04230241774521256,0.039060000000000004,0.4520600000000001,-0.44814000000000004,15.5,0,8598,8204,10209,23188,26.8878125,148286,17.040141683433024,999.3243064323076,0,,,,N/A
2024-03-17T16:26:14,-0.9816554716499999,2.2995025185999998,9.762118002349998,0.04245513405476207,0.0024434609527920616,-0.04123340357836604,0.039060000000000004,0.4520600000000001,-0.44814000000000004,15.5,0,8598,8204,10209,23188,26.8878125,148286,17.040141683433024,999.3243064323076,0,,,,N/A
2024-03-17T16:26:14,-0.9577272456499999,2.4945175605,9.775876732299999,0.041080687268816536,-0.0015271630954950385,-0.040622538340168025,0.038500000000000006,0.4501,-0.44072,15.5,0,8598,8204,10209,23188,26.8981640625,150804,17.00010947890309,999.3214903703827,0,,,,N/A
2024-03-17T16:26:14,-0.9714859755999999,2.43768802375,9.710074110799999,0.041691552507014555,-0.0013744467859455349,-0.04489859500755413,0.037380000000000004,0.4461800000000001,-0.44800000000000006,15.5,0,8594,8198,10198,23169,26.8981640625,150804,17.00010947890309,999.3214903703827,0,,,,N/A
2024-03-17T16:26:14,-1.0492527101,2.5860430249499995,9.739386187649998,0.03726277953007894,0.0007635815477475193,-0.04291328298341058,0.037380000000000004,0.4461800000000001,-0.44800000000000006,15.5,0,8594,8198,10198,23169,26.8981640625,150804,17.00010947890309,999.3214903703827,0,,,,N/A
2024-03-17T16:26:14,-1.04985091575,2.4586252214999997,9.749555683699999,0.041844268816564056,-0.03726277953007894,-0.04291328298341058,0.03514,0.44926000000000005,-0.44002,15.5,0,8594,8198,10198,23169,26.8981640625,150804,17.00010947890309,999.3214903703827,0,,,,N/A
2024-03-17T16:26:14,-1.1144571259499998,2.4717857457999997,9.710074110799999,0.037110063220529434,0.0,-0.04382958084070761,0.04354000000000001,0.44478,-0.43778,15.5,0,8594,8198,10198,23169,26.8981640625,150804,17.00010947890309,999.3214903703827,0,,,,N/A
2024-03-17T16:26:14,-1.0193424276,2.43409878985,9.762118002349998,0.041996985126113565,0.0006108652381980154,-0.041691552507014555,0.04522,0.44562000000000007,-0.45458000000000004,15.5,0,8594,8198,10198,23169,26.8981640625,150804,17.00010947890309,999.3214903703827,0,,,,N/A
2024-03-17T16:26:14,-1.0121639597999998,2.4598216327999998,9.721440018149998,0.039706240482871004,0.0003054326190990077,-0.04016438941151951,0.04522,0.44562000000000007,-0.45458000000000004,15.5,0,8594,8198,10198,23169,26.9079296875,151210,16.9600583961025,999.3195066546651,0,,,,N/A
2024-03-17T16:26:14,-0.98404829425,2.4239292938,9.7435736272,0.04001167310197001,0.0,-0.04566217655530165,0.04522,0.44982000000000005,-0.44450000000000006,15.5,0,8594,8198,10198,23169,26.9079296875,151210,16.9600583961025,999.3195066546651,0,,,,N/A
2024-03-17T16:26:14,-1.03788680275,2.4251257050999997,9.698708203449998,0.03924809155422249,0.0012217304763960308,-0.041844268816564056,0.0413,0.45682000000000006,-0.44198000000000004,15.5,0,8594,8198,10198,23169,26.9079296875,151210,16.9600583961025,999.3195066546651,0,,,,N/A
2024-03-17T16:26:14,-0.9828518829499999,2.40897415255,9.73101130855,0.04046982203061852,0.002138028333693054,-0.043982297150257116,0.043820000000000005,0.45458000000000004,-0.44100000000000006,15.5,0,8594,8198,10198,23169,26.9079296875,151210,16.9600583961025,999.3195066546651,0,,,,N/A
2024-03-17T16:26:14,-0.9738787981999999,2.4203400598999996,9.749555683699999,0.039706240482871004,-0.0009162978572970231,-0.04321871560250959,0.043820000000000005,0.45458000000000004,-0.44100000000000006,15.5,0,8594,8198,10198,23169,26.9079296875,151210,16.9600583961025,999.3195066546651,0,,,,N/A
2024-03-17T16:26:14,-1.0007980524499998,2.41136697515,9.76690364755,0.04245513405476207,0.0013744467859455349,-0.039706240482871004,0.0413,0.45682000000000006,-0.44646,15.5,0,8594,8198,10198,23169,26.9079296875,151210,16.9600583961025,999.3195066546651,0,,,,N/A
2024-03-17T16:26:14,-0.99242317335,2.4203400598999996,9.7244310464,0.04123340357836604,-0.0007635815477475193,-0.04657847441259867,0.04186000000000001,0.44702000000000003,-0.43652,15.5,0,8594,8198,10198,23169,26.915546875,152301,16.91990691176877,999.3193867840025,0,,,,N/A
2024-03-17T16:26:14,-0.9990034354999999,2.4430718745999997,9.73101130855,0.03924809155422249,-0.0012217304763960308,-0.04245513405476207,0.039060000000000004,0.45066,-0.4548600000000001,15.5,0,8594,8198,10198,23169,26.915546875,152301,16.91990691176877,999.3193867840025,0,,,,N/A
2024-03-17T16:26:14,-1.0289137179999999,2.43649161245,9.758528768449999,0.03665191429188092,-0.0015271630954950385,-0.043676864531158106,0.039060000000000004,0.45066,-0.4548600000000001,15.5,0,8594,8198,10198,23169,26.915546875,152301,16.91990691176877,999.3193867840025,0,,,,N/A
2024-03-17T16:26:15,-1.0145567824,2.4370898180999996,9.77049288145,0.03802636107782646,0.00015271630954950385,-0.041844268816564056,0.03486000000000001,0.4529,-0.45346000000000003,16.5,0,8575,8184,10176,23114,26.923359375,153689,16.889911074296986,999.3213686296414,0,,,,N/A
2024-03-17T16:26:15,-0.9870393224999998,2.45563419325,9.6981099978,0.04077525464971753,0.0018325957145940463,-0.04230241774521256,0.038500000000000006,0.4461800000000001,-0.4585000000000001,15.5,0,8575,8184,10176,23114,26.923359375,153689,16.889911074296986,999.3213686296414,0,,,,N/A
2024-03-17T16:26:15,-1.0354939801499998,2.4520449593499998,9.735198748099998,0.039095375244672985,0.0,-0.04520402762665314,0.038500000000000006,0.4461800000000001,-0.4585000000000001,15.5,0,8575,8184,10176,23114,26.923359375,153689,16.889911074296986,999.3213686296414,0,,,,N/A
2024-03-17T16:26:15,-1.0133603711,2.30847560335,9.729216691599998,0.03924809155422249,-0.0006108652381980154,-0.04566217655530165,0.03878,0.45150000000000007,-0.44002,15.5,0,8575,8184,10176,23114,26.923359375,153689,16.889911074296986,999.3213686296414,0,,,,N/A
2024-03-17T16:26:15,-1.01515498805,2.4634108667000003,9.732805925500001,0.04444044607890562,0.0027488935718910697,-0.04428772976935611,0.037380000000000004,0.44814000000000004,-0.4494,15.5,0,8575,8184,10176,23114,26.923359375,153689,16.889911074296986,999.3213686296414,0,,,,N/A
2024-03-17T16:26:15,-0.9948159959499998,2.4849462701,9.84945602725,0.03924809155422249,0.002901609881440573,-0.04444044607890562,0.037380000000000004,0.44814000000000004,-0.4494,15.5,0,8575,8184,10176,23114,26.923359375,153689,16.889911074296986,999.3213686296414,0,,,,N/A
2024-03-17T16:26:15,-1.0301101293,2.47358036275,9.72502925205,0.038637226316024474,0.0003054326190990077,-0.04077525464971753,0.04018000000000001,0.44646,-0.44198000000000004,15.5,0,8575,8184,10176,23114,26.631953125,145474,16.733049651571804,999.3404150770492,0,,,,N/A
2024-03-17T16:26:16,-1.0217352502,2.4520449593499998,9.68435126785,0.04016438941151951,0.0003054326190990077,-0.04581489286485116,0.03262,0.45122,-0.43260000000000004,16.5,0,8559,8170,10159,23073,26.45578125,151074,16.703740471728494,999.3270233339716,0,,,,N/A
2024-03-17T16:26:16,-1.0546365609499997,2.42572391075,9.72383284075,0.03588833274413341,0.0013744467859455349,-0.04077525464971753,0.02926,0.44842000000000004,-0.4461800000000001,15.5,0,8559,8170,10159,23073,26.45578125,151074,16.703740471728494,999.3270233339716,0,,,,N/A
2024-03-17T16:26:16,-0.99003035075,2.44486649155,9.735198748099998,0.039553524173321496,-0.004581489286485115,-0.04291328298341058,0.02926,0.44842000000000004,-0.4461800000000001,15.5,0,8559,8170,10159,23073,26.45578125,151074,16.703740471728494,999.3270233339716,0,,,,N/A
2024-03-17T16:26:16,-1.0133603711,2.4664018949499997,9.789037256599999,0.039706240482871004,-0.00045814892864851157,-0.04382958084070761,0.04102,0.45458000000000004,-0.43918000000000007,16.5,0,8559,8170,10159,23073,26.45578125,151074,16.703740471728494,999.3270233339716,0,,,,N/A
2024-03-17T16:26:16,-1.03070833495,2.4813570361999995,9.71545796165,0.038484510006474966,-0.001069014166846527,-0.04459316238845512,0.0357,0.4543000000000001,-0.45038000000000006,15.5,0,8559,8170,10159,23073,26.45578125,151074,16.703740471728494,999.3270233339716,0,,,,N/A
2024-03-17T16:26:17,-0.9858429111999999,2.4119651807999998,9.7076812882,0.04459316238845512,0.0003054326190990077,-0.04321871560250959,0.0413,0.4473000000000001,-0.44716,15.5,0,8550,8161,10145,23048,25.8637890625,136419,16.44149849960709,999.3289471676911,0,,,,N/A
2024-03-17T16:26:17,-1.09292172255,2.4789642136,9.7471628611,0.039400807863771994,-0.0012217304763960308,-0.04260785036431157,0.03654,0.45122,-0.43484,15.5,0,8550,8161,10145,23048,25.8637890625,136419,16.44149849960709,999.3289471676911,0,,,,N/A
2024-03-17T16:26:17,-1.0325029519,2.4681965119,9.7375915707,0.04016438941151951,-0.00015271630954950385,-0.04260785036431157,0.0413,0.45122,-0.42574000000000006,15.5,0,8550,8161,10145,23048,25.8637890625,136419,16.44149849960709,999.3289471676911,0,,,,N/A
2024-03-17T16:26:17,-0.9990034354999999,2.4861426813999996,9.735796953749999,0.04001167310197001,0.007483099167925688,-0.04413501345980661,0.03682,0.45570000000000005,-0.43470000000000003,15.5,0,8540,8152,10128,23012,25.8637890625,136419,16.44149849960709,999.3289471676911,0,,,,N/A
2024-03-17T16:26:17,-1.0097711372,2.46400907235,9.731609514199999,0.038637226316024474,0.0024434609527920616,-0.0435241482216086,0.037660000000000006,0.45038000000000006,-0.44534,15.5,0,8540,8152,10128,23012,25.8637890625,136419,16.44149849960709,999.3289471676911,0,,,,N/A
2024-03-17T16:26:18,-1.04745809315,2.4705893344999996,9.842875765099999,0.041844268816564056,0.0,-0.04612032548395016,0.0357,0.45626000000000005,-0.45444000000000007,16.5,0,8527,8140,10108,22968,25.2591015625,128817,16.30048236581061,999.3317905029476,0,,,,N/A
2024-03-17T16:26:18,-1.0121639597999998,2.4352952011499998,9.700502820399999,0.04016438941151951,0.002901609881440573,-0.04459316238845512,0.038500000000000006,0.45794000000000007,-0.43470000000000003,15.5,0,8527,8140,10108,22968,25.2591015625,128817,16.30048236581061,999.3317905029476,0,,,,N/A
2024-03-17T16:26:18,-0.98045906035,2.43649161245,9.7244310464,0.041691552507014555,0.0015271630954950385,-0.04321871560250959,0.03374,0.45458000000000004,-0.4354,15.5,0,8527,8140,10108,22968,25.2591015625,128817,16.30048236581061,999.3317905029476,0,,,,N/A
2024-03-17T16:26:18,-0.9690931529999999,2.4508485480499997,9.6502535458,0.0435241482216086,0.0009162978572970231,-0.04550946024575215,0.03318,0.45178,-0.44142000000000003,15.5,0,8527,8140,10108,22968,25.2591015625,128817,16.30048236581061,999.3317905029476,0,,,,N/A
2024-03-17T16:26:18,-1.0133603711,2.4436700802499995,9.738787982,0.036193765363232405,0.0012217304763960308,-0.04291328298341058,0.04186000000000001,0.45458000000000004,-0.43904000000000004,15.5,0,8527,8140,10108,22968,25.2591015625,128817,16.30048236581061,999.3317905029476,0,,,,N/A
2024-03-17T16:26:19,-1.0157531937,2.4394826406999996,9.8141618939,0.038484510006474966,0.0019853120241435504,-0.04642575810304917,0.04018000000000001,0.45122,-0.44464000000000004,15.5,0,8508,8121,10082,22913,24.7430859375,126121,16.259726134041607,999.3244605575258,0,,,,N/A
2024-03-17T16:26:19,-0.9966106129,2.4634108667000003,9.678369211349999,0.04123340357836604,0.0006108652381980154,-0.03756821214917795,0.04522,0.4478600000000001,-0.4354,15.5,0,8508,8121,10082,22913,24.7430859375,126121,16.259726134041607,999.3244605575258,0,,,,N/A
2024-03-17T16:26:19,-1.0271191010499998,2.4550359876,9.7459664498,0.039553524173321496,0.0012217304763960308,-0.04566217655530165,0.039060000000000004,0.44870000000000004,-0.43344000000000005,16.5,0,8508,8121,10082,22913,24.7430859375,126121,16.259726134041607,999.3244605575258,0,,,,N/A
2024-03-17T16:26:19,-1.12283200505,2.4849462701,9.72383284075,0.041386119887915546,-0.0015271630954950385,-0.04382958084070761,0.04242,0.44842000000000004,-0.43624000000000007,16.5,0,8508,8121,10082,22913,24.7430859375,126121,16.259726134041607,999.3244605575258,0,,,,N/A
2024-03-17T16:26:19,-1.0277173067,2.464607278,9.7244310464,0.04382958084070761,-0.0003054326190990077,-0.04520402762665314,0.04242,0.44842000000000004,-0.43624000000000007,15.5,0,8508,8121,10082,22913,24.7430859375,126121,16.259726134041607,999.3244605575258,0,,,,N/A
2024-03-17T16:26:20,-1.0313065406,2.4478575198,9.744171832849998,0.04276056667386108,0.0024434609527920616,-0.04016438941151951,0.030100000000000002,0.44954,-0.4491200000000001,16.5,0,8470,8085,10028,22786,24.3247265625,124815,16.238995383278613,999.3311146887004,0,,,,N/A
2024-03-17T16:26:20,-0.97806623775,2.4538395763,9.658628424899998,0.03924809155422249,0.002138028333693054,-0.04291328298341058,0.03122,0.45402000000000003,-0.45164000000000004,15.5,0,8470,8085,10028,22786,24.3247265625,124815,16.238995383278613,999.3311146887004,0,,,,N/A
2024-03-17T16:26:20,-1.0007980524499998,2.4586252214999997,9.77049288145,0.039858956792420505,0.0015271630954950385,-0.041386119887915546,0.04018000000000001,0.4501,-0.43694000000000005,15.5,0,8470,8085,10028,22786,24.3247265625,124815,16.238995383278613,999.3311146887004,0,,,,N/A
2024-03-17T16:26:20,-1.0348957745,2.42452749945,9.725627457699998,0.039858956792420505,-0.0038179077387375964,-0.04321871560250959,0.039060000000000004,0.4520600000000001,-0.44828,16.5,0,8470,8085,10028,22786,24.3247265625,124815,16.238995383278613,999.3311146887004,0,,,,N/A
2024-03-17T16:26:20,-1.0145567824,2.4562323989,9.732805925500001,0.04153883619746505,0.00015271630954950385,-0.04566217655530165,0.039060000000000004,0.4520600000000001,-0.44828,16.5,0,8470,8085,10028,22786,24.3247265625,124815,16.238995383278613,999.3311146887004,0,,,,N/A
2024-03-17T16:26:20,-0.9834500885999999,2.4658036893,9.69392255825,0.038942658935123484,0.0024434609527920616,-0.04413501345980661,0.040740000000000005,0.45066,-0.45052000000000003,15.5,0,8470,8085,10028,22786,24.3247265625,124815,16.238995383278613,999.3311146887004,0,,,,N/A
2024-03-17T16:26:20,-1.0187442219499998,2.4496521367499997,9.8201439504,0.04245513405476207,0.0056505034533316425,-0.04581489286485116,0.039900000000000005,0.4548600000000001,-0.44702000000000003,15.5,0,8470,8085,10028,22786,23.9911328125,124447,16.262563193072538,999.3277063840601,0,,,,N/A
2024-03-17T16:26:21,-0.9798608546999998,2.43768802375,9.744770038499999,0.03695734691097993,-0.0012217304763960308,-0.04016438941151951,0.04018000000000001,0.44478,-0.4494,16.5,0,8444,8057,9990,22703,23.967890625,135108,16.31648209126725,999.2862671854926,0,,,,N/A
2024-03-17T16:26:21,-1.02233345585,2.3353948576,9.7555377402,0.04153883619746505,0.0016798794050445422,-0.04657847441259867,0.04018000000000001,0.45346000000000003,-0.44842000000000004,16.5,0,8444,8057,9990,22703,23.967890625,135108,16.31648209126725,999.2862671854926,0,,,,N/A
2024-03-17T16:26:21,-0.9918249676999998,2.4634108667000003,9.7603233854,0.03512475119638588,-0.0009162978572970231,-0.04321871560250959,0.046060000000000004,0.44926000000000005,-0.4403000000000001,16.5,0,8444,8057,9990,22703,23.967890625,135108,16.31648209126725,999.2862671854926,0,,,,N/A
2024-03-17T16:26:21,-1.0037890807,2.5076780847999998,9.7244310464,0.04214970143566306,0.0003054326190990077,-0.04505131131710364,0.039060000000000004,0.44450000000000006,-0.42980000000000007,15.5,0,8444,8057,9990,22703,23.967890625,135108,16.31648209126725,999.2862671854926,0,,,,N/A
2024-03-17T16:26:21,-1.0205388389,2.4975085887499997,9.701101026049999,0.038942658935123484,-0.004581489286485115,-0.043676864531158106,0.039060000000000004,0.44450000000000006,-0.42980000000000007,15.5,0,8444,8057,9990,22703,23.967890625,135108,16.31648209126725,999.2862671854926,0,,,,N/A
2024-03-17T16:26:22,-1.1210373881,2.2995025185999998,9.6347001989,0.039706240482871004,0.0025961772623415654,-0.04535674393620265,0.03962,0.46102000000000004,-0.43344000000000005,15.5,0,8346,7978,9895,22469,23.79171875,132146,16.28774785212925,999.2904024241342,0,,,,N/A
2024-03-17T16:26:22,-0.99720881855,2.4311077616,9.82792062385,0.04077525464971753,0.0022907446432425577,-0.049938233222687756,0.03962,0.45458000000000004,-0.44870000000000004,15.5,0,8346,7978,9895,22469,23.79171875,132146,16.28774785212925,999.2904024241342,0,,,,N/A
2024-03-17T16:26:22,-0.98045906035,2.4502503424,9.759126974099999,0.04123340357836604,-0.0009162978572970231,-0.04489859500755413,0.03318,0.4531800000000001,-0.43960000000000005,15.5,0,8346,7978,9895,22469,23.79171875,132146,16.28774785212925,999.2904024241342,0,,,,N/A
2024-03-17T16:26:22,-0.9050851484499998,2.4562323989,9.727422074649999,0.04581489286485116,0.0027488935718910697,-0.04489859500755413,0.03318,0.4531800000000001,-0.43960000000000005,15.5,0,8346,7978,9895,22469,23.79171875,132146,16.28774785212925,999.2904024241342,0,,,,N/A
2024-03-17T16:26:22,-0.9894321450999999,2.4430718745999997,9.72383284075,0.04291328298341058,0.00015271630954950385,-0.04474587869800463,0.037380000000000004,0.4641,-0.4466,16.5,0,8346,7978,9895,22469,23.79171875,132146,16.28774785212925,999.2904024241342,0,,,,N/A
2024-03-17T16:26:23,-1.00678010895,2.4586252214999997,9.735796953749999,0.039706240482871004,0.0012217304763960308,-0.04718933965079669,0.0371,0.45542,-0.4572400000000001,16.5,0,8301,7945,9852,22363,23.592890625,129014,16.287943313044018,999.2947401806492,0,,,,N/A
2024-03-17T16:26:23,-0.94456672135,2.4616162497499996,9.7555377402,0.04230241774521256,-0.00045814892864851157,-0.0435241482216086,0.041580000000000006,0.45654,-0.44870000000000004,15.5,0,8301,7945,9852,22363,23.592890625,129014,16.287943313044018,999.2947401806492,0,,,,N/A
2024-03-17T16:26:23,-1.0283155123499998,2.4538395763,9.789635462249999,0.038179077387375956,-0.03634648167278191,-0.04505131131710364,0.04242,0.4529,-0.45164000000000004,16.5,0,8301,7945,9852,22363,23.592890625,129014,16.287943313044018,999.2947401806492,0,,,,N/A
2024-03-17T16:26:23,-0.9990034354999999,2.4825534474999995,9.7208418125,0.04046982203061852,0.00045814892864851157,-0.0433714319120591,0.04242,0.4529,-0.45164000000000004,16.5,0,8301,7945,9852,22363,23.592890625,129014,16.287943313044018,999.2947401806492,0,,,,N/A
2024-03-17T16:26:23,-1.0253244841,2.4813570361999995,9.785448022699999,0.041080687268816536,0.0007635815477475193,-0.041996985126113565,0.03962,0.45094000000000006,-0.44814000000000004,15.5,0,8301,7945,9852,22363,23.592890625,129014,16.287943313044018,999.2947401806492,0,,,,N/A
2024-03-17T16:26:24,-1.0444670649,2.4586252214999997,9.762716207999999,0.03924809155422249,0.0019853120241435504,-0.04428772976935611,0.032060000000000005,0.4537400000000001,-0.4508000000000001,16.5,0,8252,7907,9804,22239,23.42140625,128327,16.32950110328974,999.2973481510769,0,,,,N/A
2024-03-17T16:26:24,-0.9451649269999999,2.4502503424,9.748957478049999,0.03802636107782646,0.0012217304763960308,-0.04612032548395016,0.0371,0.4641,-0.4461800000000001,15.5,0,8252,7907,9804,22239,23.42140625,128327,16.32950110328974,999.2973481510769,0,,,,N/A
2024-03-17T16:26:24,-0.98404829425,2.4526431649999996,9.725627457699998,0.040317105721069016,-0.001069014166846527,-0.04444044607890562,0.038220000000000004,0.45626000000000005,-0.4491200000000001,15.5,0,8252,7907,9804,22239,23.42140625,128327,16.32950110328974,999.2973481510769,0,,,,N/A
2024-03-17T16:26:24,-0.9966106129,2.46999112885,9.72981489725,0.041386119887915546,0.0018325957145940463,-0.041691552507014555,0.038220000000000004,0.45626000000000005,-0.4491200000000001,15.5,0,8206,7868,9760,22123,23.42140625,128327,16.32950110328974,999.2973481510769,0,,,,N/A
2024-03-17T16:26:24,-0.9978070242,2.44845572545,9.748359272399998,0.04627304179349966,0.0036651914291880926,-0.04886921905584123,0.032060000000000005,0.45514000000000004,-0.45458000000000004,15.5,0,8206,7868,9760,22123,23.42140625,128327,16.32950110328974,999.2973481510769,0,,,,N/A
2024-03-17T16:26:25,-0.9954142015999999,2.4496521367499997,9.74776106675,0.03756821214917795,0.00045814892864851157,-0.04505131131710364,0.039900000000000005,0.45654,-0.45220000000000005,16.5,0,8159,7828,9711,22000,23.276484375,127167,16.342354866859186,999.3041148881371,0,,,,N/A
2024-03-17T16:26:25,-0.9882357337999998,2.48674088705,9.780064171849999,0.04153883619746505,-0.002138028333693054,-0.04734205596034619,0.03626000000000001,0.4596200000000001,-0.44282000000000005,15.5,0,8159,7828,9711,22000,23.276484375,127167,16.342354866859186,999.3041148881371,0,,,,N/A
2024-03-17T16:26:25,-1.0354939801499998,2.4634108667000003,9.72024360685,0.039095375244672985,-0.001069014166846527,-0.04520402762665314,0.03934,0.44758000000000003,-0.4461800000000001,15.5,0,8159,7828,9711,22000,23.276484375,127167,16.342354866859186,999.3041148881371,0,,,,N/A
2024-03-17T16:26:25,-1.0689934965499999,2.46999112885,9.713663344699999,0.04001167310197001,0.00045814892864851157,-0.04428772976935611,0.03934,0.44758000000000003,-0.4461800000000001,15.5,0,8159,7828,9711,22000,23.276484375,127167,16.342354866859186,999.3041148881371,0,,,,N/A
2024-03-17T16:26:25,-1.0265208954,2.31565407115,9.69272614695,0.039400807863771994,-0.0035124751196385882,-0.04673119072214818,0.0413,0.4601800000000001,-0.4459,15.5,0,8159,7828,9711,22000,23.276484375,127167,16.342354866859186,999.3041148881371,0,,,,N/A
2024-03-17T16:26:25,-1.03310115755,2.47358036275,9.687342296099999,0.0357356164345839,-0.001069014166846527,-0.04046982203061852,0.032900000000000006,0.4596200000000001,-0.4494,15.5,0,8159,7828,9711,22000,23.276484375,127167,16.342354866859186,999.3041148881371,0,,,,N/A
2024-03-17T16:26:25,-1.0199406332499998,2.4670001006,9.812367276949999,0.039400807863771994,-0.0006108652381980154,-0.041386119887915546,0.032900000000000006,0.4596200000000001,-0.4494,15.5,0,8159,7828,9711,22000,23.1563671875,128327,16.38143215653001,999.3086725768314,0,,,,N/A
2024-03-17T16:26:26,-1.0851450490999999,2.4490539311,9.669396126599999,0.038331793696925465,0.0006108652381980154,-0.04550946024575215,0.03878,0.46046000000000004,-0.44044000000000005,15.5,0,8102,7784,9655,21858,23.292109375,138320,16.443184338241654,999.2834603769502,0,,,,N/A
2024-03-17T16:26:26,-1.0348957745,2.42692032205,9.6801638283,0.036499197982331415,0.0009162978572970231,-0.04413501345980661,0.03542,0.4571,-0.4508000000000001,15.5,0,8102,7784,9655,21858,23.292109375,138320,16.443184338241654,999.2834603769502,0,,,,N/A
2024-03-17T16:26:26,-0.9990034354999999,2.4472593141499996,9.726823868999999,0.04276056667386108,0.0033597588100890844,-0.04596760917440065,0.0371,0.45878,-0.4501,16.5,0,8102,7784,9655,21858,23.292109375,138320,16.443184338241654,999.2834603769502,0,,,,N/A
2024-03-17T16:26:26,-1.0061819033,2.4658036893,9.74776106675,0.039858956792420505,0.0003054326190990077,-0.04474587869800463,0.0371,0.45878,-0.4501,15.5,0,8102,7784,9655,21858,23.292109375,138320,16.443184338241654,999.2834603769502,0,,,,N/A
2024-03-17T16:26:26,-1.02352986715,2.4382862293999996,9.729216691599998,0.04046982203061852,0.0038179077387375964,-0.04550946024575215,0.033460000000000004,0.45626000000000005,-0.43456000000000006,16.5,0,8102,7784,9655,21858,23.292109375,138320,16.443184338241654,999.2834603769502,0,,,,N/A
2024-03-17T16:26:27,-1.0528419439999999,2.44008084635,9.762716207999999,0.04276056667386108,-0.0015271630954950385,-0.04474587869800463,0.0441,0.44842000000000004,-0.45304,15.5,0,7970,7684,9536,21555,23.23390625,134784,16.440297829876176,999.2967665813661,0,,,,N/A
2024-03-17T16:26:27,-1.0289137179999999,2.4418754632999997,9.6885387074,0.04092797095926703,-0.00045814892864851157,-0.04657847441259867,0.04102,0.45598,-0.43736,15.5,0,7970,7684,9536,21555,23.23390625,134784,16.440297829876176,999.2967665813661,0,,,,N/A
2024-03-17T16:26:27,-1.0193424276,2.44606290285,9.712466933399998,0.043676864531158106,-0.0022907446432425577,-0.04444044607890562,0.04102,0.45598,-0.43736,15.5,0,7970,7684,9536,21555,23.23390625,134784,16.440297829876176,999.2967665813661,0,,,,N/A
2024-03-17T16:26:27,-1.0564311779,2.4526431649999996,9.766305441899998,0.04016438941151951,0.002138028333693054,-0.04077525464971753,0.04354000000000001,0.45542,-0.43638000000000005,15.5,0,7970,7684,9536,21555,23.23390625,134784,16.440297829876176,999.2967665813661,0,,,,N/A
2024-03-17T16:26:27,-0.9912267620499999,2.4717857457999997,9.77049288145,0.04276056667386108,0.003054326190990077,-0.04489859500755413,0.03234,0.45878,-0.43596,15.5,0,7970,7684,9536,21555,23.23390625,134784,16.440297829876176,999.2967665813661,0,,,,N/A
2024-03-17T16:26:28,-0.9726823868999999,2.43768802375,9.687940501749999,0.04382958084070761,0.0009162978572970231,-0.041844268816564056,0.03626000000000001,0.45822,-0.45402000000000003,15.5,0,7903,7629,9469,21389,23.1251171875,132249,16.459924465981487,999.3038176393425,0,,,,N/A
2024-03-17T16:26:28,-1.0037890807,2.4586252214999997,9.72981489725,0.04260785036431157,0.0022907446432425577,-0.041080687268816536,0.03458000000000001,0.46214000000000005,-0.44338000000000005,16.5,0,7903,7629,9469,21389,23.1251171875,132249,16.459924465981487,999.3038176393425,0,,,,N/A
2024-03-17T16:26:28,-1.0145567824,2.4418754632999997,9.750752095,0.03543018381548489,-0.0006108652381980154,-0.04245513405476207,0.03458000000000001,0.46214000000000005,-0.44338000000000005,15.5,0,7903,7629,9469,21389,23.1251171875,132249,16.459924465981487,999.3038176393425,0,,,,N/A
2024-03-17T16:26:28,-1.0803594039,2.4538395763,9.6993064091,0.04077525464971753,0.0009162978572970231,-0.04657847441259867,0.033460000000000004,0.45766,-0.4426800000000001,15.5,0,7903,7629,9469,21389,23.1251171875,132249,16.459924465981487,999.3038176393425,0,,,,N/A
2024-03-17T16:26:28,-0.97328059255,2.4281167333499996,9.758528768449999,0.041080687268816536,-0.0013744467859455349,-0.04489859500755413,0.037380000000000004,0.45402000000000003,-0.43442000000000003,15.5,0,7903,7629,9469,21389,23.1251171875,132249,16.459924465981487,999.3038176393425,0,,,,N/A
2024-03-17T16:26:29,-1.03070833495,2.4562323989,9.66281586445,0.0025961772623415654,0.0,-0.04092797095926703,0.030660000000000003,0.44646,-0.44604000000000005,15.5,0,7766,7515,9334,21056,23.0270703125,131836,16.47507726943292,999.3141514884751,0,,,,N/A
2024-03-17T16:26:29,-1.0372885971,2.46520548365,9.725627457699998,0.0006108652381980154,0.002901609881440573,-0.041386119887915546,0.04018000000000001,0.45346000000000003,-0.4432400000000001,15.5,0,7766,7515,9334,21056,23.0270703125,131836,16.47507726943292,999.3141514884751,0,,,,N/A
2024-03-17T16:26:29,-1.0193424276,2.4472593141499996,9.780064171849999,0.03756821214917795,0.002138028333693054,-0.04474587869800463,0.03486000000000001,0.45150000000000007,-0.44688000000000005,15.5,0,7766,7515,9334,21056,23.0270703125,131836,16.47507726943292,999.3141514884751,0,,,,N/A
2024-03-17T16:26:29,-1.00797652025,2.45563419325,9.769894675799998,0.04230241774521256,0.00015271630954950385,-0.043676864531158106,0.042140000000000004,0.45094000000000006,-0.45066,15.5,0,7766,7515,9334,21056,23.0270703125,131836,16.47507726943292,999.3141514884751,0,,,,N/A
2024-03-17T16:26:29,-1.0193424276,2.4933211492,9.723234635099999,0.041386119887915546,0.0013744467859455349,-0.04612032548395016,0.04018000000000001,0.4467400000000001,-0.44156000000000006,15.5,0,7766,7515,9334,21056,23.0270703125,131836,16.47507726943292,999.3141514884751,0,,,,N/A
2024-03-17T16:26:30,-1.0049854919999999,2.4681965119,9.75374312325,0.038942658935123484,-0.00045814892864851157,-0.043676864531158106,0.038500000000000006,0.44870000000000004,-0.44002,15.5,0,7709,7466,9275,20915,22.9415234375,131017,16.52087162192984,999.3146853157592,0,,,,N/A
2024-03-17T16:26:30,-0.9696913586499999,2.4562323989,9.690931529999999,0.04245513405476207,0.00045814892864851157,-0.04077525464971753,0.04046,0.44478,-0.44688000000000005,15.5,0,7709,7466,9275,20915,22.9415234375,131017,16.52087162192984,999.3146853157592,0,,,,N/A
2024-03-17T16:26:30,-1.04745809315,2.4532413706500003,9.727422074649999,0.03634648167278191,-0.03802636107782646,-0.038942658935123484,0.04354000000000001,0.44646,-0.44086000000000003,15.5,0,7709,7466,9275,20915,22.9415234375,131017,16.52087162192984,999.3146853157592,0,,,,N/A
2024-03-17T16:26:30,-1.0115657541499998,2.4251257050999997,9.716056167299998,0.0435241482216086,0.0009162978572970231,-0.039706240482871004,0.0413,0.4461800000000001,-0.4432400000000001,15.5,0,7709,7466,9275,20915,22.9415234375,131017,16.52087162192984,999.3146853157592,0,,,,N/A
2024-03-17T16:26:30,-1.0097711372,2.45563419325,9.748957478049999,0.041844268816564056,0.00045814892864851157,-0.04444044607890562,0.0413,0.4461800000000001,-0.4432400000000001,15.5,0,7709,7466,9275,20915,22.9415234375,131017,16.52087162192984,999.3146853157592,0,,,,N/A
2024-03-17T16:26:30,-0.9948159959499998,2.416750826,9.780064171849999,0.039095375244672985,0.004581489286485115,-0.04214970143566306,0.03654,0.45514000000000004,-0.43750000000000006,15.5,0,7709,7466,9275,20915,22.9415234375,131017,16.52087162192984,999.3146853157592,0,,,,N/A
2024-03-17T16:26:30,-1.0360921857999998,2.44008084635,9.735198748099998,0.04016438941151951,-0.0012217304763960308,-0.043676864531158106,0.04186000000000001,0.45346000000000003,-0.44254000000000004,15.5,0,7709,7466,9275,20915,22.8680859375,131528,16.557260377114865,999.3065733018858,0,,,,N/A
2024-03-17T16:26:31,-0.9816554716499999,2.4472593141499996,9.723234635099999,0.039553524173321496,0.0016798794050445422,-0.040317105721069016,0.038220000000000004,0.44310000000000005,-0.43918000000000007,15.5,0,7662,7427,9229,20793,23.0403515625,142285,16.635968286036857,999.2701824167227,0,,,,N/A
2024-03-17T16:26:31,-0.9810572659999999,2.4813570361999995,9.752546711949998,0.03695734691097993,-0.0006108652381980154,-0.0433714319120591,0.03626000000000001,0.45066,-0.44772,15.5,0,7662,7427,9229,20793,23.0403515625,142285,16.635968286036857,999.2701824167227,0,,,,N/A
2024-03-17T16:26:31,-1.0025926694,2.45802701585,9.681958445249998,0.040622538340168025,0.00045814892864851157,-0.04306599929296009,0.0371,0.4461800000000001,-0.44254000000000004,15.5,0,7662,7427,9229,20793,23.0403515625,142285,16.635968286036857,999.2701824167227,0,,,,N/A
2024-03-17T16:26:31,-1.0187442219499998,2.42931314465,9.72383284075,0.038331793696925465,-0.0036651914291880926,-0.04321871560250959,0.037380000000000004,0.44534,-0.44394000000000006,15.5,0,7624,7398,9190,20701,23.0403515625,142285,16.635968286036857,999.2701824167227,0,,,,N/A
2024-03-17T16:26:31,-1.0241280728,2.4346969955,9.7686982645,0.04260785036431157,-0.0003054326190990077,-0.04673119072214818,0.03794,0.45038000000000006,-0.43806000000000006,16.5,0,7624,7398,9190,20701,23.0403515625,142285,16.635968286036857,999.2701824167227,0,,,,N/A
2024-03-17T16:26:32,-0.9906285563999999,2.48793729835,9.759126974099999,0.03741549583962844,0.0019853120241435504,-0.04673119072214818,0.03458000000000001,0.4397400000000001,-0.43358,15.5,0,7591,7376,9162,20624,23.01359375,138661,16.61959941774226,999.2744187689185,0,,,,N/A
2024-03-17T16:26:32,-0.9320044027,2.4424736689499995,9.6705925379,0.039858956792420505,0.0,-0.039553524173321496,0.028140000000000005,0.4529,-0.44128,15.5,0,7591,7376,9162,20624,23.01359375,138661,16.61959941774226,999.2744187689185,0,,,,N/A
2024-03-17T16:26:32,-1.0061819033,2.4628126610499996,9.7615197967,0.03497203488683638,-0.0027488935718910697,-0.039400807863771994,0.034300000000000004,0.45178,-0.44184,15.5,0,7591,7376,9162,20624,23.01359375,138661,16.61959941774226,999.2744187689185,0,,,,N/A
2024-03-17T16:26:32,-0.9888339394499999,2.47477677405,9.701101026049999,0.04505131131710364,-0.0015271630954950385,-0.04382958084070761,0.03626000000000001,0.4461800000000001,-0.44212000000000007,15.5,0,7591,7376,9162,20624,23.01359375,138661,16.61959941774226,999.2744187689185,0,,,,N/A
2024-03-17T16:26:32,-1.0205388389,2.4550359876,9.717850784249999,0.038484510006474966,0.0018325957145940463,-0.04214970143566306,0.03626000000000001,0.4461800000000001,-0.44212000000000007,15.5,0,7591,7376,9162,20624,23.01359375,138661,16.61959941774226,999.2744187689185,0,,,,N/A
2024-03-17T16:26:33,-1.0217352502,2.4514467537,9.721440018149998,0.07681630370340044,-0.005039638215133627,-0.04505131131710364,0.03234,0.46102000000000004,-0.43666000000000005,15.5,0,7567,7363,9141,20568,22.930390625,136309,16.63046990828344,999.278777749105,0,,,,N/A
2024-03-17T16:26:33,-1.0516455326999998,2.6021945774999997,9.754341328899999,0.04016438941151951,-0.0006108652381980154,-0.04153883619746505,0.0371,0.45346000000000003,-0.43820000000000003,15.5,0,7567,7363,9141,20568,22.930390625,136309,16.63046990828344,999.278777749105,0,,,,N/A
2024-03-17T16:26:33,-1.0013962581,2.4490539311,9.7375915707,0.04459316238845512,-0.0012217304763960308,-0.04550946024575215,0.041580000000000006,0.44562000000000007,-0.43414,15.5,0,7567,7363,9141,20568,22.930390625,136309,16.63046990828344,999.278777749105,0,,,,N/A
2024-03-17T16:26:33,-0.9409774874499999,2.4490539311,9.669994332249999,0.03741549583962844,-0.0018325957145940463,-0.04214970143566306,0.039060000000000004,0.44926000000000005,-0.4478600000000001,15.5,0,7567,7363,9141,20568,22.930390625,136309,16.63046990828344,999.278777749105,0,,,,N/A
2024-03-17T16:26:33,-0.99242317335,2.4514467537,9.735198748099998,0.04092797095926703,0.0013744467859455349,-0.04413501345980661,0.039060000000000004,0.44926000000000005,-0.4478600000000001,15.5,0,7567,7363,9141,20568,22.930390625,136309,16.63046990828344,999.278777749105,0,,,,N/A
2024-03-17T16:26:34,-0.9762716207999999,2.4604198384499996,9.7016992317,0.04489859500755413,-0.00015271630954950385,-0.04489859500755413,0.03682,0.4478600000000001,-0.44226000000000004,16.5,0,7557,7366,9132,20542,22.8501171875,135216,16.641485697623864,999.2843395598471,0,,,,N/A
2024-03-17T16:26:34,-1.04985091575,2.4741785683999997,9.721440018149998,0.04214970143566306,-0.0015271630954950385,-0.04535674393620265,0.03934,0.4537400000000001,-0.44394000000000006,15.5,0,7557,7366,9132,20542,22.8501171875,135216,16.641485697623864,999.2843395598471,0,,,,N/A
2024-03-17T16:26:34,-1.0199406332499998,2.4496521367499997,9.72981489725,0.039095375244672985,0.005039638215133627,-0.039400807863771994,0.03122,0.4473000000000001,-0.43064,16.5,0,7557,7366,9132,20542,22.8501171875,135216,16.641485697623864,999.2843395598471,0,,,,N/A
2024-03-17T16:26:34,-0.9433703100499999,2.4418754632999997,9.7399843933,0.04474587869800463,0.0022907446432425577,-0.04596760917440065,0.03122,0.4473000000000001,-0.43064,15.5,0,7557,7366,9132,20542,22.8501171875,135216,16.641485697623864,999.2843395598471,0,,,,N/A
2024-03-17T16:26:34,-1.0432706536,2.4825534474999995,9.72024360685,0.040622538340168025,-0.001069014166846527,-0.04505131131710364,0.030660000000000003,0.45514000000000004,-0.4397400000000001,15.5,0,7557,7366,9132,20542,22.8501171875,135216,16.641485697623864,999.2843395598471,0,,,,N/A
2024-03-17T16:26:35,-0.97567341515,2.4586252214999997,9.7375915707,0.040317105721069016,-0.001069014166846527,-0.04321871560250959,0.04186000000000001,0.45766,-0.44128,15.5,0,7557,7370,9128,20537,22.7809765625,135216,16.663074412783686,999.2920833386098,0,,,,N/A
2024-03-17T16:26:35,-1.0211370445499999,2.4251257050999997,9.749555683699999,0.03436116964863837,-0.0016798794050445422,-0.04306599929296009,0.04438,0.45654,-0.45178,15.5,0,7557,7370,9128,20537,22.7809765625,135216,16.663074412783686,999.2920833386098,0,,,,N/A
2024-03-17T16:26:35,-1.0133603711,2.4251257050999997,9.72981489725,0.04245513405476207,0.003054326190990077,-0.0433714319120591,0.03458000000000001,0.45794000000000007,-0.43932000000000004,15.5,0,7557,7370,9128,20537,22.7809765625,135216,16.663074412783686,999.2920833386098,0,,,,N/A
2024-03-17T16:26:35,-1.0396814197,2.42692032205,9.744171832849998,0.038942658935123484,-0.0009162978572970231,-0.041996985126113565,0.03458000000000001,0.45794000000000007,-0.43932000000000004,15.5,0,7557,7370,9128,20537,22.7809765625,135216,16.663074412783686,999.2920833386098,0,,,,N/A
2024-03-17T16:26:35,-1.0025926694,2.4382862293999996,9.77288570405,0.04260785036431157,0.0013744467859455349,-0.041691552507014555,0.038220000000000004,0.4473000000000001,-0.4548600000000001,15.5,0,7557,7370,9128,20537,22.7809765625,135216,16.663074412783686,999.2920833386098,0,,,,N/A
2024-03-17T16:26:35,-1.0229316615,2.4622144553999994,9.780064171849999,0.039095375244672985,0.00015271630954950385,-0.043982297150257116,0.038220000000000004,0.45598,-0.44338000000000005,15.5,0,7557,7370,9128,20537,22.7809765625,135216,16.663074412783686,999.2920833386098,0,,,,N/A
2024-03-17T16:26:35,-1.0540383553,2.4299113503,9.7340023368,0.03924809155422249,-0.0035124751196385882,-0.04459316238845512,0.038220000000000004,0.45598,-0.44702000000000003,15.5,0,7557,7370,9128,20537,22.721796875,134677,16.685160276238786,999.2930129479626,0,,,,N/A
2024-03-17T16:26:36,-0.9948159959499998,2.42931314465,9.75733235715,0.04046982203061852,-0.0015271630954950385,-0.04428772976935611,0.046340000000000006,0.4543000000000001,-0.44394000000000006,15.5,0,7605,7416,9171,20673,22.9055859375,143739,16.754523998665107,999.2684500901046,0,,,,N/A
2024-03-17T16:26:36,-1.0576275892,2.4239292938,9.78724263965,0.038789942625573975,0.0018325957145940463,-0.04657847441259867,0.042140000000000004,0.44646,-0.43610000000000004,15.5,0,7605,7416,9171,20673,22.9055859375,143739,16.754523998665107,999.2684500901046,0,,,,N/A
2024-03-17T16:26:36,-1.0121639597999998,2.4610180441,9.69033332435,0.039706240482871004,-0.002901609881440573,-0.041080687268816536,0.04354000000000001,0.45122,-0.44534,15.5,0,7605,7416,9171,20673,22.9055859375,143739,16.754523998665107,999.2684500901046,0,,,,N/A
2024-03-17T16:26:36,-1.08335043215,2.42452749945,9.72981489725,0.03527746750593539,0.001069014166846527,-0.04627304179349966,0.038500000000000006,0.45346000000000003,-0.4473000000000001,15.5,0,7605,7416,9171,20673,22.9055859375,143739,16.754523998665107,999.2684500901046,0,,,,N/A
2024-03-17T16:26:36,-1.0181460163,2.4000010678,9.78724263965,0.0433714319120591,0.0012217304763960308,-0.04550946024575215,0.038500000000000006,0.45346000000000003,-0.4473000000000001,15.5,0,7605,7416,9171,20673,22.9055859375,143739,16.754523998665107,999.2684500901046,0,,,,N/A
2024-03-17T16:26:37,-1.0342975688499998,2.4394826406999996,9.71067231645,0.041691552507014555,-0.038637226316024474,-0.04642575810304917,0.044660000000000005,0.4548600000000001,-0.44114000000000003,15.5,0,7652,7457,9211,20788,22.888203125,141569,16.738607939653466,999.2773284572224,0,,,,N/A
2024-03-17T16:26:37,-0.9511469834999998,2.4173490316499997,9.8045906035,0.040317105721069016,0.0013744467859455349,-0.04123340357836604,0.035980000000000005,0.45178,-0.4403000000000001,15.5,0,7652,7457,9211,20788,22.888203125,141569,16.738607939653466,999.2773284572224,0,,,,N/A
2024-03-17T16:26:37,-1.00199446375,2.4628126610499996,9.745368244149999,0.040622538340168025,0.0022907446432425577,-0.04306599929296009,0.03682,0.44926000000000005,-0.44492000000000004,16.5,0,7652,7457,9211,20788,22.888203125,141569,16.738607939653466,999.2773284572224,0,,,,N/A
2024-03-17T16:26:37,-1.0001998468,2.4436700802499995,9.735796953749999,0.038179077387375956,0.0016798794050445422,-0.040317105721069016,0.04018000000000001,0.44142000000000003,-0.44604000000000005,16.5,0,7652,7457,9211,20788,22.888203125,141569,16.738607939653466,999.2773284572224,0,,,,N/A
2024-03-17T16:26:37,-0.99601240725,2.4526431649999996,9.72981489725,0.04474587869800463,0.0006108652381980154,-0.04459316238845512,0.039060000000000004,0.4520600000000001,-0.44156000000000006,15.5,0,7652,7457,9211,20788,22.888203125,141569,16.738607939653466,999.2773284572224,0,,,,N/A
2024-03-17T16:26:38,-1.0504491214,2.4586252214999997,9.776474937949999,0.038789942625573975,0.0016798794050445422,-0.04276056667386108,0.035980000000000005,0.4585000000000001,-0.44632000000000005,16.5,0,7701,7497,9257,20917,22.8071484375,137980,16.734536799537903,999.2745059416532,0,,,,N/A
2024-03-17T16:26:38,-1.0013962581,2.4418754632999997,9.72981489725,0.040317105721069016,0.0025961772623415654,-0.04489859500755413,0.03962,0.4529,-0.43736,16.5,0,7701,7497,9257,20917,22.8071484375,137980,16.734536799537903,999.2745059416532,0,,,,N/A
2024-03-17T16:26:38,-1.00917293155,2.4454646972,9.7435736272,0.03665191429188092,-0.003054326190990077,-0.04123340357836604,0.0441,0.44814000000000004,-0.44492000000000004,15.5,0,7701,7497,9257,20917,22.8071484375,137980,16.734536799537903,999.2745059416532,0,,,,N/A
2024-03-17T16:26:38,-1.0241280728,2.4514467537,9.77767134925,0.038331793696925465,-0.0006108652381980154,-0.04321871560250959,0.035980000000000005,0.45094000000000006,-0.44702000000000003,15.5,0,7756,7542,9307,21063,22.8071484375,137980,16.734536799537903,999.2745059416532,0,,,,N/A
2024-03-17T16:26:38,-0.9984052298499999,2.4424736689499995,9.7196454012,0.04153883619746505,-0.0009162978572970231,-0.04550946024575215,0.0371,0.45346000000000003,-0.44044000000000005,15.5,0,7756,7542,9307,21063,22.8071484375,137980,16.734536799537903,999.2745059416532,0,,,,N/A
2024-03-17T16:26:39,-0.9954142015999999,2.4741785683999997,9.712466933399998,0.04260785036431157,0.001069014166846527,-0.043982297150257116,0.03178,0.44814000000000004,-0.44702000000000003,15.5,0,7822,7596,9370,21226,22.733515625,137980,16.76091457109174,999.274904098505,0,,,,N/A
2024-03-17T16:26:39,-0.9996016411499998,2.4681965119,9.6622176588,0.04123340357836604,0.0006108652381980154,-0.04214970143566306,0.04102,0.44702000000000003,-0.44702000000000003,15.5,0,7822,7596,9370,21226,22.733515625,137980,16.76091457109174,999.274904098505,0,,,,N/A
