Timestamp,Accel_X,Accel_Y,Accel_Z,Gyro_X,Gyro_Y,Gyro_Z,Mag_X,Mag_Y,Mag_Z,LSM9DS1_Temp,Proximity,Color_R,Color_G,Color_B,Color_C,BME680_Temp,Gas,Humidity,Pressure,Switch_Pressed,GPS_Latitude,GPS_Longitude,GPS_Speed,GPS_Timestamp
2024-03-23T21:45:48,2.4951157661499996,-1.16949204575,9.512666246299998,0.04077525464971753,-0.009773843811168246,-0.03359758810089085,0.43442000000000003,0.06846000000000001,-0.29092,7.5,7,0,0,0,0,33.574921875,21836,100,695.662002676745,0,,,,N/A
2024-03-23T21:45:48,2.5010978226500002,-1.1784651305,9.48335416945,0.03222314131494531,0.011606439525762293,-0.03726277953007894,0.44534,0.07098,-0.28854,7.5,7,0,0,0,0,33.574921875,21836,100,695.662002676745,0,,,,N/A
2024-03-23T21:45:48,2.4933211492,-1.1449656141,9.411569491449999,0.03604104905368291,0.009926560120717751,-0.0357356164345839,0.43778,0.062020000000000006,-0.27398,7.5,7,0,0,0,0,33.574921875,21836,100,695.662002676745,0,,,,N/A
2024-03-23T21:45:48,2.5070798791499995,-1.1617153723,9.51685368585,0.03634648167278191,0.007330382858376185,-0.03772092845872745,0.43946,0.07714,-0.28252000000000005,7.5,7,0,0,0,0,33.574921875,21836,100,695.662002676745,0,,,,N/A
2024-03-23T21:45:48,2.5004996169999996,-1.1509476706000001,9.49651469375,0.029626964052603746,0.015882496193148403,-0.03802636107782646,0.43946,0.07714,-0.28252000000000005,7.5,7,0,0,0,0,33.574921875,21836,100,695.662002676745,0,,,,N/A
2024-03-23T21:45:48,2.4981067943999995,-1.1796615417999998,9.4923272542,0.03329215548179184,0.009010262263420728,-0.03604104905368291,0.43694000000000005,0.07742,-0.29512,7.5,7,0,0,0,0,33.574921875,21836,100,695.662002676745,0,,,,N/A
2024-03-23T21:45:48,2.5064816734999997,-1.17667051355,9.560522698299998,0.03420845333908886,0.014813482026301873,-0.03359758810089085,0.43750000000000006,0.06958000000000002,-0.2863,7.5,7,0,0,0,0,33.574921875,21836,100,695.662002676745,0,,,,N/A
2024-03-23T21:45:48,2.5214368147499995,-1.184447187,9.5198447141,0.03588833274413341,0.01466076571675237,-0.03313943917224234,0.43750000000000006,0.06958000000000002,-0.2863,7.5,7,0,0,0,0,14.4040234375,2348,37.262458464054305,1008.7396703055568,0,,,,N/A
2024-03-23T21:45:48,2.4514467537,-1.1832507757,9.523433948,0.038484510006474966,0.003054326190990077,-0.03283400655314333,0.43246,0.06678,-0.28672000000000003,7.5,7,0,0,0,0,14.4040234375,2348,37.262458464054305,1008.7396703055568,0,,,,N/A
2024-03-23T21:45:48,2.5351955446999996,-1.16949204575,9.457033120849998,0.03298672286269283,0.0070249502392771765,-0.03543018381548489,0.43246,0.06678,-0.28672000000000003,7.5,7,0,0,0,0,14.4040234375,2348,37.262458464054305,1008.7396703055568,0,,,,N/A
2024-03-23T21:45:48,2.5339991334,-1.1814561587499999,9.478568524249999,0.03604104905368291,0.006719517620178169,-0.036193765363232405,0.43946,0.07742,-0.27986,7.5,7,0,0,0,0,14.4040234375,2348,37.262458464054305,1008.7396703055568,0,,,,N/A
2024-03-23T21:45:48,2.52502604865,-1.1563315214499998,9.49890751635,0.03527746750593539,0.00946841119206924,-0.03390302071998985,0.43862000000000007,0.07462,-0.2968,7.5,7,0,0,0,0,14.4040234375,2348,37.262458464054305,1008.7396703055568,0,,,,N/A
2024-03-23T21:45:48,2.5082762904499996,-1.1904292435,9.47497929035,0.039706240482871004,0.006719517620178169,-0.037110063220529434,0.43862000000000007,0.07462,-0.2968,6.5,7,0,0,0,0,14.4040234375,2348,37.262458464054305,1008.7396703055568,0,,,,N/A
2024-03-23T21:45:48,2.4885355039999997,-1.1437692027999997,9.562317315249999,0.03481931857728687,0.005039638215133627,-0.03451388595818787,0.43694000000000005,0.06706000000000001,-0.28462,7.5,7,0,0,0,0,14.6454296875,3312,37.34255091414005,1008.7435141603547,0,,,,N/A
2024-03-23T21:45:48,2.5052852621999997,-1.1706884570499998,9.45224747565,0.03436116964863837,0.006719517620178169,-0.03604104905368291,0.43610000000000004,0.06930000000000001,-0.29932000000000003,7.5,7,0,0,0,0,14.6454296875,3312,37.34255091414005,1008.7435141603547,0,,,,N/A
2024-03-23T21:45:48,2.5178475808499994,-1.1557333157999998,9.3631148338,0.03634648167278191,0.006261368691529657,-0.03237585762449482,0.43610000000000004,0.0707,-0.29386,7.5,7,0,0,0,0,14.6454296875,3312,37.34255091414005,1008.7435141603547,0,,,,N/A
2024-03-23T21:45:48,2.5010978226500002,-1.15992075535,9.4923272542,0.037110063220529434,0.007330382858376185,-0.03359758810089085,0.43358,0.0707,-0.29386,7.5,7,0,0,0,0,14.6454296875,3312,37.34255091414005,1008.7435141603547,0,,,,N/A
2024-03-23T21:45:48,2.5016960282999996,-1.1653046061999999,9.5066841898,0.03298672286269283,0.0054977871437821395,-0.03268129024359383,0.43470000000000003,0.0777,-0.2898,7.5,7,0,0,0,0,14.6454296875,3312,37.34255091414005,1008.7435141603547,0,,,,N/A
2024-03-23T21:45:48,2.4957139718,-1.1497512592999999,9.57188860565,0.03512475119638588,0.005192354524683131,-0.03512475119638588,0.43554000000000004,0.0735,-0.28252000000000005,7.5,7,0,0,0,0,14.6454296875,3312,37.34255091414005,1008.7435141603547,0,,,,N/A
2024-03-23T21:45:48,2.5208386090999992,-1.1730812796499999,9.4911308429,0.03466660226773738,0.0070249502392771765,-0.03375030441044035,0.43554000000000004,0.0735,-0.28252000000000005,7.5,7,0,0,0,0,14.999921875,4111,37.421728491793374,1008.7527947047397,0,,,,N/A
2024-03-23T21:45:48,2.5441686294499997,-1.1676974288,9.495916488099999,0.041080687268816536,0.006719517620178169,-0.03802636107782646,0.44114000000000003,0.06538000000000001,-0.2863,7.5,7,1231,619,439,2110,14.999921875,4111,37.421728491793374,1008.7527947047397,0,,,,N/A
2024-03-23T21:45:48,2.46879471755,-1.17427769095,9.5042913672,0.03466660226773738,0.007941248096574201,-0.03420845333908886,0.43442000000000003,0.06930000000000001,-0.28952000000000006,7.5,7,1231,619,439,2110,14.999921875,4111,37.421728491793374,1008.7527947047397,0,,,,N/A
2024-03-23T21:45:48,2.5100709073999994,-1.1569297271,9.50130033895,0.039400807863771994,0.007941248096574201,-0.03283400655314333,0.44394000000000006,0.06426000000000001,-0.27958000000000005,7.5,7,1231,619,439,2110,14.999921875,4111,37.421728491793374,1008.7527947047397,0,,,,N/A
2024-03-23T21:45:48,2.5196421977999996,-1.1874382152499998,9.48455058075,0.036499197982331415,0.007330382858376185,-0.03466660226773738,0.44422,0.06930000000000001,-0.28994000000000003,7.5,7,1231,619,439,2110,14.999921875,4111,37.421728491793374,1008.7527947047397,0,,,,N/A
2024-03-23T21:45:48,2.4777678023,-1.13958176325,9.5007021333,0.031764992386296806,0.011301006906663285,-0.036499197982331415,0.44422,0.06930000000000001,-0.28994000000000003,7.5,7,1231,619,439,2110,14.999921875,4111,37.421728491793374,1008.7527947047397,0,,,,N/A
2024-03-23T21:45:48,2.5328027221,-1.1198409767999997,9.598807859899999,0.04230241774521256,0.007330382858376185,-0.0355829001250344,0.44450000000000006,0.07266000000000002,-0.28938,7.5,7,1231,619,439,2110,15.3743359375,4898,37.479817809873964,1008.7595531752307,0,,,,N/A
2024-03-23T21:45:48,2.5172493751999996,-1.1551351101499998,9.3990071728,0.03268129024359383,0.002138028333693054,-0.03375030441044035,0.44086000000000003,0.06930000000000001,-0.27902000000000005,7.5,7,1231,619,439,2110,15.3743359375,4898,37.479817809873964,1008.7595531752307,0,,,,N/A
2024-03-23T21:45:48,2.4664018949499997,-1.1784651305,9.49292545985,0.03359758810089085,0.00946841119206924,-0.03390302071998985,0.43778,0.07882,-0.2933,7.5,7,1231,619,439,2110,15.3743359375,4898,37.479817809873964,1008.7595531752307,0,,,,N/A
2024-03-23T21:45:49,2.5040888509,-1.1647064005499999,9.4923272542,0.03466660226773738,0.007941248096574201,-0.03252857393404432,0.44114000000000003,0.06762,-0.287,7.5,7,1231,619,439,2110,15.3743359375,4898,37.479817809873964,1008.7595531752307,0,,,,N/A
2024-03-23T21:45:49,2.48913370965,-1.1808579531,9.482157758149999,0.03802636107782646,0.0038179077387375964,-0.03466660226773738,0.43946,0.0735,-0.28070000000000006,7.5,7,1231,619,439,2110,15.3743359375,4898,37.479817809873964,1008.7595531752307,0,,,,N/A
2024-03-23T21:45:49,2.5339991334,-1.1653046061999999,9.463613383,0.03405573702953936,0.007483099167925688,-0.03527746750593539,0.43946,0.0735,-0.28070000000000006,7.5,7,1231,619,439,2110,15.3743359375,4898,37.479817809873964,1008.7595531752307,0,,,,N/A
2024-03-23T21:45:49,2.5160529638999996,-1.1647064005499999,9.463613383,0.03772092845872745,0.006414085001079162,-0.0355829001250344,0.43722000000000005,0.07210000000000001,-0.27720000000000006,7.5,7,1231,619,439,2110,15.3743359375,4898,37.479817809873964,1008.7595531752307,0,,,,N/A
2024-03-23T21:45:49,2.49272294355,-1.1623135779499998,9.517451891499999,0.03436116964863837,0.009621127501618741,-0.03451388595818787,0.43162000000000006,0.07126,-0.28322,7.5,7,1231,619,439,2110,15.7313671875,5677,37.52487515286273,1008.7719283464986,0,,,,N/A
2024-03-23T21:45:49,2.4622144553999994,-1.1892328321999999,9.490532637249999,0.03375030441044035,0.005192354524683131,-0.03634648167278191,0.43302,0.06986000000000002,-0.27328,7.5,7,1231,619,439,2110,15.7313671875,5677,37.52487515286273,1008.7719283464986,0,,,,N/A
2024-03-23T21:45:49,2.4897319152999997,-1.1820543644,9.48813981465,0.03543018381548489,0.0036651914291880926,-0.03329215548179184,0.43246,0.06818,-0.28854,7.5,7,1231,619,439,2110,15.7313671875,5677,37.52487515286273,1008.7719283464986,0,,,,N/A
2024-03-23T21:45:49,2.4628126610499996,-1.1222337993999998,9.46181876605,0.03420845333908886,0.015118914645400881,-0.03604104905368291,0.43246,0.06818,-0.28854,7.5,7,1231,619,439,2110,15.7313671875,5677,37.52487515286273,1008.7719283464986,0,,,,N/A
2024-03-23T21:45:49,2.5142583469499997,-1.17667051355,9.4791667299,0.0357356164345839,0.008552113334772215,-0.03375030441044035,0.43862000000000007,0.07154,-0.29246000000000005,7.5,7,1231,619,439,2110,15.7313671875,5677,37.52487515286273,1008.7719283464986,0,,,,N/A
2024-03-23T21:45:49,2.5172493751999996,-1.1964112999999998,9.48933622595,0.03420845333908886,0.011301006906663285,-0.03283400655314333,0.43246,0.07406,-0.29848,7.5,7,1231,619,439,2110,15.7313671875,5677,37.52487515286273,1008.7719283464986,0,,,,N/A
2024-03-23T21:45:49,2.48554447575,-1.1772687192,9.449854653049998,0.03634648167278191,0.003970624048287101,-0.03497203488683638,0.43246,0.07406,-0.29848,7.5,7,1231,619,439,2110,15.7313671875,5677,37.52487515286273,1008.7719283464986,0,,,,N/A
2024-03-23T21:45:49,2.4933211492,-1.1922238604499997,9.49412187115,0.04046982203061852,0.012064588454410803,-0.03359758810089085,0.43918000000000007,0.07014,-0.2888200000000001,7.5,7,1231,619,439,2110,16.0544140625,6405,37.561086186085326,1008.7764958326303,0,,,,N/A
2024-03-23T21:45:49,2.4801606249,-1.184447187,9.48455058075,0.03390302071998985,0.005803219762881146,-0.03268129024359383,0.43078000000000005,0.06902000000000001,-0.27636,7.5,7,1231,619,439,2110,16.0544140625,6405,37.561086186085326,1008.7764958326303,0,,,,N/A
2024-03-23T21:45:49,2.5070798791499995,-1.1665010175,9.4947200768,0.03252857393404432,0.01069014166846527,-0.03436116964863837,0.43078000000000005,0.06902000000000001,-0.27636,7.5,7,1231,619,439,2110,16.0544140625,6405,37.561086186085326,1008.7764958326303,0,,,,N/A
2024-03-23T21:45:49,2.5830519966999996,-1.1940184774,9.485746992049998,0.03741549583962844,0.005192354524683131,-0.03298672286269283,0.43946,0.06762,-0.27972,6.5,7,1231,619,439,2110,16.0544140625,6405,37.561086186085326,1008.7764958326303,0,,,,N/A
2024-03-23T21:45:49,2.5142583469499997,-1.1688938401,9.512666246299998,0.036193765363232405,0.007788531787024696,-0.03390302071998985,0.43834,0.0735,-0.29512,7.5,7,1231,619,439,2110,16.0544140625,6405,37.561086186085326,1008.7764958326303,0,,,,N/A
2024-03-23T21:45:49,2.5004996169999996,-1.1736794852999999,9.48933622595,0.04230241774521256,0.006261368691529657,-0.036804630601430424,0.43834,0.0735,-0.29512,7.5,7,1231,619,439,2110,16.0544140625,6405,37.561086186085326,1008.7764958326303,0,,,,N/A
2024-03-23T21:45:49,2.4993032057,-1.14317099715,9.5294160045,0.038789942625573975,0.008552113334772215,-0.03436116964863837,0.43806000000000006,0.06902000000000001,-0.28462,7.5,7,1231,619,439,2110,16.33703125,7283,37.564570372553504,1008.7837689146039,0,,,,N/A
2024-03-23T21:45:49,2.49272294355,-1.1682956344499997,9.5066841898,0.03741549583962844,0.008093964406123704,-0.03772092845872745,0.43918000000000007,0.07182000000000001,-0.29442,7.5,7,1230,619,439,2110,16.33703125,7283,37.564570372553504,1008.7837689146039,0,,,,N/A
2024-03-23T21:45:49,2.48554447575,-1.1641081949,9.475577496,0.03802636107782646,0.009926560120717751,-0.03436116964863837,0.43302,0.07098,-0.28434000000000004,7.5,7,1230,619,439,2110,16.33703125,7283,37.564570372553504,1008.7837689146039,0,,,,N/A
2024-03-23T21:45:49,2.5208386090999992,-1.19342027175,9.48335416945,0.03604104905368291,0.012217304763960308,-0.03451388595818787,0.43302,0.07098,-0.28434000000000004,7.5,7,1230,619,439,2110,16.33703125,7283,37.564570372553504,1008.7837689146039,0,,,,N/A
2024-03-23T21:45:49,2.5160529638999996,-1.1748758966,9.4911308429,0.03420845333908886,0.009315694882519735,-0.03436116964863837,0.42742,0.07126,-0.2926,7.5,7,1230,619,439,2110,16.33703125,7283,37.564570372553504,1008.7837689146039,0,,,,N/A
2024-03-23T21:45:49,2.52622245995,-1.1473584366999998,9.442077979599999,0.036804630601430424,0.0025961772623415654,-0.03787364476827696,0.43358,0.07098,-0.2863,7.5,7,1230,619,439,2110,16.33703125,7283,37.564570372553504,1008.7837689146039,0,,,,N/A
2024-03-23T21:45:49,2.4807588305499997,-1.1461620253999998,9.470193645150001,0.00015271630954950385,0.00946841119206924,-0.031001410838549282,0.43358,0.07098,-0.2863,7.5,7,1230,619,439,2110,16.583125,8158,37.570464153124355,1008.7986253750782,0,,,,N/A
2024-03-23T21:45:49,2.5094727017499996,-1.1700902514,9.460622354749999,0.03451388595818787,0.004886921905584123,-0.03543018381548489,0.44310000000000005,0.06902000000000001,-0.29106,7.5,7,1230,619,439,2110,16.583125,8158,37.570464153124355,1008.7986253750782,0,,,,N/A
2024-03-23T21:45:49,2.51186552435,-1.1700902514,9.49651469375,0.04001167310197001,0.008704829644321718,-0.0357356164345839,0.44450000000000006,0.0665,-0.29106,7.5,7,1230,619,439,2110,16.583125,8158,37.570464153124355,1008.7986253750782,0,,,,N/A
2024-03-23T21:45:49,2.4963121774499997,-1.1563315214499998,9.49651469375,0.036193765363232405,0.008399397025222712,-0.0316122760767473,0.44450000000000006,0.0665,-0.29106,7.5,7,1230,619,439,2110,16.583125,8158,37.570464153124355,1008.7986253750782,0,,,,N/A
2024-03-23T21:45:49,2.4933211492,-1.1647064005499999,9.480363141199998,0.03634648167278191,0.007635815477475193,-0.0357356164345839,0.43246,0.07182000000000001,-0.27566,7.5,7,1230,619,439,2110,16.583125,8158,37.570464153124355,1008.7986253750782,0,,,,N/A
2024-03-23T21:45:49,2.4981067943999995,-1.1491530536499999,9.4791667299,0.03436116964863837,0.008857545953871223,-0.03436116964863837,0.43806000000000006,0.07518000000000001,-0.28616,7.5,7,1230,619,439,2110,16.583125,8158,37.570464153124355,1008.7986253750782,0,,,,N/A
2024-03-23T21:45:49,2.48674088705,-1.1575279327499999,9.517451891499999,0.041386119887915546,0.006108652381980154,-0.03741549583962844,0.43806000000000006,0.07518000000000001,-0.28616,7.5,7,1230,619,439,2110,16.7993359375,9087,37.56195324111344,1008.8005687809749,0,,,,N/A
2024-03-23T21:45:49,2.45563419325,-1.1952148887,9.5078806011,0.03207042500539581,0.009315694882519735,-0.0355829001250344,0.43498000000000003,0.06538000000000001,-0.2975,7.5,7,1230,619,439,2110,16.7993359375,9087,37.56195324111344,1008.8005687809749,0,,,,N/A
2024-03-23T21:45:49,2.52741887125,-1.1760723079,9.521041125399998,0.03054326190990077,0.008399397025222712,-0.03130684345764829,0.43918000000000007,0.0651,-0.2835,7.5,7,1230,619,439,2110,16.7993359375,9087,37.56195324111344,1008.8005687809749,0,,,,N/A
2024-03-23T21:45:49,2.5202404034499994,-1.1641081949,9.507282395449998,0.040317105721069016,0.004886921905584123,-0.03375030441044035,0.44058,0.07098,-0.28168,7.5,7,1230,619,439,2110,16.7993359375,9087,37.56195324111344,1008.8005687809749,0,,,,N/A
2024-03-23T21:45:49,2.5136601413,-1.16709922315,9.48933622595,0.03604104905368291,0.006414085001079162,-0.03466660226773738,0.44058,0.07098,-0.28168,7.5,7,1230,619,439,2110,16.7993359375,9087,37.56195324111344,1008.8005687809749,0,,,,N/A
2024-03-23T21:45:49,2.4909283265999997,-1.184447187,9.464809794299999,0.039095375244672985,0.009315694882519735,-0.03313943917224234,0.43358,0.07826000000000001,-0.29484000000000005,7.5,7,1230,619,439,2110,16.7993359375,9087,37.56195324111344,1008.8005687809749,0,,,,N/A
2024-03-23T21:45:49,2.4807588305499997,-1.160518961,9.4935236655,0.039400807863771994,0.007941248096574201,-0.0357356164345839,0.4277,0.07182000000000001,-0.28266,7.5,7,1230,619,439,2110,16.9887890625,9974,37.545118520026456,1008.8036448294397,0,,,,N/A
2024-03-23T21:45:50,2.5154547582499998,-1.15393869885,9.530612415799999,0.039858956792420505,0.0119118721448613,-0.03451388595818787,0.43246,0.07266000000000002,-0.27454,7.5,7,1230,619,439,2110,16.9887890625,9974,37.545118520026456,1008.8036448294397,0,,,,N/A
2024-03-23T21:45:50,2.5112673186999994,-1.16949204575,9.464211588649999,0.03787364476827696,0.007635815477475193,-0.03390302071998985,0.43246,0.07266000000000002,-0.27454,6.5,7,1230,619,439,2110,16.9887890625,9974,37.545118520026456,1008.8036448294397,0,,,,N/A
2024-03-23T21:45:50,2.4831516531499993,-1.1593225497,9.499505721999999,0.03252857393404432,0.008093964406123704,-0.03222314131494531,0.4389,0.07210000000000001,-0.27776000000000006,6.5,7,1230,619,439,2110,16.9887890625,9974,37.545118520026456,1008.8036448294397,0,,,,N/A
2024-03-23T21:45:50,2.50468705655,-1.1916256548,9.510871629349998,0.03741549583962844,0.005192354524683131,-0.03604104905368291,0.43750000000000006,0.0679,-0.27272,7.5,7,1230,619,439,2110,16.9887890625,9974,37.545118520026456,1008.8036448294397,0,,,,N/A
2024-03-23T21:45:50,2.5142583469499997,-1.1533404932,9.647262517549999,0.04001167310197001,0.007330382858376185,-0.03466660226773738,0.43750000000000006,0.0679,-0.27272,7.5,7,1230,619,439,2110,16.9887890625,9974,37.545118520026456,1008.8036448294397,0,,,,N/A
2024-03-23T21:45:50,2.50588346785,-1.11924277115,9.4911308429,0.03527746750593539,0.0054977871437821395,-0.031154127148098783,0.43638000000000005,0.07014,-0.28546000000000005,7.5,7,1230,619,439,2110,17.1532421875,10995,37.52592272042405,1008.812594681908,0,,,,N/A
2024-03-23T21:45:50,2.62313177525,-1.1706884570499998,9.4612205604,0.03772092845872745,0.008093964406123704,-0.03252857393404432,0.43470000000000003,0.06734,-0.2786,7.5,7,1230,618,438,2108,17.1532421875,10995,37.52592272042405,1008.812594681908,0,,,,N/A
2024-03-23T21:45:50,2.4987050000499997,-1.17427769095,9.4983093107,0.03634648167278191,0.007177666548826681,-0.03695734691097993,0.4333000000000001,0.06762,-0.28742,6.5,7,1230,618,438,2108,17.1532421875,10995,37.52592272042405,1008.812594681908,0,,,,N/A
2024-03-23T21:45:50,2.4981067943999995,-1.1647064005499999,9.558129875699999,0.03741549583962844,0.0025961772623415654,-0.03543018381548489,0.4333000000000001,0.06762,-0.28742,7.5,7,1230,618,438,2108,17.1532421875,10995,37.52592272042405,1008.812594681908,0,,,,N/A
2024-03-23T21:45:50,2.5052852621999997,-1.1820543644,9.5102734237,0.03543018381548489,0.004886921905584123,-0.03436116964863837,0.43414,0.06594000000000001,-0.28952000000000006,7.5,7,1230,618,438,2108,17.1532421875,10995,37.52592272042405,1008.812594681908,0,,,,N/A
2024-03-23T21:45:50,2.4675983062499998,-1.1688938401,9.477970318599999,0.03543018381548489,0.008246680715673207,-0.038637226316024474,0.43050000000000005,0.06874000000000001,-0.28854,7.5,7,1230,618,438,2108,17.1532421875,10995,37.52592272042405,1008.812594681908,0,,,,N/A
2024-03-23T21:45:50,2.4963121774499997,-1.1718848683499998,9.468399028199999,0.03481931857728687,0.0070249502392771765,-0.03451388595818787,0.43050000000000005,0.06874000000000001,-0.29008000000000006,6.5,7,1230,618,438,2108,17.2950390625,11938,37.49877082951738,1008.8190491937942,0,,,,N/A
2024-03-23T21:45:50,2.4849462701,-1.1736794852999999,9.54676396835,0.039858956792420505,0.006108652381980154,-0.03588833274413341,0.43162000000000006,0.06678,-0.27482000000000006,7.5,7,1230,618,438,2108,17.2950390625,11938,37.49877082951738,1008.8190491937942,0,,,,N/A
2024-03-23T21:45:50,2.5232314317,-1.1730812796499999,9.402596406699999,0.03604104905368291,0.008857545953871223,-0.03420845333908886,0.43526000000000004,0.059500000000000004,-0.2898,6.5,7,1230,618,438,2108,17.2950390625,11938,37.49877082951738,1008.8190491937942,0,,,,N/A
2024-03-23T21:45:50,2.5052852621999997,-1.15992075535,9.486345197699999,0.0319177086958463,0.010079276430267254,-0.03527746750593539,0.43778,0.0651,-0.29008000000000006,7.5,7,1230,618,438,2108,17.2950390625,11938,37.49877082951738,1008.8190491937942,0,,,,N/A
2024-03-23T21:45:50,2.5094727017499996,-1.1563315214499998,9.507282395449998,0.03588833274413341,0.010384709049366262,-0.03130684345764829,0.43778,0.0651,-0.29008000000000006,6.5,7,1230,618,438,2108,17.2950390625,11938,37.49877082951738,1008.8190491937942,0,,,,N/A
2024-03-23T21:45:50,2.5112673186999994,-1.1712866627,9.49651469375,0.03420845333908886,0.008399397025222712,-0.031764992386296806,0.44198000000000004,0.06706000000000001,-0.2905,7.5,7,1230,618,438,2108,17.2950390625,11938,37.49877082951738,1008.8190491937942,0,,,,N/A
2024-03-23T21:45:50,2.5130619356499997,-1.1413763801999999,9.486943403349999,0.03634648167278191,0.01145372321621279,-0.03359758810089085,0.43694000000000005,0.07042,-0.30534000000000006,6.5,7,1230,618,438,2108,17.2950390625,11938,37.49877082951738,1008.8190491937942,0,,,,N/A
2024-03-23T21:45:50,2.48554447575,-1.1569297271,9.5258267706,0.03665191429188092,0.013286318930806834,-0.03481931857728687,0.43694000000000005,0.07042,-0.30534000000000006,7.5,7,1230,618,438,2108,17.4157421875,13053,37.46961586016814,1008.8221201698803,0,,,,N/A
2024-03-23T21:45:50,2.4861426813999996,-1.1647064005499999,9.468997233849999,0.03604104905368291,0.010231992739816757,-0.03207042500539581,0.42826000000000003,0.0707,-0.2793,7.5,7,1230,618,438,2108,17.4157421875,13053,37.46961586016814,1008.8221201698803,0,,,,N/A
2024-03-23T21:45:50,2.5184457864999996,-1.1647064005499999,9.47139005645,0.03497203488683638,0.005803219762881146,-0.03741549583962844,0.42826000000000003,0.0707,-0.2793,6.5,7,1230,618,438,2108,17.4157421875,13053,37.46961586016814,1008.8221201698803,0,,,,N/A
2024-03-23T21:45:50,2.5244278430000002,-1.1688938401,9.4983093107,0.039553524173321496,0.007788531787024696,-0.0355829001250344,0.43386,0.06930000000000001,-0.28798,7.5,7,1230,618,438,2108,17.4157421875,13053,37.46961586016814,1008.8221201698803,0,,,,N/A
2024-03-23T21:45:50,2.5088744961,-1.1676974288,9.47737211295,0.03756821214917795,0.011606439525762293,-0.03802636107782646,0.43442000000000003,0.06538000000000001,-0.2905,6.5,7,1230,618,438,2108,17.4157421875,13053,37.46961586016814,1008.8221201698803,0,,,,N/A
2024-03-23T21:45:50,2.4999014113499998,-1.1629117836,9.4791667299,0.03375030441044035,0.0056505034533316425,-0.03268129024359383,0.43442000000000003,0.06538000000000001,-0.2905,7.5,7,1230,618,438,2108,17.4157421875,13053,37.46961586016814,1008.8221201698803,0,,,,N/A
2024-03-23T21:45:50,2.5268206656,-1.1575279327499999,9.511469835,0.038484510006474966,0.007177666548826681,-0.03344487179134134,0.43470000000000003,0.06986000000000002,-0.30198,6.5,7,1230,618,438,2108,17.4157421875,13053,37.46961586016814,1008.8221201698803,0,,,,N/A
2024-03-23T21:45:50,2.5387847785999997,-1.1682956344499997,9.4971128994,0.03543018381548489,0.007483099167925688,-0.03512475119638588,0.44114000000000003,0.07518000000000001,-0.28672000000000003,6.5,7,1230,618,438,2108,17.5184765625,14119,37.42132564992416,1008.8129420880132,0,,,,N/A
2024-03-23T21:45:50,2.5453650407499997,-1.1676974288,9.44147977395,0.038942658935123484,0.006414085001079162,-0.03344487179134134,0.43778,0.06146000000000001,-0.29288000000000003,6.5,7,1230,618,438,2108,17.5184765625,14119,37.42132564992416,1008.8129420880132,0,,,,N/A
2024-03-23T21:45:50,2.48434806445,-1.15034946495,9.540781911849999,0.03634648167278191,0.005039638215133627,-0.03604104905368291,0.43666000000000005,0.06286000000000001,-0.29694000000000004,6.5,7,1230,618,438,2108,17.5184765625,14119,37.42132564992416,1008.8129420880132,0,,,,N/A
2024-03-23T21:45:50,2.48554447575,-1.1802597474499998,9.5066841898,0.038331793696925465,0.0044287729769356115,-0.03436116964863837,0.43666000000000005,0.06286000000000001,-0.29694000000000004,6.5,7,1230,618,438,2108,17.5184765625,14119,37.42132564992416,1008.8129420880132,0,,,,N/A
2024-03-23T21:45:50,2.5202404034499994,-1.1976077112999999,9.47976493555,0.03512475119638588,0.004581489286485115,-0.03634648167278191,0.4277,0.06930000000000001,-0.2905,6.5,7,1230,618,438,2108,17.5184765625,14119,37.42132564992416,1008.8129420880132,0,,,,N/A
2024-03-23T21:45:50,2.5477578633499998,-1.1449656141,9.4253282214,0.03436116964863837,0.008246680715673207,-0.03344487179134134,0.44226000000000004,0.07266000000000002,-0.28686,6.5,7,1230,618,438,2108,17.5184765625,14119,37.42132564992416,1008.8129420880132,0,,,,N/A
2024-03-23T21:45:50,2.4478575198,-1.1808579531,9.48813981465,0.03665191429188092,0.008704829644321718,-0.03405573702953936,0.44226000000000004,0.07266000000000002,-0.28686,6.5,7,1230,618,438,2108,17.605390625,15110,37.37153573215082,1008.8197323805292,0,,,,N/A
2024-03-23T21:45:50,2.5256242543,-1.15034946495,9.463613383,0.03344487179134134,0.008552113334772215,-0.02932153143350474,0.43582000000000004,0.0665,-0.28826000000000007,7.5,7,1231,619,439,2109,17.605390625,15110,37.37153573215082,1008.8197323805292,0,,,,N/A
2024-03-23T21:45:50,2.48674088705,-1.184447187,9.418747959249998,0.039553524173321496,0.010079276430267254,-0.039553524173321496,0.44254000000000004,0.0665,-0.28,7.5,7,1231,619,439,2109,17.605390625,15110,37.37153573215082,1008.8197323805292,0,,,,N/A
2024-03-23T21:45:50,2.4933211492,-1.1718848683499998,9.540781911849999,0.036499197982331415,0.008399397025222712,-0.0357356164345839,0.43806000000000006,0.0637,-0.2933,6.5,7,1231,619,439,2109,17.605390625,15110,37.37153573215082,1008.8197323805292,0,,,,N/A
2024-03-23T21:45:51,2.5004996169999996,-1.14436740845,9.52163933105,0.03481931857728687,0.0068722339297276735,-0.03481931857728687,0.43694000000000005,0.07014,-0.30534000000000006,7.5,7,1231,619,439,2109,17.605390625,15110,37.37153573215082,1008.8197323805292,0,,,,N/A
2024-03-23T21:45:51,2.5010978226500002,-1.1611171666499998,9.486943403349999,0.03802636107782646,0.00916297857297023,-0.036499197982331415,0.43694000000000005,0.07014,-0.30534000000000006,6.5,7,1231,619,439,2109,17.605390625,15110,37.37153573215082,1008.8197323805292,0,,,,N/A
2024-03-23T21:45:51,2.4981067943999995,-1.14436740845,9.3487578982,0.03787364476827696,0.009621127501618741,-0.03588833274413341,0.4397400000000001,0.06762,-0.2898,6.5,7,1231,619,439,2109,17.68078125,16226,37.33807641521621,1008.8144354211476,0,,,,N/A
2024-03-23T21:45:51,2.4723839514499995,-1.1688938401,9.500103927649999,0.038484510006474966,0.0044287729769356115,-0.03405573702953936,0.44534,0.06874000000000001,-0.27314000000000005,6.5,7,1231,619,439,2109,17.68078125,16226,37.33807641521621,1008.8144354211476,0,,,,N/A
2024-03-23T21:45:51,2.5280170769,-1.160518961,9.4923272542,0.03420845333908886,0.0038179077387375964,-0.036804630601430424,0.44534,0.06874000000000001,-0.27314000000000005,7.5,7,1231,619,439,2109,17.68078125,16226,37.33807641521621,1008.8144354211476,0,,,,N/A
2024-03-23T21:45:51,2.4969103831,-1.1778669248499998,9.428319249649999,0.03466660226773738,0.007177666548826681,-0.03741549583962844,0.44534,0.06734,-0.29638000000000003,6.5,7,1231,619,439,2109,17.68078125,16226,37.33807641521621,1008.8144354211476,0,,,,N/A
2024-03-23T21:45:51,2.4909283265999997,-1.1724830739999998,9.57308501695,0.03451388595818787,0.0070249502392771765,-0.037110063220529434,0.44422,0.07210000000000001,-0.29008000000000006,6.5,7,1231,619,439,2109,17.68078125,16226,37.33807641521621,1008.8144354211476,0,,,,N/A
2024-03-23T21:45:51,2.4819552418499997,-1.1778669248499998,9.4540420926,0.038942658935123484,0.0068722339297276735,-0.03466660226773738,0.44422,0.07210000000000001,-0.28616,6.5,7,1231,619,439,2109,17.68078125,16226,37.33807641521621,1008.8144354211476,0,,,,N/A
2024-03-23T21:45:51,2.50468705655,-1.1796615417999998,9.503094955899998,0.03924809155422249,0.009010262263420728,-0.03741549583962844,0.43834,0.062020000000000006,-0.28616,6.5,7,1231,619,439,2109,17.68078125,16226,37.33807641521621,1008.8144354211476,0,,,,N/A
2024-03-23T21:45:51,2.49391935485,-1.1485548479999999,9.490532637249999,0.03481931857728687,0.005803219762881146,-0.03481931857728687,0.43722000000000005,0.0637,-0.28714000000000006,6.5,7,1231,619,439,2109,17.747578125,17248,37.27477423170127,1008.8265561736972,0,,,,N/A
2024-03-23T21:45:51,2.46879471755,-1.16350998925,9.509077012399999,0.031764992386296806,0.0068722339297276735,-0.03466660226773738,0.44170000000000004,0.06622000000000001,-0.29190000000000005,7.5,7,1231,619,439,2109,17.747578125,17248,37.27477423170127,1008.8265561736972,0,,,,N/A
2024-03-23T21:45:51,2.5154547582499998,-1.1700902514,9.46181876605,0.037110063220529434,0.00916297857297023,-0.03405573702953936,0.44310000000000005,0.07042,-0.30240000000000006,6.5,7,1231,619,439,2109,17.747578125,17248,37.27477423170127,1008.8265561736972,0,,,,N/A
2024-03-23T21:45:51,2.5507488916,-1.1862418039499998,9.495916488099999,0.029474247743054245,0.0035124751196385882,-0.029474247743054245,0.44170000000000004,0.06566000000000001,-0.29344000000000003,6.5,7,1231,619,439,2109,17.747578125,17248,37.27477423170127,1008.8265561736972,0,,,,N/A
2024-03-23T21:45:51,2.46999112885,-1.1958130943499998,9.439685156999998,0.03420845333908886,0.010231992739816757,-0.03390302071998985,0.44170000000000004,0.06566000000000001,-0.29344000000000003,6.5,7,1231,619,439,2109,17.747578125,17248,37.27477423170127,1008.8265561736972,0,,,,N/A
2024-03-23T21:45:51,2.5022942339499994,-1.1533404932,9.535398060999999,0.038789942625573975,0.006108652381980154,-0.030237829290801762,0.44226000000000004,0.06538000000000001,-0.29498,6.5,7,1231,619,439,2109,17.747578125,17248,37.27477423170127,1008.8265561736972,0,,,,N/A
2024-03-23T21:45:51,2.4945175605,-1.1688938401,9.4911308429,0.030237829290801762,0.006414085001079162,-0.03436116964863837,0.44226000000000004,0.06902000000000001,-0.29610000000000003,6.5,7,1231,619,439,2109,17.8067578125,18358,37.21656744990174,1008.8225179080189,0,,,,N/A
2024-03-23T21:45:51,2.5651058271999996,-1.1611171666499998,9.487541608999999,0.031764992386296806,0.01145372321621279,-0.03252857393404432,0.4403000000000001,0.06874000000000001,-0.28224,6.5,7,1231,619,439,2109,17.8067578125,18358,37.21656744990174,1008.8225179080189,0,,,,N/A
2024-03-23T21:45:51,2.4352952011499998,-1.1653046061999999,9.463015177349998,0.03390302071998985,0.0054977871437821395,-0.030695978219450276,0.43862000000000007,0.07462,-0.29008000000000006,6.5,7,1231,619,439,2109,17.8067578125,18358,37.21656744990174,1008.8225179080189,0,,,,N/A
2024-03-23T21:45:51,2.52382963735,-1.14556381975,9.646664311899999,0.03787364476827696,0.008093964406123704,-0.03375030441044035,0.4397400000000001,0.06902000000000001,-0.30128000000000005,6.5,7,1231,619,439,2109,17.8067578125,18358,37.21656744990174,1008.8225179080189,0,,,,N/A
2024-03-23T21:45:52,2.55254350855,-1.17667051355,9.58145989605,0.03756821214917795,0.0054977871437821395,-0.038637226316024474,0.43694000000000005,0.06566000000000001,-0.29778000000000004,6.5,7,1232,620,439,2110,17.8559765625,19549,37.15162645473474,1008.8195653035452,0,,,,N/A
2024-03-23T21:45:52,2.5178475808499994,-1.1623135779499998,9.49292545985,0.03543018381548489,0.009315694882519735,-0.03390302071998985,0.44450000000000006,0.06538000000000001,-0.29596000000000006,6.5,7,1232,620,439,2110,17.8559765625,19549,37.15162645473474,1008.8195653035452,0,,,,N/A
2024-03-23T21:45:52,2.5292134882,-1.1676974288,9.499505721999999,0.03772092845872745,0.006414085001079162,-0.03268129024359383,0.44086000000000003,0.06958000000000002,-0.28854,6.5,7,1232,620,439,2110,17.8559765625,19549,37.15162645473474,1008.8195653035452,0,,,,N/A
2024-03-23T21:45:52,2.4975085887499997,-1.1401799688999998,9.4217389875,0.039400807863771994,0.008093964406123704,-0.036193765363232405,0.44058,0.06426000000000001,-0.29204,6.5,7,1232,620,439,2110,17.8559765625,19549,37.15162645473474,1008.8195653035452,0,,,,N/A
2024-03-23T21:45:52,2.51186552435,-1.1772687192,9.4707918508,0.03054326190990077,0.0070249502392771765,-0.03130684345764829,0.44422,0.0665,-0.28028000000000003,6.5,7,1232,620,439,2110,17.8559765625,19549,37.15162645473474,1008.8195653035452,0,,,,N/A
2024-03-23T21:45:53,2.5154547582499998,-1.1611171666499998,9.451649269999999,0.03512475119638588,0.010231992739816757,-0.03359758810089085,0.44422,0.06482,-0.29148,6.5,7,1233,621,439,2111,17.2809765625,17462,36.715153352979875,1008.8361912976231,0,,,,N/A
2024-03-23T21:45:53,2.4801606249,-1.1437692027999997,9.46181876605,0.0316122760767473,0.0070249502392771765,-0.029474247743054245,0.44282000000000005,0.06594000000000001,-0.29218,6.5,7,1233,621,439,2111,17.2809765625,17462,36.715153352979875,1008.8361912976231,0,,,,N/A
2024-03-23T21:45:53,2.48793729835,-1.1772687192,9.4540420926,0.036499197982331415,0.00946841119206924,-0.03512475119638588,0.44170000000000004,0.05838,-0.29302000000000006,6.5,7,1233,621,439,2111,17.2809765625,17462,36.715153352979875,1008.8361912976231,0,,,,N/A
2024-03-23T21:45:53,2.5172493751999996,-1.1748758966,9.5066841898,0.03604104905368291,0.006414085001079162,-0.03237585762449482,0.44282000000000005,0.0651,-0.28658000000000006,6.5,7,1233,621,439,2111,17.2809765625,17462,36.715153352979875,1008.8361912976231,0,,,,N/A
2024-03-23T21:45:53,2.5088744961,-1.1641081949,9.428917455299999,0.0355829001250344,0.0068722339297276735,-0.03390302071998985,0.44366,0.06566000000000001,-0.29498,6.5,7,1233,621,439,2111,17.2809765625,17462,36.715153352979875,1008.8361912976231,0,,,,N/A
2024-03-23T21:45:54,2.48554447575,-1.1820543644,9.487541608999999,0.03466660226773738,0.0054977871437821395,-0.03512475119638588,0.44142000000000003,0.06146000000000001,-0.29190000000000005,6.5,7,1232,621,439,2110,16.5676953125,16862,36.31998018372666,1008.8292493111846,0,,,,N/A
2024-03-23T21:45:54,2.3904297774,-1.1485548479999999,9.508478806749999,0.03497203488683638,0.008704829644321718,-0.03543018381548489,0.4397400000000001,0.0707,-0.29456,6.5,7,1232,621,439,2110,16.5676953125,16862,36.31998018372666,1008.8292493111846,0,,,,N/A
2024-03-23T21:45:54,2.51246373,-1.1563315214499998,9.49292545985,0.03405573702953936,0.0025961772623415654,-0.03222314131494531,0.44170000000000004,0.06678,-0.2926,6.5,7,1232,621,439,2110,16.5676953125,16862,36.31998018372666,1008.8292493111846,0,,,,N/A
2024-03-23T21:45:54,2.4933211492,-1.1365907349999997,9.5545406418,0.038789942625573975,0.0056505034533316425,-0.03420845333908886,0.43666000000000005,0.058940000000000006,-0.26754,6.5,7,1232,621,439,2110,16.5676953125,16862,36.31998018372666,1008.8292493111846,0,,,,N/A
2024-03-23T21:45:54,2.4741785683999997,-1.19342027175,9.380462797649999,0.036804630601430424,0.005803219762881146,-0.03436116964863837,0.43778,0.06902000000000001,-0.28308000000000005,6.5,7,1232,621,439,2110,16.5676953125,16862,36.31998018372666,1008.8292493111846,0,,,,N/A
2024-03-23T21:45:55,2.5106691130499996,-1.1706884570499998,9.51805009715,0.03436116964863837,0.006566801310628666,-0.03512475119638588,0.44170000000000004,0.07182000000000001,-0.29932000000000003,6.5,7,22,6,6,31,15.9301953125,17039,36.08320695724028,1008.8248005176257,0,,,,N/A
2024-03-23T21:45:55,2.49391935485,-1.1551351101499998,9.537790883599998,0.03252857393404432,0.005039638215133627,-0.03756821214917795,0.44282000000000005,0.0707,-0.30492,6.5,7,22,6,6,31,15.9301953125,17039,36.08320695724028,1008.8248005176257,0,,,,N/A
2024-03-23T21:45:55,2.4861426813999996,-1.1617153723,9.509675218049999,0.04382958084070761,0.008399397025222712,-0.03665191429188092,0.4403000000000001,0.06342,-0.29736,6.5,7,22,6,6,31,15.9301953125,17039,36.08320695724028,1008.8248005176257,0,,,,N/A
2024-03-23T21:45:55,2.5256242543,-1.1641081949,9.500103927649999,0.038789942625573975,0.006566801310628666,-0.03512475119638588,0.43694000000000005,0.07014,-0.29960000000000003,6.5,7,22,6,6,31,15.9301953125,17039,36.08320695724028,1008.8248005176257,0,,,,N/A
2024-03-23T21:45:55,2.5100709073999994,-1.1700902514,9.53121062145,0.03665191429188092,0.008552113334772215,-0.03390302071998985,0.43694000000000005,0.07014,-0.29960000000000003,6.5,7,22,6,6,31,15.9301953125,17039,36.08320695724028,1008.8248005176257,0,,,,N/A
2024-03-23T21:45:55,2.4305095559499996,-1.1545369045,9.482755963799999,0.036193765363232405,0.007635815477475193,-0.037110063220529434,0.44310000000000005,0.07042,-0.29232,6.5,7,22,6,6,31,15.9301953125,17039,36.08320695724028,1008.8248005176257,0,,,,N/A
2024-03-23T21:45:55,2.5106691130499996,-1.1730812796499999,9.477970318599999,0.031764992386296806,0.007483099167925688,-0.031154127148098783,0.43918000000000007,0.06706000000000001,-0.30044000000000004,6.5,7,22,6,6,31,15.3659375,17711,35.911480295989506,1008.8139961612935,0,,,,N/A
2024-03-23T21:45:56,2.48554447575,-1.1593225497,9.57667425085,0.03512475119638588,0.008704829644321718,-0.03283400655314333,0.44002,0.05754000000000001,-0.2856,6.5,7,22,6,6,30,15.16671875,20519,35.94508781624181,1008.7793143886612,0,,,,N/A
2024-03-23T21:45:56,2.5160529638999996,-1.2101700299499998,9.53838908925,0.03436116964863837,0.008857545953871223,-0.03543018381548489,0.44114000000000003,0.0637,-0.28,6.5,7,22,6,6,30,15.16671875,20519,35.94508781624181,1008.7793143886612,0,,,,N/A
2024-03-23T21:45:56,2.4915265322499995,-1.1688938401,9.559326287,0.03604104905368291,0.00916297857297023,-0.03451388595818787,0.43358,0.058100000000000006,-0.2947000000000001,6.5,7,22,6,6,30,15.16671875,20519,35.94508781624181,1008.7793143886612,0,,,,N/A
2024-03-23T21:45:56,2.57527532325,-1.13599252935,9.5294160045,0.038484510006474966,0.012064588454410803,-0.036193765363232405,0.43946,0.057260000000000005,-0.287,6.5,7,22,6,6,30,15.16671875,20519,35.94508781624181,1008.7793143886612,0,,,,N/A
2024-03-23T21:45:56,2.48554447575,-1.1922238604499997,9.504889572849999,0.03924809155422249,0.0038179077387375964,-0.03237585762449482,0.43946,0.057260000000000005,-0.287,6.5,7,22,6,6,30,15.16671875,20519,35.94508781624181,1008.7793143886612,0,,,,N/A
2024-03-23T21:45:57,2.5100709073999994,-1.16709922315,9.5162554802,0.03420845333908886,0.009621127501618741,-0.03527746750593539,0.43218000000000006,0.061180000000000005,-0.28126000000000007,6.5,7,22,6,6,29,14.8096875,20559,35.80987067913264,1008.7853311783512,0,,,,N/A
2024-03-23T21:45:57,2.47597318535,-1.1874382152499998,9.553344230499999,0.037110063220529434,0.00473420559603462,-0.03512475119638588,0.43918000000000007,0.06846000000000001,-0.27832000000000007,6.5,7,22,6,6,29,14.8096875,20559,35.80987067913264,1008.7853311783512,0,,,,N/A
2024-03-23T21:45:57,2.5040888509,-1.160518961,9.5294160045,0.03604104905368291,0.005192354524683131,-0.03207042500539581,0.43918000000000007,0.06538000000000001,-0.28826000000000007,6.5,7,22,6,6,30,14.8096875,20559,35.80987067913264,1008.7853311783512,0,,,,N/A
2024-03-23T21:45:57,2.5040888509,-1.2119646469,9.5868437469,0.04046982203061852,0.0035124751196385882,-0.03283400655314333,0.43022000000000005,0.06286000000000001,-0.28812,6.5,7,22,6,6,30,14.8096875,20559,35.80987067913264,1008.7853311783512,0,,,,N/A
2024-03-23T21:45:57,2.5304098994999995,-1.1682956344499997,9.51805009715,0.03420845333908886,0.004581489286485115,-0.0316122760767473,0.43022000000000005,0.06286000000000001,-0.28812,6.5,7,22,6,6,30,14.8096875,20559,35.80987067913264,1008.7853311783512,0,,,,N/A
2024-03-23T21:45:58,2.4658036893,-1.1629117836,9.463613383,0.03543018381548489,0.005192354524683131,-0.03588833274413341,0.44282000000000005,0.07098,-0.2888200000000001,6.5,7,22,6,6,30,14.441328125,20885,35.70830706510219,1008.7929547542248,0,,,,N/A
2024-03-23T21:45:58,2.4861426813999996,-1.13479611805,9.5246303593,0.03695734691097993,0.009315694882519735,-0.03359758810089085,0.43694000000000005,0.06398000000000001,-0.27804,6.5,7,22,6,6,30,14.441328125,20885,35.70830706510219,1008.7929547542248,0,,,,N/A
2024-03-23T21:45:58,2.5154547582499998,-1.1491530536499999,9.5449693514,0.036193765363232405,0.008246680715673207,-0.0319177086958463,0.43694000000000005,0.06398000000000001,-0.27804,6.5,7,22,6,6,30,14.441328125,20885,35.70830706510219,1008.7929547542248,0,,,,N/A
2024-03-23T21:45:58,2.5256242543,-1.1491530536499999,9.571290399999999,0.03527746750593539,0.009010262263420728,-0.03344487179134134,0.44142000000000003,0.0651,-0.27706000000000003,6.5,7,22,6,6,30,14.441328125,20885,35.70830706510219,1008.7929547542248,0,,,,N/A
2024-03-23T21:45:58,2.4831516531499993,-1.1563315214499998,9.530014210149998,0.03436116964863837,0.007177666548826681,-0.03405573702953936,0.43750000000000006,0.07266000000000002,-0.28574,6.5,7,22,6,6,30,14.441328125,20885,35.70830706510219,1008.7929547542248,0,,,,N/A
2024-03-23T21:45:59,2.46999112885,-1.1479566423499998,9.608977355949998,0.03543018381548489,0.012675453692608819,-0.036499197982331415,0.43302,0.06398000000000001,-0.29890000000000005,6.5,7,22,6,6,30,14.1243359375,21546,35.67441156751226,1008.7961674720099,0,,,,N/A
2024-03-23T21:45:59,2.4993032057,-1.1796615417999998,9.48933622595,0.03588833274413341,0.00946841119206924,-0.03405573702953936,0.43806000000000006,0.07266000000000002,-0.28266,6.5,7,22,6,6,30,14.1243359375,21546,35.67441156751226,1008.7961674720099,0,,,,N/A
2024-03-23T21:45:59,2.4963121774499997,-1.1647064005499999,9.55513884745,0.036804630601430424,0.0038179077387375964,-0.03420845333908886,0.43806000000000006,0.07266000000000002,-0.28266,6.5,7,22,6,6,30,14.1243359375,21546,35.67441156751226,1008.7961674720099,0,,,,N/A
2024-03-23T21:45:59,2.4825534474999995,-1.1850453926499998,9.59581683165,0.038637226316024474,0.00916297857297023,-0.03329215548179184,0.44086000000000003,0.07042,-0.294,6.5,7,22,6,6,30,14.1243359375,21546,35.67441156751226,1008.7961674720099,0,,,,N/A
2024-03-23T21:45:59,2.4933211492,-1.1569297271,9.598209654249999,0.03268129024359383,0.012217304763960308,-0.03344487179134134,0.43414,0.07238000000000001,-0.29162,6.5,7,22,6,6,30,14.1243359375,21546,35.67441156751226,1008.7961674720099,0,,,,N/A
2024-03-23T21:46:00,2.4598216327999998,-1.1641081949,9.549754996599999,0.0316122760767473,0.0044287729769356115,-0.03222314131494531,0.44086000000000003,0.06538000000000001,-0.29120000000000007,6.5,7,22,6,6,30,13.8696484375,22227,35.680407954820986,1008.7958967288084,0,,,,N/A
2024-03-23T21:46:00,2.5669004441499994,-1.1814561587499999,9.53479985535,0.03466660226773738,0.0056505034533316425,-0.03451388595818787,0.44002,0.0665,-0.29848,6.5,7,22,6,6,30,13.8696484375,22227,35.680407954820986,1008.7958967288084,0,,,,N/A
2024-03-23T21:46:00,2.5256242543,-1.1623135779499998,9.5509514079,0.0355829001250344,0.007941248096574201,-0.03420845333908886,0.43442000000000003,0.06174000000000001,-0.29512,6.5,7,22,6,6,30,13.8696484375,22227,35.680407954820986,1008.7958967288084,0,,,,N/A
2024-03-23T21:46:00,2.4664018949499997,-1.1389835575999998,9.5102734237,0.038942658935123484,0.004276056667386108,-0.03283400655314333,0.43442000000000003,0.06174000000000001,-0.29512,6.5,7,22,6,6,30,13.8696484375,22227,35.680407954820986,1008.7958967288084,0,,,,N/A
2024-03-23T21:46:00,2.5148565526,-1.1922238604499997,9.5724868113,0.031459559767197796,0.007177666548826681,-0.03543018381548489,0.44058,0.05782000000000001,-0.29918,6.5,7,22,6,6,30,13.8696484375,22227,35.680407954820986,1008.7958967288084,0,,,,N/A
2024-03-23T21:46:00,2.48434806445,-1.16709922315,9.589834775149999,0.0357356164345839,0.00015271630954950385,-0.03436116964863837,0.44058,0.0623,-0.29316000000000003,6.5,7,22,6,6,30,13.8696484375,22227,35.680407954820986,1008.7958967288084,0,,,,N/A
2024-03-23T21:46:00,2.4981067943999995,-1.15992075535,9.61854864635,0.03527746750593539,0.008399397025222712,-0.03588833274413341,0.43610000000000004,0.062020000000000006,-0.29582,6.5,7,22,6,6,30,13.6200390625,22878,35.69261094659558,1008.798546669034,0,,,,N/A
2024-03-23T21:46:00,2.53340092775,-1.1575279327499999,9.6394858441,0.038942658935123484,0.007635815477475193,-0.03298672286269283,0.43666000000000005,0.05838,-0.29512,6.5,7,22,6,6,30,13.6200390625,22878,35.69261094659558,1008.798546669034,0,,,,N/A
2024-03-23T21:46:00,2.5016960282999996,-1.1659028118499999,9.561120903949998,0.03604104905368291,0.007483099167925688,-0.03405573702953936,0.43526000000000004,0.0623,-0.30058,6.5,7,22,6,6,30,13.6200390625,22878,35.69261094659558,1008.798546669034,0,,,,N/A
2024-03-23T21:46:00,2.4693929231999996,-1.1611171666499998,9.5401837062,0.0316122760767473,0.0070249502392771765,-0.03451388595818787,0.43274000000000007,0.06874000000000001,-0.2888200000000001,6.5,7,22,6,6,30,13.664765625,26148,35.782246305832444,1008.7750485844103,0,,,,N/A
2024-03-23T21:46:00,2.47358036275,-1.1551351101499998,9.49890751635,0.04046982203061852,0.008857545953871223,-0.03497203488683638,0.44142000000000003,0.06258000000000001,-0.28826000000000007,6.5,7,22,6,6,30,13.664765625,26148,35.782246305832444,1008.7750485844103,0,,,,N/A
2024-03-23T21:46:00,2.5052852621999997,-1.16350998925,9.54556755705,0.03604104905368291,0.009010262263420728,-0.03543018381548489,0.43778,0.07014,-0.29022000000000003,6.5,7,22,6,6,30,13.664765625,26148,35.782246305832444,1008.7750485844103,0,,,,N/A
2024-03-23T21:46:00,2.48913370965,-1.12163559375,9.507282395449998,0.03466660226773738,0.009315694882519735,-0.03252857393404432,0.44002,0.0637,-0.27986,6.5,7,22,6,6,30,13.664765625,26148,35.782246305832444,1008.7750485844103,0,,,,N/A
2024-03-23T21:46:00,2.51665116955,-1.1700902514,9.530014210149998,0.038484510006474966,0.0024434609527920616,-0.03313943917224234,0.44002,0.0637,-0.27986,6.5,7,22,6,6,30,13.664765625,26148,35.782246305832444,1008.7750485844103,0,,,,N/A
2024-03-23T21:46:01,2.5597219763499997,-1.15992075535,9.54197832315,0.03329215548179184,0.007941248096574201,-0.02932153143350474,0.44338000000000005,0.06622000000000001,-0.2905,6.5,8,22,6,6,30,13.9175,28285,35.86183068883088,1008.7652916629554,0,,,,N/A
2024-03-23T21:46:01,2.4993032057,-1.1491530536499999,9.562317315249999,0.036193765363232405,0.00916297857297023,-0.03726277953007894,0.44282000000000005,0.0679,-0.29344000000000003,6.5,8,22,6,6,30,13.9175,28285,35.86183068883088,1008.7652916629554,0,,,,N/A
2024-03-23T21:46:01,2.4921247379,-1.1653046061999999,9.567701166099999,0.03726277953007894,0.008704829644321718,-0.03252857393404432,0.44282000000000005,0.0679,-0.29344000000000003,6.5,7,22,6,6,30,13.9175,28285,35.86183068883088,1008.7652916629554,0,,,,N/A
2024-03-23T21:46:01,2.5375883672999997,-1.14317099715,9.557531670049999,0.03481931857728687,0.006261368691529657,-0.030390545600351267,0.44310000000000005,0.06930000000000001,-0.2917600000000001,6.5,7,22,6,6,30,13.9175,28285,35.86183068883088,1008.7652916629554,0,,,,N/A
2024-03-23T21:46:01,2.4634108667000003,-1.1760723079,9.56471013785,0.03787364476827696,0.00946841119206924,-0.03252857393404432,0.44338000000000005,0.062020000000000006,-0.29092,6.5,7,22,6,6,30,13.9175,28285,35.86183068883088,1008.7652916629554,0,,,,N/A
2024-03-23T21:46:02,2.52622245995,-1.160518961,9.6095755616,0.03375030441044035,0.008857545953871223,-0.03344487179134134,0.44170000000000004,0.06734,-0.27132000000000006,6.5,7,22,6,6,30,13.7294140625,27911,35.79940038464101,1008.7829462091877,0,,,,N/A
2024-03-23T21:46:02,2.5184457864999996,-1.1497512592999999,9.53479985535,0.03741549583962844,0.007941248096574201,-0.03466660226773738,0.4403000000000001,0.062020000000000006,-0.28392,6.5,7,22,6,6,30,13.7294140625,27911,35.79940038464101,1008.7829462091877,0,,,,N/A
2024-03-23T21:46:02,2.4933211492,-1.1724830739999998,9.602995299449999,0.03756821214917795,0.008093964406123704,-0.03588833274413341,0.4403000000000001,0.062020000000000006,-0.28392,6.5,7,22,6,6,30,13.7294140625,27911,35.79940038464101,1008.7829462091877,0,,,,N/A
2024-03-23T21:46:02,2.4675983062499998,-1.1491530536499999,9.5545406418,0.03268129024359383,0.004581489286485115,-0.03665191429188092,0.44478,0.0665,-0.2898,6.5,7,22,6,6,30,13.7294140625,27911,35.79940038464101,1008.7829462091877,0,,,,N/A
2024-03-23T21:46:02,2.4915265322499995,-1.1706884570499998,9.53360344405,0.03756821214917795,0.006261368691529657,-0.03512475119638588,0.44310000000000005,0.0665,-0.28574,6.5,7,22,6,6,30,13.7294140625,27911,35.79940038464101,1008.7829462091877,0,,,,N/A
2024-03-23T21:46:03,2.5339991334,-1.1545369045,9.598807859899999,0.03741549583962844,0.009773843811168246,-0.03436116964863837,0.43862000000000007,0.058100000000000006,-0.28518,6.5,7,22,6,6,30,13.46125,27746,35.792818508595985,1008.7772876804493,0,,,,N/A
2024-03-23T21:46:03,2.4789642136,-1.1569297271,9.556933464399998,0.031459559767197796,0.005803219762881146,-0.03527746750593539,0.4397400000000001,0.06678,-0.28392,6.5,7,22,6,6,30,13.46125,27746,35.792818508595985,1008.7772876804493,0,,,,N/A
2024-03-23T21:46:03,2.5004996169999996,-1.19342027175,9.5485585853,0.041996985126113565,0.007941248096574201,-0.03451388595818787,0.44310000000000005,0.06846000000000001,-0.28784000000000004,6.5,7,22,6,6,30,13.46125,27746,35.792818508595985,1008.7772876804493,0,,,,N/A
2024-03-23T21:46:03,2.5184457864999996,-1.14676023105,9.489934431599998,0.0355829001250344,0.010995574287564279,-0.03268129024359383,0.43722000000000005,0.0609,-0.30702,6.5,7,22,6,6,30,13.46125,27746,35.792818508595985,1008.7772876804493,0,,,,N/A
2024-03-23T21:46:03,2.5094727017499996,-1.17667051355,9.521041125399998,0.0357356164345839,0.007483099167925688,-0.0355829001250344,0.4403000000000001,0.06314,-0.28644000000000003,6.5,7,22,6,6,30,13.46125,27746,35.792818508595985,1008.7772876804493,0,,,,N/A
2024-03-23T21:46:04,2.4251257050999997,-1.1533404932,9.5365944723,0.038942658935123484,0.005192354524683131,-0.03252857393404432,0.43750000000000006,0.06734,-0.28140000000000004,6.5,7,22,6,6,30,13.226875,27673,35.86353678831801,1008.7803936247855,0,,,,N/A
2024-03-23T21:46:04,2.4897319152999997,-1.1688938401,9.5449693514,0.03588833274413341,0.006261368691529657,-0.03405573702953936,0.44646,0.062020000000000006,-0.29442,6.5,7,22,6,6,30,13.226875,27673,35.86353678831801,1008.7803936247855,0,,,,N/A
2024-03-23T21:46:04,2.46999112885,-1.1688938401,9.52163933105,0.039095375244672985,0.007635815477475193,-0.03130684345764829,0.43666000000000005,0.06006,-0.29078000000000004,6.5,7,22,6,6,30,13.226875,27673,35.86353678831801,1008.7803936247855,0,,,,N/A
2024-03-23T21:46:04,2.5052852621999997,-1.1772687192,9.625128908499999,0.03512475119638588,0.007330382858376185,-0.03130684345764829,0.44394000000000006,0.06174000000000001,-0.28784000000000004,6.5,7,22,6,6,30,13.226875,27673,35.86353678831801,1008.7803936247855,0,,,,N/A
2024-03-23T21:46:04,2.5088744961,-1.1437692027999997,9.607780944649999,0.038484510006474966,0.007330382858376185,-0.03527746750593539,0.43414,0.06594000000000001,-0.28686,6.5,7,22,6,6,30,13.226875,27673,35.86353678831801,1008.7803936247855,0,,,,N/A
2024-03-23T21:46:04,2.5208386090999992,-1.1641081949,9.5198447141,0.03634648167278191,0.007483099167925688,-0.03313943917224234,0.43414,0.06594000000000001,-0.2982,6.5,7,22,6,6,30,13.226875,27673,35.86353678831801,1008.7803936247855,0,,,,N/A
2024-03-23T21:46:04,2.4777678023,-1.1772687192,9.547362174,0.03512475119638588,0.00473420559603462,-0.0316122760767473,0.43778,0.06286000000000001,-0.2982,6.5,7,22,6,6,30,13.014375,28399,35.94764790323645,1008.7760095380908,0,,,,N/A
2024-03-23T21:46:04,2.45683060455,-1.1682956344499997,9.588638363849999,0.038637226316024474,0.0054977871437821395,-0.03329215548179184,0.43526000000000004,0.06594000000000001,-0.28196000000000004,6.5,7,22,6,6,30,13.014375,28399,35.94764790323645,1008.7760095380908,0,,,,N/A
2024-03-23T21:46:04,2.5172493751999996,-1.16709922315,9.593424009049999,0.0319177086958463,0.007941248096574201,-0.03420845333908886,0.44254000000000004,0.06286000000000001,-0.28854,6.5,7,22,6,6,30,13.014375,28399,35.94764790323645,1008.7760095380908,0,,,,N/A
2024-03-23T21:46:05,2.5220350203999993,-1.1850453926499998,9.51805009715,0.0357356164345839,0.007635815477475193,-0.03588833274413341,0.4333000000000001,0.06286000000000001,-0.29232,6.5,7,22,6,6,30,13.0891796875,32236,36.05145795878214,1008.7450786050963,0,,,,N/A
2024-03-23T21:46:05,2.4520449593499998,-1.16709922315,9.602995299449999,0.03451388595818787,0.008246680715673207,-0.03298672286269283,0.43246,0.06986000000000002,-0.28616,6.5,7,22,6,6,30,13.0891796875,32236,36.05145795878214,1008.7450786050963,0,,,,N/A
2024-03-23T21:46:05,2.5094727017499996,-1.1748758966,9.5401837062,0.03604104905368291,0.009773843811168246,-0.03344487179134134,0.43302,0.06314,-0.29372000000000004,6.5,7,22,6,6,30,13.0891796875,32236,36.05145795878214,1008.7450786050963,0,,,,N/A
2024-03-23T21:46:05,2.45802701585,-1.15992075535,9.62213788025,0.0357356164345839,0.006719517620178169,-0.03252857393404432,0.43750000000000006,0.06286000000000001,-0.29708000000000007,6.5,7,22,6,6,30,13.0891796875,32236,36.05145795878214,1008.7450786050963,0,,,,N/A
2024-03-23T21:46:05,2.5112673186999994,-1.1593225497,9.5198447141,0.03634648167278191,0.0054977871437821395,-0.0357356164345839,0.43750000000000006,0.06286000000000001,-0.29708000000000007,6.5,7,22,6,6,30,13.0891796875,32236,36.05145795878214,1008.7450786050963,0,,,,N/A
2024-03-23T21:46:06,2.4933211492,-1.1790633361499998,9.57547783955,0.038179077387375956,0.006261368691529657,-0.03252857393404432,0.43498000000000003,0.06874000000000001,-0.30128000000000005,6.5,7,23,6,6,31,12.974140625,31538,36.07560086034056,1008.7561691618587,0,,,,N/A
2024-03-23T21:46:06,2.49272294355,-1.1712866627,9.5856473356,0.0355829001250344,0.005803219762881146,-0.031459559767197796,0.43666000000000005,0.06062000000000001,-0.29484000000000005,6.5,7,23,6,6,31,12.974140625,31538,36.07560086034056,1008.7561691618587,0,,,,N/A
2024-03-23T21:46:06,2.47358036275,-1.1617153723,9.56351372655,0.038331793696925465,0.0070249502392771765,-0.03512475119638588,0.4389,0.06706000000000001,-0.29316000000000003,6.5,7,23,6,6,31,12.974140625,31538,36.07560086034056,1008.7561691618587,0,,,,N/A
2024-03-23T21:46:06,2.4987050000499997,-1.14197458585,9.5880401582,0.03527746750593539,0.0056505034533316425,-0.03436116964863837,0.44198000000000004,0.06454,-0.2968,6.5,7,23,6,6,31,12.974140625,31538,36.07560086034056,1008.7561691618587,0,,,,N/A
2024-03-23T21:46:06,2.4807588305499997,-1.15872434405,9.56590654915,0.03130684345764829,0.008552113334772215,-0.03252857393404432,0.44198000000000004,0.06454,-0.2968,6.5,7,23,6,6,31,12.974140625,31538,36.07560086034056,1008.7561691618587,0,,,,N/A
2024-03-23T21:46:07,2.43768802375,-1.15274228755,9.5928258034,0.03512475119638588,0.010842857978014774,-0.029626964052603746,0.4459,0.07126,-0.29120000000000007,6.5,7,23,6,6,31,12.828828125,31398,36.18289720201888,1008.7709168991131,0,,,,N/A
2024-03-23T21:46:07,2.5070798791499995,-1.1575279327499999,9.549156790949999,0.04077525464971753,0.009315694882519735,-0.03313943917224234,0.44170000000000004,0.06426000000000001,-0.30716000000000004,6.5,7,23,6,6,31,12.828828125,31398,36.18289720201888,1008.7709168991131,0,,,,N/A
2024-03-23T21:46:07,2.4993032057,-1.1784651305,9.598807859899999,0.039706240482871004,0.010079276430267254,-0.03390302071998985,0.43666000000000005,0.07266000000000002,-0.29792,6.5,7,23,6,6,31,12.828828125,31398,36.18289720201888,1008.7709168991131,0,,,,N/A
2024-03-23T21:46:07,2.4831516531499993,-1.13599252935,9.627521731099998,0.038637226316024474,0.0054977871437821395,-0.03405573702953936,0.44002,0.06006,-0.29036,6.5,7,23,6,6,31,12.828828125,31398,36.18289720201888,1008.7709168991131,0,,,,N/A
2024-03-23T21:46:07,2.5082762904499996,-1.1814561587499999,9.5294160045,0.03634648167278191,0.008552113334772215,-0.03405573702953936,0.44002,0.06006,-0.29036,6.5,7,23,6,6,31,12.828828125,31398,36.18289720201888,1008.7709168991131,0,,,,N/A
2024-03-23T21:46:08,2.4873390927,-1.160518961,9.579665279099999,0.036193765363232405,0.0056505034533316425,-0.03481931857728687,0.43526000000000004,0.06482,-0.29568,6.5,7,23,6,6,31,12.695625,31847,36.314226571721676,1008.7708130999007,0,,,,N/A
2024-03-23T21:46:08,2.4945175605,-1.1617153723,9.4947200768,0.03375030441044035,0.004123340357836604,-0.03787364476827696,0.43834,0.0609,-0.29022000000000003,6.5,7,23,6,6,31,12.695625,31847,36.314226571721676,1008.7708130999007,0,,,,N/A
2024-03-23T21:46:08,2.50468705655,-1.1748758966,9.589236569499999,0.03237585762449482,0.0036651914291880926,-0.03268129024359383,0.43862000000000007,0.060340000000000005,-0.30100000000000005,6.5,7,23,6,6,31,12.695625,31847,36.314226571721676,1008.7708130999007,0,,,,N/A
2024-03-23T21:46:08,2.4622144553999994,-1.1593225497,9.55513884745,0.03604104905368291,0.008246680715673207,-0.03543018381548489,0.43862000000000007,0.060340000000000005,-0.30100000000000005,6.5,7,23,6,6,31,12.695625,31847,36.314226571721676,1008.7708130999007,0,,,,N/A
2024-03-23T21:46:08,2.5016960282999996,-1.184447187,9.637691227149999,0.03252857393404432,0.006414085001079162,-0.03436116964863837,0.43918000000000007,0.07154,-0.30408,6.5,7,23,6,6,31,12.695625,31847,36.314226571721676,1008.7708130999007,0,,,,N/A
2024-03-23T21:46:09,2.48793729835,-1.1850453926499998,9.5365944723,0.036193765363232405,0.006261368691529657,-0.03787364476827696,0.43526000000000004,0.06454,-0.30156,6.5,7,23,6,6,31,12.5801953125,32236,36.46441382788691,1008.7740577000513,0,,,,N/A
2024-03-23T21:46:09,2.53340092775,-1.1682956344499997,9.634101993249999,0.03726277953007894,0.01114829059711378,-0.03588833274413341,0.44394000000000006,0.061180000000000005,-0.29638000000000003,6.5,7,23,6,6,31,12.5801953125,32236,36.46441382788691,1008.7740577000513,0,,,,N/A
2024-03-23T21:46:09,2.4909283265999997,-1.1593225497,9.580861690399999,0.03772092845872745,0.0070249502392771765,-0.03390302071998985,0.4459,0.0707,-0.2947000000000001,6.5,7,23,6,6,31,12.5801953125,32236,36.46441382788691,1008.7740577000513,0,,,,N/A
2024-03-23T21:46:09,2.55613274245,-1.1688938401,9.583852718649998,0.03313943917224234,0.007635815477475193,-0.03313943917224234,0.44702000000000003,0.06818,-0.2788800000000001,6.5,7,23,6,6,31,12.5801953125,32236,36.46441382788691,1008.7740577000513,0,,,,N/A
2024-03-23T21:46:09,2.5112673186999994,-1.15034946495,9.610771972899999,0.03695734691097993,0.004581489286485115,-0.0319177086958463,0.44702000000000003,0.06818,-0.2788800000000001,6.5,7,23,6,6,31,12.5801953125,32236,36.46441382788691,1008.7740577000513,0,,,,N/A
2024-03-23T21:46:09,2.50468705655,-1.1593225497,9.570093988699998,0.03543018381548489,0.007330382858376185,-0.03481931857728687,0.45178,0.07322000000000001,-0.29890000000000005,6.5,7,23,6,6,31,12.5801953125,32236,36.46441382788691,1008.7740577000513,0,,,,N/A
2024-03-23T21:46:09,2.51665116955,-1.1850453926499998,9.547960379649998,0.03375030441044035,0.007177666548826681,-0.03252857393404432,0.44282000000000005,0.06482,-0.29582,6.5,7,23,6,6,31,12.4887890625,32736,36.628332263174535,1008.7806170949001,0,,,,N/A
2024-03-23T21:46:09,2.4670001006,-1.1509476706000001,9.6000042712,0.03772092845872745,0.0056505034533316425,-0.03359758810089085,0.43470000000000003,0.0637,-0.30926000000000003,6.5,7,23,6,6,31,12.4887890625,32736,36.628332263174535,1008.7806170949001,0,,,,N/A
2024-03-23T21:46:09,2.46999112885,-1.1808579531,9.616155823749999,0.03237585762449482,0.003207042500539581,-0.03390302071998985,0.43470000000000003,0.0637,-0.30926000000000003,6.5,7,23,6,6,31,12.4887890625,32736,36.628332263174535,1008.7806170949001,0,,,,N/A
2024-03-23T21:46:10,2.45802701585,-1.1521440819,9.607182738999999,0.03802636107782646,0.005192354524683131,-0.0357356164345839,0.44142000000000003,0.06846000000000001,-0.29036,6.5,7,23,6,6,31,12.6583203125,37207,36.74105256516671,1008.7662863382149,0,,,,N/A
2024-03-23T21:46:10,2.4723839514499995,-1.1706884570499998,9.608977355949998,0.03787364476827696,0.004276056667386108,-0.03604104905368291,0.44926000000000005,0.06734,-0.29022000000000003,6.5,7,23,6,6,31,12.6583203125,37207,36.74105256516671,1008.7662863382149,0,,,,N/A
2024-03-23T21:46:10,2.4819552418499997,-1.1461620253999998,9.6263253198,0.03543018381548489,0.0056505034533316425,-0.03252857393404432,0.44310000000000005,0.06342,-0.2933,6.5,7,23,6,6,31,12.6583203125,37207,36.74105256516671,1008.7662863382149,0,,,,N/A
2024-03-23T21:46:10,2.44008084635,-1.1796615417999998,9.6538427797,0.038789942625573975,0.008552113334772215,-0.03451388595818787,0.44310000000000005,0.06342,-0.2933,6.5,7,23,6,6,31,12.6583203125,37207,36.74105256516671,1008.7662863382149,0,,,,N/A
2024-03-23T21:46:10,2.5112673186999994,-1.1659028118499999,9.6000042712,0.03054326190990077,0.007483099167925688,-0.03466660226773738,0.44198000000000004,0.06986000000000002,-0.28812,6.5,7,23,6,6,31,12.6583203125,37207,36.74105256516671,1008.7662863382149,0,,,,N/A
2024-03-23T21:46:11,2.4574288101999997,-1.15154587625,9.632307376299998,0.039706240482871004,0.0018325957145940463,-0.03329215548179184,0.44114000000000003,0.06958000000000002,-0.28518,6.5,7,23,6,6,31,12.621796875,35879,36.83545075837538,1008.7822648064997,0,,,,N/A
2024-03-23T21:46:11,2.48674088705,-1.1796615417999998,9.59462042035,0.0319177086958463,0.007941248096574201,-0.0357356164345839,0.43778,0.06930000000000001,-0.28126000000000007,6.5,7,23,6,6,31,12.621796875,35879,36.83545075837538,1008.7822648064997,0,,,,N/A
2024-03-23T21:46:11,2.4969103831,-1.1700902514,9.62692352545,0.03344487179134134,0.004886921905584123,-0.03634648167278191,0.44170000000000004,0.0763,-0.29190000000000005,6.5,7,23,6,6,31,12.621796875,35879,36.83545075837538,1008.7822648064997,0,,,,N/A
2024-03-23T21:46:11,2.4825534474999995,-1.1491530536499999,9.669994332249999,0.03543018381548489,0.007635815477475193,-0.03726277953007894,0.44170000000000004,0.0763,-0.29190000000000005,6.5,7,23,6,6,31,12.621796875,35879,36.83545075837538,1008.7822648064997,0,,,,N/A
2024-03-23T21:46:11,2.4975085887499997,-1.1778669248499998,9.61137017855,0.04306599929296009,0.0056505034533316425,-0.03359758810089085,0.44058,0.06930000000000001,-0.29148,6.5,7,23,6,6,31,12.621796875,35879,36.83545075837538,1008.7822648064997,0,,,,N/A
2024-03-23T21:46:12,2.5351955446999996,-1.1353943237,9.551549613549998,0.036804630601430424,0.006414085001079162,-0.038179077387375956,0.44450000000000006,0.06594000000000001,-0.28938,6.5,7,23,6,6,31,12.535078125,35727,36.97140260551645,1008.7809377503144,0,,,,N/A
2024-03-23T21:46:12,2.5531417142,-1.1611171666499998,9.5413801175,0.03298672286269283,0.005803219762881146,-0.03436116964863837,0.44814000000000004,0.06902000000000001,-0.29120000000000007,6.5,7,23,6,6,31,12.535078125,35727,36.97140260551645,1008.7809377503144,0,,,,N/A
2024-03-23T21:46:12,2.50468705655,-1.1641081949,9.61495941245,0.03772092845872745,0.004123340357836604,-0.03772092845872745,0.44814000000000004,0.06902000000000001,-0.29120000000000007,6.5,7,23,6,6,31,12.535078125,35727,36.97140260551645,1008.7809377503144,0,,,,N/A
2024-03-23T21:46:12,2.4807588305499997,-1.1623135779499998,9.633503787599999,0.03375030441044035,0.005803219762881146,-0.037110063220529434,0.44338000000000005,0.07266000000000002,-0.2856,6.5,7,23,6,6,31,12.535078125,35727,36.97140260551645,1008.7809377503144,0,,,,N/A
2024-03-23T21:46:12,2.50468705655,-1.1575279327499999,9.6000042712,0.03634648167278191,0.007177666548826681,-0.03420845333908886,0.43834,0.07014,-0.28896000000000005,6.5,7,23,6,6,31,12.535078125,35727,36.97140260551645,1008.7809377503144,0,,,,N/A
2024-03-23T21:46:13,2.5010978226500002,-1.1485548479999999,9.523433948,0.041691552507014555,0.008552113334772215,-0.03466660226773738,0.44254000000000004,0.06958000000000002,-0.29148,6.5,7,22,6,6,30,12.4548046875,35879,37.1598479568801,1008.7815911562789,0,,,,N/A
2024-03-23T21:46:13,2.4628126610499996,-1.1401799688999998,9.5545406418,0.02855794988575722,0.006719517620178169,-0.03665191429188092,0.4397400000000001,0.0637,-0.29638000000000003,6.5,7,22,6,6,30,12.4548046875,35879,37.1598479568801,1008.7815911562789,0,,,,N/A
2024-03-23T21:46:13,2.5082762904499996,-1.1946166830499998,9.6801638283,0.0024434609527920616,0.003207042500539581,-0.03604104905368291,0.4397400000000001,0.0637,-0.29638000000000003,6.5,7,22,6,6,30,12.4548046875,35879,37.1598479568801,1008.7815911562789,0,,,,N/A
2024-03-23T21:46:13,2.55613274245,-1.1252248276499999,9.556933464399998,0.03222314131494531,0.007941248096574201,-0.03497203488683638,0.43918000000000007,0.06454,-0.28616,6.5,7,22,6,6,30,12.4548046875,35879,37.1598479568801,1008.7815911562789,0,,,,N/A
2024-03-23T21:46:13,2.5148565526,-1.1294122671999998,9.677771005699999,0.04321871560250959,0.008093964406123704,-0.03298672286269283,0.44702000000000003,0.0707,-0.28252000000000005,6.5,7,22,6,6,30,12.4548046875,35879,37.1598479568801,1008.7815911562789,0,,,,N/A
2024-03-23T21:46:14,2.5381865729499995,-1.1653046061999999,9.566504754799999,0.031001410838549282,0.0036651914291880926,-0.031154127148098783,0.44282000000000005,0.06818,-0.28952000000000006,6.5,7,21,6,5,29,12.382734375,36156,37.34923882865014,1008.7819241780057,0,,,,N/A
2024-03-23T21:46:14,2.4550359876,-1.1623135779499998,9.608977355949998,0.03466660226773738,0.0054977871437821395,-0.03527746750593539,0.44422,0.06930000000000001,-0.2905,6.5,7,21,6,5,29,12.382734375,36156,37.34923882865014,1008.7819241780057,0,,,,N/A
2024-03-23T21:46:14,2.4981067943999995,-1.1706884570499998,9.5736832226,0.038179077387375956,0.006414085001079162,-0.03787364476827696,0.44422,0.06930000000000001,-0.2905,6.5,7,21,6,5,29,12.382734375,36156,37.34923882865014,1008.7819241780057,0,,,,N/A
2024-03-23T21:46:14,2.5292134882,-1.14317099715,9.576076045199999,0.03207042500539581,0.008246680715673207,-0.03298672286269283,0.44338000000000005,0.0665,-0.27804,6.5,7,21,6,5,29,12.382734375,36156,37.34923882865014,1008.7819241780057,0,,,,N/A
2024-03-23T21:46:14,2.4993032057,-1.17667051355,9.63290558195,0.036499197982331415,0.00473420559603462,-0.03405573702953936,0.44058,0.0763,-0.28266,6.5,7,21,6,5,29,12.382734375,36156,37.34923882865014,1008.7819241780057,0,,,,N/A
2024-03-23T21:46:14,2.50349064525,-1.17547410225,9.576076045199999,0.03420845333908886,0.007788531787024696,-0.03359758810089085,0.4403000000000001,0.06286000000000001,-0.29610000000000003,6.5,7,21,6,5,29,12.382734375,36156,37.34923882865014,1008.7819241780057,0,,,,N/A
2024-03-23T21:46:14,2.4981067943999995,-1.1898310378499999,9.59940606555,0.03604104905368291,0.006719517620178169,-0.03436116964863837,0.4403000000000001,0.06286000000000001,-0.29610000000000003,6.5,7,21,6,5,29,12.3243359375,37044,37.55739496220983,1008.787569728005,0,,,,N/A
2024-03-23T21:46:14,2.50588346785,-1.1778669248499998,9.5461657627,0.03420845333908886,0.003207042500539581,-0.04016438941151951,0.43918000000000007,0.05922000000000001,-0.2917600000000001,6.5,7,21,6,5,29,12.3243359375,37044,37.55739496220983,1008.787569728005,0,,,,N/A
2024-03-23T21:46:14,2.4807588305499997,-1.1659028118499999,9.620343263299999,0.03527746750593539,0.0038179077387375964,-0.03283400655314333,0.43610000000000004,0.058660000000000004,-0.30282000000000003,6.5,7,21,6,5,29,12.3243359375,37044,37.55739496220983,1008.787569728005,0,,,,N/A
2024-03-23T21:46:15,2.54895427465,-1.1252248276499999,9.6347001989,0.0357356164345839,0.01069014166846527,-0.03313943917224234,0.44142000000000003,0.07854000000000001,-0.30086,6.5,7,23,6,6,32,12.5169140625,41200,37.6846413147726,1008.7820949054129,0,,,,N/A
2024-03-23T21:46:15,2.4616162497499996,-1.1772687192,9.6825566509,0.039095375244672985,0.003970624048287101,-0.03436116964863837,0.44142000000000003,0.07854000000000001,-0.30394000000000004,6.5,7,23,6,6,32,12.5169140625,41200,37.6846413147726,1008.7820949054129,0,,,,N/A
2024-03-23T21:46:15,2.4963121774499997,-1.14197458585,9.579665279099999,0.03451388595818787,0.008246680715673207,-0.03420845333908886,0.44142000000000003,0.06566000000000001,-0.30394000000000004,6.5,7,24,7,6,33,12.5169140625,41200,37.6846413147726,1008.7820949054129,0,,,,N/A
2024-03-23T21:46:15,2.5100709073999994,-1.1521440819,9.6394858441,0.04016438941151951,0.005803219762881146,-0.0355829001250344,0.44534,0.06958000000000002,-0.29708000000000007,6.5,7,24,7,6,33,12.5169140625,41200,37.6846413147726,1008.7820949054129,0,,,,N/A
2024-03-23T21:46:15,2.5070798791499995,-1.1575279327499999,9.574879633899998,0.03588833274413341,0.008093964406123704,-0.03512475119638588,0.45150000000000007,0.06258000000000001,-0.29764,6.5,7,24,7,6,33,12.5169140625,41200,37.6846413147726,1008.7820949054129,0,,,,N/A
2024-03-23T21:46:16,2.4951157661499996,-1.18384898135,9.61017376725,0.03344487179134134,0.005039638215133627,-0.0319177086958463,0.44198000000000004,0.07014,-0.28714000000000006,6.5,8,25,7,7,35,12.4815625,40257,37.78546971190392,1008.7877781246377,0,,,,N/A
2024-03-23T21:46:16,2.52263322605,-1.1820543644,9.588638363849999,0.03588833274413341,0.008857545953871223,-0.031764992386296806,0.44198000000000004,0.07014,-0.28714000000000006,6.5,8,25,7,7,35,12.4815625,40257,37.78546971190392,1008.7877781246377,0,,,,N/A
2024-03-23T21:46:16,2.4915265322499995,-1.1665010175,9.605388122049998,0.0355829001250344,0.006566801310628666,-0.03344487179134134,0.44562000000000007,0.07406,-0.29596000000000006,6.5,8,25,7,7,35,12.4815625,40257,37.78546971190392,1008.7877781246377,0,,,,N/A
2024-03-23T21:46:16,2.5447668350999995,-1.1706884570499998,9.53360344405,0.03466660226773738,0.007330382858376185,-0.03344487179134134,0.43554000000000004,0.06454,-0.28182000000000007,6.5,8,25,7,7,35,12.4815625,40257,37.78546971190392,1008.7877781246377,0,,,,N/A
2024-03-23T21:46:16,2.4969103831,-1.1497512592999999,9.595218626,0.038637226316024474,0.009010262263420728,-0.03420845333908886,0.44198000000000004,0.06762,-0.29540000000000005,6.5,8,25,7,7,35,12.4815625,40257,37.78546971190392,1008.7877781246377,0,,,,N/A
2024-03-23T21:46:17,2.4909283265999997,-1.1330015010999999,9.598209654249999,0.03588833274413341,0.007177666548826681,-0.03695734691097993,0.44198000000000004,0.06622000000000001,-0.2829400000000001,6.5,7,25,7,6,34,12.38078125,40257,37.92088002323654,1008.7978705292974,0,,,,N/A
2024-03-23T21:46:17,2.48913370965,-1.1868400096,9.588638363849999,0.03481931857728687,0.007177666548826681,-0.03588833274413341,0.44058,0.06342,-0.29302000000000006,6.5,7,25,7,6,34,12.38078125,40257,37.92088002323654,1008.7978705292974,0,,,,N/A
2024-03-23T21:46:17,2.48674088705,-1.1790633361499998,9.598807859899999,0.038484510006474966,0.006414085001079162,-0.03695734691097993,0.44450000000000006,0.0609,-0.28812,6.5,7,25,7,6,34,12.38078125,40257,37.92088002323654,1008.7978705292974,0,,,,N/A
2024-03-23T21:46:17,2.5423740125,-1.1682956344499997,9.509077012399999,0.03543018381548489,0.008246680715673207,-0.03451388595818787,0.44254000000000004,0.06930000000000001,-0.28336,6.5,7,25,7,6,34,12.38078125,40257,37.92088002323654,1008.7978705292974,0,,,,N/A
2024-03-23T21:46:17,2.5076780847999998,-1.160518961,9.62333429155,0.031764992386296806,0.007330382858376185,-0.03588833274413341,0.44254000000000004,0.06930000000000001,-0.28336,6.5,7,25,7,6,34,12.38078125,40257,37.92088002323654,1008.7978705292974,0,,,,N/A
2024-03-23T21:46:18,2.4717857457999997,-1.1425727915,9.6227360859,0.03359758810089085,0.006566801310628666,-0.03390302071998985,0.44282000000000005,0.07462,-0.27734000000000003,6.5,7,24,7,6,33,12.288984375,40684,38.03983519273485,1008.8054386293065,0,,,,N/A
2024-03-23T21:46:18,2.4789642136,-1.16350998925,9.580861690399999,0.03527746750593539,0.007177666548826681,-0.03772092845872745,0.44702000000000003,0.07266000000000002,-0.28,6.5,7,24,7,6,33,12.288984375,40684,38.03983519273485,1008.8054386293065,0,,,,N/A
2024-03-23T21:46:18,2.4903301209499995,-1.1784651305,9.5868437469,0.03741549583962844,0.00595593607243065,-0.03359758810089085,0.44394000000000006,0.06622000000000001,-0.27790000000000004,6.5,7,24,7,6,33,12.288984375,40684,38.03983519273485,1008.8054386293065,0,,,,N/A
2024-03-23T21:46:18,2.5393829842499995,-1.1581261384,9.495318282449999,0.03268129024359383,0.010231992739816757,-0.03527746750593539,0.44534,0.06846000000000001,-0.2681,6.5,7,24,7,6,33,12.288984375,40684,38.03983519273485,1008.8054386293065,0,,,,N/A
2024-03-23T21:46:18,2.4993032057,-1.1617153723,9.594022214699999,0.038484510006474966,0.008552113334772215,-0.03604104905368291,0.44534,0.06846000000000001,-0.2681,6.5,7,24,7,6,33,12.288984375,40684,38.03983519273485,1008.8054386293065,0,,,,N/A
2024-03-23T21:46:19,2.52263322605,-1.1509476706000001,9.617950440699998,0.03283400655314333,0.006719517620178169,-0.03405573702953936,0.44002,0.07602,-0.28140000000000004,6.5,7,24,7,6,33,12.2149609375,40960,38.15469903272601,1008.8164216389589,0,,,,N/A
2024-03-23T21:46:19,2.5639094158999995,-1.1551351101499998,9.57428142825,0.03497203488683638,0.005039638215133627,-0.03436116964863837,0.4403000000000001,0.07042,-0.29414000000000007,6.5,7,24,7,6,33,12.2149609375,40960,38.15469903272601,1008.8164216389589,0,,,,N/A
2024-03-23T21:46:19,2.4969103831,-1.1551351101499998,9.583254513,0.036193765363232405,0.0054977871437821395,-0.030390545600351267,0.43918000000000007,0.07378,-0.29232,6.5,7,24,7,6,33,12.2149609375,40960,38.15469903272601,1008.8164216389589,0,,,,N/A
2024-03-23T21:46:19,2.4963121774499997,-1.1557333157999998,9.560522698299998,0.03237585762449482,0.008093964406123704,-0.03207042500539581,0.43918000000000007,0.0679,-0.27902000000000005,6.5,7,24,7,6,33,12.2149609375,40960,38.15469903272601,1008.8164216389589,0,,,,N/A
2024-03-23T21:46:19,2.4789642136,-1.1491530536499999,9.5964150373,0.03420845333908886,0.004581489286485115,-0.037110063220529434,0.43386,0.06706000000000001,-0.27832000000000007,6.5,7,24,7,6,33,12.2149609375,40960,38.15469903272601,1008.8164216389589,0,,,,N/A
2024-03-23T21:46:19,2.50588346785,-1.16350998925,9.643075077999999,0.041386119887915546,0.005803219762881146,-0.03436116964863837,0.43386,0.06706000000000001,-0.27832000000000007,6.5,7,24,7,6,33,12.2149609375,40960,38.15469903272601,1008.8164216389589,0,,,,N/A
2024-03-23T21:46:19,2.4963121774499997,-1.1718848683499998,9.61137017855,0.03344487179134134,0.005803219762881146,-0.03359758810089085,0.43526000000000004,0.06986000000000002,-0.2926,6.5,7,24,7,6,33,12.16515625,41361,38.26026150550315,1008.820642340527,0,,,,N/A
2024-03-23T21:46:19,2.54895427465,-1.14317099715,9.620343263299999,0.03436116964863837,0.009621127501618741,-0.038179077387375956,0.43722000000000005,0.07322000000000001,-0.2891,6.5,7,24,7,6,33,12.16515625,41361,38.26026150550315,1008.820642340527,0,,,,N/A
2024-03-23T21:46:19,2.4969103831,-1.1389835575999998,9.580861690399999,0.036804630601430424,0.008704829644321718,-0.03054326190990077,0.43722000000000005,0.07322000000000001,-0.2891,6.5,7,24,7,6,33,12.16515625,41361,38.26026150550315,1008.820642340527,0,,,,N/A
2024-03-23T21:46:20,2.52263322605,-1.15872434405,9.53360344405,0.03695734691097993,0.0056505034533316425,-0.038484510006474966,0.44814000000000004,0.06930000000000001,-0.28672000000000003,6.5,7,24,7,6,33,12.3659375,45604,38.38898666794359,1008.8045491135239,0,,,,N/A
2024-03-23T21:46:20,2.548356069,-1.1569297271,9.560522698299998,0.03420845333908886,0.0070249502392771765,-0.03130684345764829,0.44142000000000003,0.06762,-0.29848,6.5,7,24,7,6,33,12.3659375,45604,38.38898666794359,1008.8045491135239,0,,,,N/A
2024-03-23T21:46:20,2.5142583469499997,-1.1318050897999998,9.6658068927,0.03604104905368291,0.006719517620178169,-0.03497203488683638,0.43750000000000006,0.0623,-0.29344000000000003,6.5,7,24,7,6,33,12.3659375,45604,38.38898666794359,1008.8045491135239,0,,,,N/A
2024-03-23T21:46:20,2.52263322605,-1.16949204575,9.5916293921,0.03497203488683638,0.007483099167925688,-0.03222314131494531,0.43722000000000005,0.0665,-0.29134000000000004,6.5,7,24,7,6,33,12.3659375,45604,38.38898666794359,1008.8045491135239,0,,,,N/A
2024-03-23T21:46:20,2.4945175605,-1.1581261384,9.6000042712,0.038484510006474966,0.005803219762881146,-0.029626964052603746,0.43722000000000005,0.0665,-0.29134000000000004,6.5,7,24,7,6,33,12.3659375,45604,38.38898666794359,1008.8045491135239,0,,,,N/A
2024-03-23T21:46:21,2.4981067943999995,-1.1796615417999998,9.57547783955,0.03741549583962844,0.005345070834232635,-0.03466660226773738,0.4571,0.07798000000000001,-0.29862,6.5,7,24,7,6,33,12.35421875,44830,38.45757786431525,1008.8077077474519,0,,,,N/A
2024-03-23T21:46:21,2.4610180441,-1.1545369045,9.623932497199998,0.0357356164345839,0.005192354524683131,-0.0357356164345839,0.44310000000000005,0.0609,-0.28854,6.5,7,24,7,6,33,12.35421875,44830,38.45757786431525,1008.8077077474519,0,,,,N/A
2024-03-23T21:46:21,2.4945175605,-1.1545369045,9.66760150965,0.03481931857728687,0.004123340357836604,-0.03222314131494531,0.44366,0.06706000000000001,-0.29918,6.5,7,24,7,6,33,12.35421875,44830,38.45757786431525,1008.8077077474519,0,,,,N/A
2024-03-23T21:46:21,2.5860430249499995,-1.1545369045,9.513264451949999,0.03802636107782646,0.0025961772623415654,-0.03359758810089085,0.4473000000000001,0.06846000000000001,-0.28952000000000006,6.5,7,24,7,6,33,12.35421875,44830,38.45757786431525,1008.8077077474519,0,,,,N/A
2024-03-23T21:46:21,2.5172493751999996,-1.1682956344499997,9.616155823749999,0.03481931857728687,0.008857545953871223,-0.03726277953007894,0.4473000000000001,0.06846000000000001,-0.28952000000000006,6.5,7,24,7,6,33,12.35421875,44830,38.45757786431525,1008.8077077474519,0,,,,N/A
2024-03-23T21:46:22,2.4903301209499995,-1.1312068841499998,9.629914553699999,0.03497203488683638,0.00946841119206924,-0.03497203488683638,0.44086000000000003,0.06902000000000001,-0.29764,6.5,7,24,7,6,33,12.279609375,44499,38.52037861275001,1008.8125000076917,0,,,,N/A
2024-03-23T21:46:22,2.4239292938,-1.1623135779499998,9.59222759775,0.03420845333908886,0.008399397025222712,-0.038179077387375956,0.44478,0.0651,-0.28756,6.5,7,24,7,6,33,12.279609375,44499,38.52037861275001,1008.8125000076917,0,,,,N/A
2024-03-23T21:46:22,2.50349064525,-1.15034946495,9.5904329808,0.03802636107782646,0.01145372321621279,-0.03313943917224234,0.43694000000000005,0.06762,-0.29386,6.5,7,24,7,6,33,12.279609375,44499,38.52037861275001,1008.8125000076917,0,,,,N/A
2024-03-23T21:46:22,2.53699016165,-1.1790633361499998,9.61854864635,0.03451388595818787,0.003970624048287101,-0.031764992386296806,0.4473000000000001,0.0651,-0.3003,6.5,7,24,7,6,33,12.279609375,44499,38.52037861275001,1008.8125000076917,0,,,,N/A
2024-03-23T21:46:22,2.4945175605,-1.15393869885,9.6035935051,0.03497203488683638,0.0068722339297276735,-0.03237585762449482,0.4473000000000001,0.0651,-0.3003,6.5,7,24,7,6,33,12.279609375,44499,38.52037861275001,1008.8125000076917,0,,,,N/A
2024-03-23T21:46:23,2.5022942339499994,-1.13479611805,9.60419171075,0.03772092845872745,0.005803219762881146,-0.0355829001250344,0.44226000000000004,0.07294000000000002,-0.29456,6.5,7,24,7,6,33,12.204609375,44499,38.618032957697785,1008.8131251794823,0,,,,N/A
2024-03-23T21:46:23,2.48674088705,-1.1551351101499998,9.646066106249998,0.038637226316024474,0.008246680715673207,-0.039400807863771994,0.44002,0.07658000000000001,-0.28952000000000006,6.5,7,24,7,6,33,12.204609375,44499,38.618032957697785,1008.8131251794823,0,,,,N/A
2024-03-23T21:46:23,2.51186552435,-1.1802597474499998,9.595218626,0.03756821214917795,0.003207042500539581,-0.03665191429188092,0.44058,0.06538000000000001,-0.29204,6.5,7,24,7,6,33,12.204609375,44499,38.618032957697785,1008.8131251794823,0,,,,N/A
2024-03-23T21:46:23,2.5016960282999996,-1.17427769095,9.5018985446,0.03756821214917795,0.007177666548826681,-0.031459559767197796,0.44478,0.0651,-0.2788800000000001,6.5,7,24,7,6,33,12.204609375,44499,38.618032957697785,1008.8131251794823,0,,,,N/A
2024-03-23T21:46:23,2.50588346785,-1.1473584366999998,9.5521478192,0.03802636107782646,0.005345070834232635,-0.03588833274413341,0.44478,0.0651,-0.2788800000000001,6.5,7,24,7,6,33,12.204609375,44499,38.618032957697785,1008.8131251794823,0,,,,N/A
2024-03-23T21:46:24,2.46400907235,-1.1856435983,9.598807859899999,0.03604104905368291,0.009621127501618741,-0.03466660226773738,0.43022000000000005,0.07014,-0.29890000000000005,6.5,7,24,7,6,33,12.1352734375,45069,38.7278935079111,1008.8266591272753,0,,,,N/A
2024-03-23T21:46:24,2.50468705655,-1.15872434405,9.5928258034,0.041080687268816536,0.008704829644321718,-0.03543018381548489,0.43834,0.0665,-0.28196000000000004,6.5,7,24,7,6,33,12.1352734375,45069,38.7278935079111,1008.8266591272753,0,,,,N/A
2024-03-23T21:46:24,2.5076780847999998,-1.1497512592999999,9.6012006825,0.03741549583962844,0.005345070834232635,-0.03420845333908886,0.43834,0.0665,-0.28196000000000004,6.5,7,24,7,6,33,12.1352734375,45069,38.7278935079111,1008.8266591272753,0,,,,N/A
2024-03-23T21:46:24,2.5304098994999995,-1.1676974288,9.547960379649998,0.03756821214917795,0.01114829059711378,-0.03420845333908886,0.43694000000000005,0.06930000000000001,-0.28966000000000003,6.5,7,24,7,6,33,12.1352734375,45069,38.7278935079111,1008.8266591272753,0,,,,N/A
2024-03-23T21:46:24,2.5328027221,-1.1593225497,9.513264451949999,0.039553524173321496,0.010995574287564279,-0.03313943917224234,0.44394000000000006,0.0735,-0.2933,6.5,7,24,7,6,33,12.1352734375,45069,38.7278935079111,1008.8266591272753,0,,,,N/A
2024-03-23T21:46:24,2.4921247379,-1.1647064005499999,9.606584533349999,0.0355829001250344,0.0056505034533316425,-0.03252857393404432,0.44814000000000004,0.06846000000000001,-0.29246000000000005,6.5,7,24,7,6,33,12.1352734375,45069,38.7278935079111,1008.8266591272753,0,,,,N/A
2024-03-23T21:46:24,2.5088744961,-1.1808579531,9.6035935051,0.03756821214917795,0.005345070834232635,-0.03604104905368291,0.44310000000000005,0.06594000000000001,-0.28868,6.5,7,24,7,6,33,12.0690625,45703,38.81483090471903,1008.8401455348765,0,,,,N/A
2024-03-23T21:46:24,2.4311077616,-1.1545369045,9.6538427797,0.036193765363232405,0.007177666548826681,-0.03283400655314333,0.43582000000000004,0.07378,-0.29484000000000005,6.5,7,24,7,6,33,12.0690625,45703,38.81483090471903,1008.8401455348765,0,,,,N/A
2024-03-23T21:46:24,2.5052852621999997,-1.1551351101499998,9.595218626,0.03298672286269283,0.007788531787024696,-0.03466660226773738,0.44142000000000003,0.06986000000000002,-0.29036,6.5,7,24,7,6,33,12.0690625,45703,38.81483090471903,1008.8401455348765,0,,,,N/A
2024-03-23T21:46:25,2.5244278430000002,-1.1485548479999999,9.5772724565,0.03802636107782646,0.007635815477475193,-0.0357356164345839,0.43358,0.07042,-0.30828000000000005,6.5,7,24,7,6,33,12.255,50639,38.901983423428845,1008.8151076409026,0,,,,N/A
2024-03-23T21:46:25,2.4801606249,-1.1617153723,9.580861690399999,0.03466660226773738,0.006414085001079162,-0.03634648167278191,0.43806000000000006,0.06762,-0.29428000000000004,6.5,7,24,7,6,33,12.255,50639,38.901983423428845,1008.8151076409026,0,,,,N/A
2024-03-23T21:46:25,2.5214368147499995,-1.2035897677999998,9.5880401582,0.039095375244672985,0.00595593607243065,-0.036193765363232405,0.43806000000000006,0.06762,-0.29428000000000004,6.5,7,24,7,6,33,12.255,50639,38.901983423428845,1008.8151076409026,0,,,,N/A
2024-03-23T21:46:25,2.52741887125,-1.1461620253999998,9.593424009049999,0.036193765363232405,0.007788531787024696,-0.03466660226773738,0.43610000000000004,0.06314,-0.29694000000000004,6.5,7,24,7,6,33,12.255,50639,38.901983423428845,1008.8151076409026,0,,,,N/A
2024-03-23T21:46:25,2.4957139718,-1.1569297271,9.597611448599999,0.037110063220529434,0.0036651914291880926,-0.03772092845872745,0.44422,0.06566000000000001,-0.2917600000000001,6.5,7,24,7,6,33,12.255,50639,38.901983423428845,1008.8151076409026,0,,,,N/A
2024-03-23T21:46:26,2.5022942339499994,-1.1808579531,9.55513884745,0.037110063220529434,0.0070249502392771765,-0.03222314131494531,0.43946,0.0623,-0.29344000000000003,6.5,7,24,7,6,33,12.221015625,49744,38.91046394801097,1008.8422224376725,0,,,,N/A
2024-03-23T21:46:26,2.5154547582499998,-1.1760723079,9.580861690399999,0.07635815477475191,0.004886921905584123,-0.03375030441044035,0.44058,0.06146000000000001,-0.2891,6.5,7,24,7,6,33,12.221015625,49744,38.91046394801097,1008.8422224376725,0,,,,N/A
2024-03-23T21:46:26,2.4885355039999997,-1.1425727915,9.580263484749999,0.03390302071998985,0.00595593607243065,-0.03665191429188092,0.44058,0.06146000000000001,-0.2891,6.5,7,24,7,6,33,12.221015625,49744,38.91046394801097,1008.8422224376725,0,,,,N/A
2024-03-23T21:46:26,2.43409878985,-1.1712866627,9.6012006825,0.03726277953007894,0.010384709049366262,-0.0357356164345839,0.44198000000000004,0.06146000000000001,-0.28546000000000005,6.5,7,24,7,6,33,12.221015625,49744,38.91046394801097,1008.8422224376725,0,,,,N/A
2024-03-23T21:46:26,2.5100709073999994,-1.1551351101499998,9.578468867799998,0.03772092845872745,0.0070249502392771765,-0.03481931857728687,0.4389,0.06566000000000001,-0.29932000000000003,6.5,7,24,7,6,33,12.221015625,49744,38.91046394801097,1008.8422224376725,0,,,,N/A
2024-03-23T21:46:27,2.4598216327999998,-1.1557333157999998,9.5617191096,0.03772092845872745,0.0070249502392771765,-0.036804630601430424,0.43694000000000005,0.06874000000000001,-0.28770000000000007,6.5,7,24,7,6,33,12.124921875,49279,38.92480820224356,1008.8512781222896,0,,,,N/A
2024-03-23T21:46:27,2.4807588305499997,-1.14676023105,9.615557618099999,0.036804630601430424,0.006108652381980154,-0.0355829001250344,0.42826000000000003,0.06818,-0.29974,6.5,7,24,7,6,33,12.124921875,49279,38.92480820224356,1008.8512781222896,0,,,,N/A
2024-03-23T21:46:27,2.4741785683999997,-1.1653046061999999,9.58145989605,0.038179077387375956,0.008093964406123704,-0.0319177086958463,0.42826000000000003,0.06818,-0.29974,6.5,7,24,7,6,33,12.124921875,49279,38.92480820224356,1008.8512781222896,0,,,,N/A
2024-03-23T21:46:27,2.4831516531499993,-1.1617153723,9.562915520899999,0.039095375244672985,0.003207042500539581,-0.03695734691097993,0.44394000000000006,0.06482,-0.29806,6.5,7,24,7,6,33,12.124921875,49279,38.92480820224356,1008.8512781222896,0,,,,N/A
2024-03-23T21:46:27,2.5022942339499994,-1.16350998925,9.561120903949998,0.03405573702953936,0.00595593607243065,-0.030848694528999777,0.43554000000000004,0.06762,-0.29764,6.5,7,24,7,6,33,12.124921875,49279,38.92480820224356,1008.8512781222896,0,,,,N/A
2024-03-23T21:46:28,2.4586252214999997,-1.1485548479999999,9.56590654915,0.03436116964863837,0.010079276430267254,-0.03375030441044035,0.44254000000000004,0.05922000000000001,-0.29484000000000005,6.5,7,24,7,6,33,12.0321484375,49193,38.96858797097516,1008.8693167225147,0,,,,N/A
2024-03-23T21:46:28,2.52382963735,-1.17547410225,9.5880401582,0.038637226316024474,0.008857545953871223,-0.03237585762449482,0.43694000000000005,0.06846000000000001,-0.29484000000000005,6.5,7,24,7,6,33,12.0321484375,49193,38.96858797097516,1008.8693167225147,0,,,,N/A
2024-03-23T21:46:28,2.464607278,-1.1437692027999997,9.59940606555,0.0355829001250344,0.006566801310628666,-0.03665191429188092,0.43498000000000003,0.06818,-0.29624,6.5,7,24,7,6,33,12.0321484375,49193,38.96858797097516,1008.8693167225147,0,,,,N/A
2024-03-23T21:46:28,2.50349064525,-1.1485548479999999,9.52522856495,0.04413501345980661,0.0056505034533316425,-0.03634648167278191,0.4333000000000001,0.06818,-0.28182000000000007,6.5,7,24,7,6,33,12.0321484375,49193,38.96858797097516,1008.8693167225147,0,,,,N/A
2024-03-23T21:46:28,2.52263322605,-1.1647064005499999,9.57069219435,0.03741549583962844,0.0056505034533316425,-0.03634648167278191,0.43694000000000005,0.0637,-0.28924,6.5,7,24,7,6,33,12.0321484375,49193,38.96858797097516,1008.8693167225147,0,,,,N/A
2024-03-23T21:46:29,2.51246373,-1.15992075535,9.597611448599999,0.038179077387375956,0.005345070834232635,-0.03207042500539581,0.44142000000000003,0.06594000000000001,-0.28896000000000005,6.5,7,24,7,6,33,11.963203125,49308,39.026248338834066,1008.8816954526602,0,,,,N/A
2024-03-23T21:46:29,2.5196421977999996,-1.1473584366999998,9.4971128994,0.03207042500539581,0.0044287729769356115,-0.03130684345764829,0.44478,0.06594000000000001,-0.28896000000000005,6.5,7,24,7,6,33,11.963203125,49308,39.026248338834066,1008.8816954526602,0,,,,N/A
2024-03-23T21:46:29,2.5106691130499996,-1.16709922315,9.598807859899999,0.03787364476827696,0.003054326190990077,-0.03344487179134134,0.44478,0.06146000000000001,-0.2917600000000001,6.5,7,24,7,6,33,11.963203125,49308,39.026248338834066,1008.8816954526602,0,,,,N/A
2024-03-23T21:46:29,2.52502604865,-1.1473584366999998,9.574879633899998,0.03375030441044035,0.008399397025222712,-0.03054326190990077,0.44282000000000005,0.0637,-0.29078000000000004,6.5,7,24,7,6,33,11.963203125,49308,39.026248338834066,1008.8816954526602,0,,,,N/A
2024-03-23T21:46:29,2.5004996169999996,-1.1802597474499998,9.527621387549999,0.03726277953007894,0.007788531787024696,-0.036193765363232405,0.44282000000000005,0.06846000000000001,-0.2968,6.5,7,24,7,6,33,11.963203125,49308,39.026248338834066,1008.8816954526602,0,,,,N/A
2024-03-23T21:46:29,2.52741887125,-1.1569297271,9.6095755616,0.031154127148098783,0.00946841119206924,-0.03512475119638588,0.43946,0.0637,-0.29694000000000004,6.5,7,24,7,6,33,11.963203125,49308,39.026248338834066,1008.8816954526602,0,,,,N/A
2024-03-23T21:46:29,2.4789642136,-1.1611171666499998,9.58624554125,0.03634648167278191,0.006719517620178169,-0.03604104905368291,0.43946,0.0637,-0.29694000000000004,6.5,7,24,7,6,33,11.909296875,49336,39.09115439029713,1008.891224199844,0,,,,N/A
2024-03-23T21:46:29,2.5010978226500002,-1.14197458585,9.63290558195,0.038789942625573975,0.008552113334772215,-0.03497203488683638,0.44142000000000003,0.0707,-0.29428000000000004,6.5,7,24,7,6,33,11.909296875,49336,39.09115439029713,1008.891224199844,0,,,,N/A
2024-03-23T21:46:29,2.48793729835,-1.1629117836,9.628718142399999,0.036193765363232405,0.004886921905584123,-0.03588833274413341,0.44198000000000004,0.06538000000000001,-0.29246000000000005,6.5,7,24,7,6,33,11.909296875,49336,39.09115439029713,1008.891224199844,0,,,,N/A
2024-03-23T21:46:30,2.50468705655,-1.1820543644,9.62213788025,0.03344487179134134,0.005345070834232635,-0.0319177086958463,0.43946,0.06930000000000001,-0.27328,6.5,7,24,7,6,33,12.1059765625,54534,39.20866034449408,1008.8702908195062,0,,,,N/A
2024-03-23T21:46:30,2.4957139718,-1.1611171666499998,9.55513884745,0.03283400655314333,0.008704829644321718,-0.03497203488683638,0.43778,0.06482,-0.28308000000000005,6.5,7,24,7,6,33,12.1059765625,54534,39.20866034449408,1008.8702908195062,0,,,,N/A
2024-03-23T21:46:30,2.5268206656,-1.1688938401,9.6059863277,0.03527746750593539,0.007177666548826681,-0.03695734691097993,0.43414,0.0679,-0.2888200000000001,6.5,7,24,7,6,33,12.1059765625,54534,39.20866034449408,1008.8702908195062,0,,,,N/A
2024-03-23T21:46:30,2.4705893344999996,-1.14556381975,9.606584533349999,0.03741549583962844,0.008857545953871223,-0.03543018381548489,0.43862000000000007,0.07210000000000001,-0.28182000000000007,6.5,7,24,7,6,33,12.1059765625,54534,39.20866034449408,1008.8702908195062,0,,,,N/A
2024-03-23T21:46:30,2.48434806445,-1.16350998925,9.59581683165,0.031764992386296806,0.008552113334772215,-0.03237585762449482,0.43862000000000007,0.07210000000000001,-0.28182000000000007,6.5,7,24,7,6,33,12.1059765625,54534,39.20866034449408,1008.8702908195062,0,,,,N/A
2024-03-23T21:46:31,2.5202404034499994,-1.1623135779499998,9.623932497199998,0.03604104905368291,0.006261368691529657,-0.03497203488683638,0.43246,0.061180000000000005,-0.29456,6.5,7,24,7,6,33,12.0962109375,52993,39.21941503189503,1008.8836697737504,0,,,,N/A
2024-03-23T21:46:31,2.51665116955,-1.1353943237,9.70708308255,0.0319177086958463,0.0027488935718910697,-0.03390302071998985,0.43610000000000004,0.07546000000000001,-0.2905,6.5,7,24,7,6,33,12.0962109375,52993,39.21941503189503,1008.8836697737504,0,,,,N/A
2024-03-23T21:46:31,2.4861426813999996,-1.1862418039499998,9.5916293921,0.03802636107782646,0.009926560120717751,-0.03405573702953936,0.43806000000000006,0.06846000000000001,-0.28098,6.5,7,24,7,6,33,12.0962109375,52993,39.21941503189503,1008.8836697737504,0,,,,N/A
2024-03-23T21:46:31,2.48793729835,-1.1569297271,9.487541608999999,0.03527746750593539,0.005345070834232635,-0.0355829001250344,0.43722000000000005,0.06874000000000001,-0.2858800000000001,6.5,7,24,7,6,33,12.0962109375,52993,39.21941503189503,1008.8836697737504,0,,,,N/A
2024-03-23T21:46:31,2.4909283265999997,-1.1706884570499998,9.61256658985,0.03756821214917795,0.006566801310628666,-0.037110063220529434,0.43722000000000005,0.06874000000000001,-0.2858800000000001,6.5,7,24,7,6,33,12.0962109375,52993,39.21941503189503,1008.8836697737504,0,,,,N/A
2024-03-23T21:46:32,2.4753749797,-1.17427769095,9.58145989605,0.038484510006474966,0.008093964406123704,-0.03313943917224234,0.44310000000000005,0.06566000000000001,-0.28322,6.5,7,24,7,6,33,12.0380078125,52109,39.272318867075924,1008.8965345779936,0,,,,N/A
2024-03-23T21:46:32,2.48434806445,-1.1383853519499998,9.637093021499998,0.03787364476827696,0.002901609881440573,-0.03298672286269283,0.43218000000000006,0.06566000000000001,-0.27748,6.5,7,24,7,6,33,12.0380078125,52109,39.272318867075924,1008.8965345779936,0,,,,N/A
2024-03-23T21:46:32,2.4999014113499998,-1.1324032954499998,9.608977355949998,0.03543018381548489,0.008399397025222712,-0.03375030441044035,0.43666000000000005,0.06538000000000001,-0.28028000000000003,6.5,7,24,7,6,33,12.0380078125,52109,39.272318867075924,1008.8965345779936,0,,,,N/A
2024-03-23T21:46:32,2.4538395763,-1.1892328321999999,9.52403215365,0.04001167310197001,0.0035124751196385882,-0.03634648167278191,0.44142000000000003,0.06454,-0.28056,6.5,7,24,7,6,33,12.0380078125,52109,39.272318867075924,1008.8965345779936,0,,,,N/A
2024-03-23T21:46:32,2.4795624192499996,-1.1653046061999999,9.628718142399999,0.038789942625573975,0.0027488935718910697,-0.03756821214917795,0.44142000000000003,0.06454,-0.28056,6.5,7,24,7,6,33,12.0380078125,52109,39.272318867075924,1008.8965345779936,0,,,,N/A
2024-03-23T21:46:33,2.4837498588,-1.1814561587499999,9.57547783955,0.03543018381548489,0.007635815477475193,-0.03207042500539581,0.43302,0.0651,-0.27804,6.5,7,24,7,6,33,11.9837109375,51662,39.36063397425888,1008.9141521919558,0,,,,N/A
2024-03-23T21:46:33,2.4723839514499995,-1.1611171666499998,9.6012006825,0.03252857393404432,0.006414085001079162,-0.03237585762449482,0.43470000000000003,0.0651,-0.28168,7.5,7,24,7,6,33,11.9837109375,51662,39.36063397425888,1008.9141521919558,0,,,,N/A
2024-03-23T21:46:33,2.49272294355,-1.1778669248499998,9.55992449265,0.03436116964863837,0.0054977871437821395,-0.0316122760767473,0.4333000000000001,0.058100000000000006,-0.28112,6.5,7,24,7,6,33,11.9837109375,51662,39.36063397425888,1008.9141521919558,0,,,,N/A
2024-03-23T21:46:33,2.4921247379,-1.1365907349999997,9.650851751449999,0.03405573702953936,0.010537425358915765,-0.03405573702953936,0.44254000000000004,0.06930000000000001,-0.28840000000000005,6.5,7,24,7,6,33,11.9837109375,51662,39.36063397425888,1008.9141521919558,0,,,,N/A
2024-03-23T21:46:33,2.48793729835,-1.1665010175,9.6131647955,0.03359758810089085,0.007483099167925688,-0.02855794988575722,0.44254000000000004,0.06930000000000001,-0.28840000000000005,6.5,7,24,7,6,33,11.9837109375,51662,39.36063397425888,1008.9141521919558,0,,,,N/A
2024-03-23T21:46:34,2.4903301209499995,-1.1407781745499999,9.650851751449999,0.03283400655314333,0.006414085001079162,-0.03466660226773738,0.44870000000000004,0.06314,-0.27090000000000003,6.5,7,24,7,6,33,11.93859375,51726,39.47322381063498,1008.917409039529,0,,,,N/A
2024-03-23T21:46:34,2.5052852621999997,-1.1461620253999998,9.61974505765,0.036804630601430424,0.004581489286485115,-0.031459559767197796,0.43806000000000006,0.06734,-0.28420000000000006,7.5,7,24,7,6,33,11.93859375,51726,39.47322381063498,1008.917409039529,0,,,,N/A
2024-03-23T21:46:34,2.5160529638999996,-1.1593225497,9.646664311899999,0.02977968036215325,0.007941248096574201,-0.03481931857728687,0.4389,0.0623,-0.27286,6.5,7,24,7,6,33,11.93859375,51726,39.47322381063498,1008.917409039529,0,,,,N/A
2024-03-23T21:46:34,2.4508485480499997,-1.1623135779499998,9.625128908499999,0.036193765363232405,0.0013744467859455349,-0.03802636107782646,0.44310000000000005,0.07042,-0.28770000000000007,6.5,7,24,7,6,33,11.93859375,51726,39.47322381063498,1008.917409039529,0,,,,N/A
2024-03-23T21:46:34,2.5100709073999994,-1.1330015010999999,9.583852718649998,0.03756821214917795,0.0056505034533316425,-0.03130684345764829,0.44478,0.062020000000000006,-0.28,6.5,7,24,7,6,33,11.93859375,51726,39.47322381063498,1008.917409039529,0,,,,N/A
2024-03-23T21:46:34,2.52502604865,-1.1676974288,9.605388122049998,0.03390302071998985,0.0054977871437821395,-0.0319177086958463,0.44478,0.062020000000000006,-0.28,6.5,7,24,7,6,33,11.93859375,51726,39.47322381063498,1008.917409039529,0,,,,N/A
2024-03-23T21:46:34,2.4945175605,-1.1569297271,9.6358966102,0.037110063220529434,0.0068722339297276735,-0.039095375244672985,0.44282000000000005,0.06454,-0.27468,6.5,7,24,7,6,33,11.906171875,51981,39.575386262763345,1008.9278763492772,0,,,,N/A
2024-03-23T21:46:34,2.50349064525,-1.1665010175,9.6562356023,0.03481931857728687,0.004123340357836604,-0.03543018381548489,0.43806000000000006,0.06874000000000001,-0.27482000000000006,6.5,7,24,7,6,33,11.906171875,51981,39.575386262763345,1008.9278763492772,0,,,,N/A
2024-03-23T21:46:34,2.4951157661499996,-1.1724830739999998,9.597611448599999,0.038789942625573975,0.0056505034533316425,-0.03054326190990077,0.43806000000000006,0.06874000000000001,-0.27482000000000006,6.5,7,24,7,6,33,11.906171875,51981,39.575386262763345,1008.9278763492772,0,,,,N/A
2024-03-23T21:46:35,2.4837498588,-1.17547410225,9.702297437349998,0.0355829001250344,0.0038179077387375964,-0.03390302071998985,0.43498000000000003,0.06930000000000001,-0.2863,6.5,7,24,7,6,33,12.119453125,57586,39.694955491443544,1008.9102113602194,0,,,,N/A
2024-03-23T21:46:35,2.5028924396,-1.1964112999999998,9.647860723199999,0.036499197982331415,0.0054977871437821395,-0.03634648167278191,0.43722000000000005,0.061180000000000005,-0.2888200000000001,6.5,7,24,7,6,33,12.119453125,57586,39.694955491443544,1008.9102113602194,0,,,,N/A
2024-03-23T21:46:35,2.52622245995,-1.1318050897999998,9.61854864635,0.038942658935123484,0.005039638215133627,-0.038484510006474966,0.44282000000000005,0.07098,-0.27958000000000005,6.5,7,24,7,6,33,12.119453125,57586,39.694955491443544,1008.9102113602194,0,,,,N/A
2024-03-23T21:46:35,2.4670001006,-1.1647064005499999,9.52522856495,0.0355829001250344,0.0038179077387375964,-0.031459559767197796,0.44282000000000005,0.07098,-0.27958000000000005,6.5,7,24,7,6,33,12.119453125,57586,39.694955491443544,1008.9102113602194,0,,,,N/A
2024-03-23T21:46:35,2.4921247379,-1.15992075535,9.608977355949998,0.03451388595818787,0.003970624048287101,-0.03512475119638588,0.44422,0.06874000000000001,-0.28756,6.5,7,24,7,6,33,12.119453125,57586,39.694955491443544,1008.9102113602194,0,,,,N/A
2024-03-23T21:46:36,2.4837498588,-1.14676023105,9.5772724565,0.03222314131494531,0.006566801310628666,-0.03466660226773738,0.43638000000000005,0.06818,-0.28826000000000007,6.5,7,24,7,6,33,12.1094921875,56318,39.71157342541353,1008.9337342369645,0,,,,N/A
2024-03-23T21:46:36,2.4783660079499996,-1.160518961,9.611968384199999,0.03726277953007894,0.0070249502392771765,-0.036804630601430424,0.43470000000000003,0.07042,-0.29022000000000003,6.5,7,24,7,6,33,12.1094921875,56318,39.71157342541353,1008.9337342369645,0,,,,N/A
2024-03-23T21:46:36,2.5064816734999997,-1.15274228755,9.5868437469,0.038484510006474966,0.008857545953871223,-0.03481931857728687,0.43218000000000006,0.07294000000000002,-0.28742,6.5,7,24,7,6,33,12.1094921875,56318,39.71157342541353,1008.9337342369645,0,,,,N/A
2024-03-23T21:46:36,2.4951157661499996,-1.1850453926499998,9.629914553699999,0.0319177086958463,0.009315694882519735,-0.03420845333908886,0.43218000000000006,0.07294000000000002,-0.28742,6.5,7,24,7,6,33,12.1094921875,56318,39.71157342541353,1008.9337342369645,0,,,,N/A
2024-03-23T21:46:36,2.5052852621999997,-1.14676023105,9.5904329808,0.03634648167278191,0.00946841119206924,-0.03420845333908886,0.44170000000000004,0.06874000000000001,-0.2856,6.5,7,24,7,6,33,12.1094921875,56318,39.71157342541353,1008.9337342369645,0,,,,N/A
2024-03-23T21:46:37,2.49272294355,-1.1700902514,9.644869694949998,0.03588833274413341,0.007177666548826681,-0.03451388595818787,0.43862000000000007,0.06734,-0.28154,6.5,7,24,7,6,33,12.0247265625,55612,39.76795341274628,1008.9424285407133,0,,,,N/A
2024-03-23T21:46:37,2.48793729835,-1.15872434405,9.660423041849999,0.03604104905368291,0.008704829644321718,-0.037110063220529434,0.43806000000000006,0.06678,-0.28,6.5,7,24,7,6,33,12.0247265625,55612,39.76795341274628,1008.9424285407133,0,,,,N/A
2024-03-23T21:46:37,2.4975085887499997,-1.1659028118499999,9.6000042712,0.03527746750593539,0.005345070834232635,-0.03313943917224234,0.43806000000000006,0.06678,-0.28,6.5,7,24,7,6,33,12.0247265625,55612,39.76795341274628,1008.9424285407133,0,,,,N/A
2024-03-23T21:46:37,2.5016960282999996,-1.1772687192,9.61974505765,0.03741549583962844,0.006108652381980154,-0.03634648167278191,0.43694000000000005,0.06846000000000001,-0.28322,6.5,7,24,7,6,33,12.0247265625,55612,39.76795341274628,1008.9424285407133,0,,,,N/A
2024-03-23T21:46:37,2.48913370965,-1.1647064005499999,9.6059863277,0.03359758810089085,0.006566801310628666,-0.03466660226773738,0.43750000000000006,0.06062000000000001,-0.2829400000000001,6.5,7,24,7,6,33,12.0247265625,55612,39.76795341274628,1008.9424285407133,0,,,,N/A
2024-03-23T21:46:38,2.4831516531499993,-1.1437692027999997,9.6263253198,0.036193765363232405,0.007330382858376185,-0.030237829290801762,0.4403000000000001,0.07294000000000002,-0.28490000000000004,6.5,7,24,7,6,33,11.922578125,55539,39.80513596706787,1008.9465183276355,0,,,,N/A
2024-03-23T21:46:38,2.5040888509,-1.1341979124,9.628119936749998,0.03787364476827696,0.005192354524683131,-0.038484510006474966,0.4389,0.05978000000000001,-0.29456,6.5,7,24,7,6,33,11.922578125,55539,39.80513596706787,1008.9465183276355,0,,,,N/A
2024-03-23T21:46:38,2.5190439921499994,-1.15274228755,9.5916293921,0.03436116964863837,0.008399397025222712,-0.03481931857728687,0.4389,0.05978000000000001,-0.29456,6.5,7,24,7,6,33,11.922578125,55539,39.80513596706787,1008.9465183276355,0,,,,N/A
2024-03-23T21:46:38,2.464607278,-1.14556381975,9.5772724565,0.07666358739385093,0.006719517620178169,-0.03588833274413341,0.44058,0.06622000000000001,-0.28770000000000007,6.5,7,24,7,6,33,11.922578125,55539,39.80513596706787,1008.9465183276355,0,,,,N/A
2024-03-23T21:46:38,2.4885355039999997,-1.1874382152499998,9.576076045199999,0.03207042500539581,0.010995574287564279,-0.0357356164345839,0.44086000000000003,0.06762,-0.29904000000000003,6.5,7,24,7,6,33,11.922578125,55539,39.80513596706787,1008.9465183276355,0,,,,N/A
2024-03-23T21:46:39,2.5106691130499996,-1.160518961,9.51924650845,0.038637226316024474,0.0070249502392771765,-0.03390302071998985,0.44310000000000005,0.06902000000000001,-0.28896000000000005,6.5,7,24,7,6,33,11.8094921875,55907,39.84129404412522,1008.9602216804618,0,,,,N/A
2024-03-23T21:46:39,2.4831516531499993,-1.1545369045,9.509675218049999,0.03329215548179184,0.002138028333693054,-0.03741549583962844,0.43778,0.07042,-0.27552000000000004,6.5,7,24,7,6,33,11.8094921875,55907,39.84129404412522,1008.9602216804618,0,,,,N/A
2024-03-23T21:46:39,2.4975085887499997,-1.1659028118499999,9.553344230499999,0.03237585762449482,0.005345070834232635,-0.03298672286269283,0.44198000000000004,0.06762,-0.27874,6.5,7,24,7,6,33,11.8094921875,55907,39.84129404412522,1008.9602216804618,0,,,,N/A
2024-03-23T21:46:39,2.5351955446999996,-1.15872434405,9.553344230499999,0.03268129024359383,0.01114829059711378,-0.03130684345764829,0.44198000000000004,0.06762,-0.27874,6.5,7,24,7,6,33,11.8094921875,55907,39.84129404412522,1008.9602216804618,0,,,,N/A
2024-03-23T21:46:39,2.50349064525,-1.17547410225,9.5258267706,0.03481931857728687,0.006108652381980154,-0.03481931857728687,0.43862000000000007,0.0665,-0.28644000000000003,6.5,7,24,7,6,33,11.8094921875,55907,39.84129404412522,1008.9602216804618,0,,,,N/A
2024-03-23T21:46:39,2.5160529638999996,-1.160518961,9.558129875699999,0.03298672286269283,0.008399397025222712,-0.03787364476827696,0.43638000000000005,0.06902000000000001,-0.28616,6.5,7,24,7,6,33,11.8094921875,55907,39.84129404412522,1008.9602216804618,0,,,,N/A
2024-03-23T21:46:39,2.4999014113499998,-1.1880364209,9.579665279099999,0.0357356164345839,0.007483099167925688,-0.031764992386296806,0.4397400000000001,0.06062000000000001,-0.29316000000000003,6.5,7,24,7,6,33,11.68625,56056,39.87650321763611,1008.9673825236151,0,,,,N/A
2024-03-23T21:46:39,2.5615165933,-1.1724830739999998,9.437292334399999,0.038331793696925465,0.0054977871437821395,-0.0319177086958463,0.43918000000000007,0.0623,-0.27790000000000004,6.5,7,24,7,6,33,11.68625,56056,39.87650321763611,1008.9673825236151,0,,,,N/A
2024-03-23T21:46:39,2.4807588305499997,-1.1485548479999999,9.513862657599999,0.03588833274413341,0.008093964406123704,-0.03481931857728687,0.43918000000000007,0.0623,-0.27790000000000004,6.5,7,24,7,6,33,11.68625,56056,39.87650321763611,1008.9673825236151,0,,,,N/A
2024-03-23T21:46:40,2.5256242543,-1.14676023105,9.47976493555,0.03375030441044035,0.009010262263420728,-0.03695734691097993,0.43582000000000004,0.07322000000000001,-0.27972,6.5,7,24,7,6,33,11.8251171875,61940,39.977529209533856,1008.9339624553481,0,,,,N/A
2024-03-23T21:46:40,2.548356069,-1.1688938401,9.5042913672,0.03665191429188092,0.007635815477475193,-0.03604104905368291,0.44058,0.07154,-0.28434000000000004,6.5,7,24,7,6,33,11.8251171875,61940,39.977529209533856,1008.9339624553481,0,,,,N/A
2024-03-23T21:46:40,2.5256242543,-1.14197458585,9.526424976249999,0.03634648167278191,0.009773843811168246,-0.030237829290801762,0.44058,0.07154,-0.28434000000000004,6.5,7,24,7,6,33,11.8251171875,61940,39.977529209533856,1008.9339624553481,0,,,,N/A
2024-03-23T21:46:40,2.56091838765,-1.1988041226,9.5150590689,0.0357356164345839,0.007788531787024696,-0.03420845333908886,0.43554000000000004,0.06314,-0.29414000000000007,6.5,7,24,7,6,33,11.8251171875,61940,39.977529209533856,1008.9339624553481,0,,,,N/A
2024-03-23T21:46:40,2.4921247379,-1.1724830739999998,9.527621387549999,0.03405573702953936,0.008093964406123704,-0.036499197982331415,0.42882000000000003,0.06678,-0.2821,6.5,7,24,7,6,33,11.8251171875,61940,39.977529209533856,1008.9339624553481,0,,,,N/A
2024-03-23T21:46:41,2.4604198384499996,-1.1581261384,9.642476872349999,0.04123340357836604,0.004276056667386108,-0.03390302071998985,0.44170000000000004,0.07266000000000002,-0.29134000000000004,6.5,7,24,7,6,33,11.7426953125,60606,39.963861033681376,1008.9534325056877,0,,,,N/A
2024-03-23T21:46:41,2.53100810515,-1.13718894065,9.52522856495,0.03481931857728687,0.012370021073509813,-0.03283400655314333,0.43806000000000006,0.07434,-0.287,6.5,7,24,7,6,33,11.7426953125,60606,39.963861033681376,1008.9534325056877,0,,,,N/A
2024-03-23T21:46:41,2.5142583469499997,-1.1665010175,9.48096134685,0.03390302071998985,0.0035124751196385882,-0.03329215548179184,0.43162000000000006,0.06818,-0.29582,6.5,7,24,7,6,33,11.7426953125,60606,39.963861033681376,1008.9534325056877,0,,,,N/A
2024-03-23T21:46:41,2.4562323989,-1.1868400096,9.547362174,0.03726277953007894,0.0070249502392771765,-0.03481931857728687,0.4403000000000001,0.06482,-0.27636,6.5,7,24,7,6,33,11.7426953125,60606,39.963861033681376,1008.9534325056877,0,,,,N/A
2024-03-23T21:46:41,2.5100709073999994,-1.1617153723,9.5102734237,0.03802636107782646,0.00595593607243065,-0.03375030441044035,0.44058,0.06846000000000001,-0.27202000000000004,6.5,7,24,7,6,33,11.7426953125,60606,39.963861033681376,1008.9534325056877,0,,,,N/A
2024-03-23T21:46:42,2.4963121774499997,-1.1617153723,9.5425765288,0.036804630601430424,0.004886921905584123,-0.03436116964863837,0.44478,0.06342,-0.28952000000000006,6.5,7,24,7,6,33,11.5872265625,59832,39.97259571823162,1008.9521199687172,0,,,,N/A
2024-03-23T21:46:42,2.4777678023,-1.1748758966,9.549754996599999,0.03512475119638588,0.009926560120717751,-0.038637226316024474,0.44142000000000003,0.06706000000000001,-0.28546000000000005,6.5,7,24,7,6,33,11.5872265625,59832,39.97259571823162,1008.9521199687172,0,,,,N/A
2024-03-23T21:46:42,2.51665116955,-1.1425727915,9.562915520899999,0.03527746750593539,0.008704829644321718,-0.03466660226773738,0.44142000000000003,0.06706000000000001,-0.28546000000000005,6.5,7,24,7,6,33,11.5872265625,59832,39.97259571823162,1008.9521199687172,0,,,,N/A
2024-03-23T21:46:42,2.5100709073999994,-1.1617153723,9.507282395449998,0.03298672286269283,0.007177666548826681,-0.03222314131494531,0.44926000000000005,0.07014,-0.2888200000000001,6.5,7,24,7,6,33,11.5872265625,59832,39.97259571823162,1008.9521199687172,0,,,,N/A
2024-03-23T21:46:42,2.4915265322499995,-1.1659028118499999,9.5437729401,0.038789942625573975,0.009010262263420728,-0.031459559767197796,0.44506000000000007,0.07154,-0.28966000000000003,6.5,7,24,7,6,33,11.5872265625,59832,39.97259571823162,1008.9521199687172,0,,,,N/A
2024-03-23T21:46:43,2.48554447575,-1.1964112999999998,9.5018985446,0.031764992386296806,0.0038179077387375964,-0.0355829001250344,0.43694000000000005,0.06818,-0.28546000000000005,6.5,7,24,7,6,33,11.4329296875,59411,40.016618556230796,1008.9578867647962,0,,,,N/A
2024-03-23T21:46:43,2.4951157661499996,-1.16709922315,9.6012006825,0.03466660226773738,0.007177666548826681,-0.03588833274413341,0.43694000000000005,0.06818,-0.28546000000000005,6.5,7,24,7,6,33,11.4329296875,59411,40.016618556230796,1008.9578867647962,0,,,,N/A
2024-03-23T21:46:43,2.5112673186999994,-1.1736794852999999,9.54556755705,0.04321871560250959,0.006719517620178169,-0.03741549583962844,0.43862000000000007,0.07154,-0.28784000000000004,6.5,7,24,7,6,33,11.4329296875,59411,40.016618556230796,1008.9578867647962,0,,,,N/A
2024-03-23T21:46:43,2.5214368147499995,-1.1335997067499999,9.544371145749999,0.038942658935123484,0.00916297857297023,-0.03359758810089085,0.43750000000000006,0.0665,-0.29372000000000004,6.5,7,24,7,6,33,11.4329296875,59411,40.016618556230796,1008.9578867647962,0,,,,N/A
2024-03-23T21:46:43,2.5304098994999995,-1.15274228755,9.5389872949,0.0355829001250344,0.008552113334772215,-0.03329215548179184,0.44226000000000004,0.06818,-0.29344000000000003,6.5,7,24,7,6,33,11.4329296875,59411,40.016618556230796,1008.9578867647962,0,,,,N/A
2024-03-23T21:46:44,2.5256242543,-1.19342027175,9.587441952549998,0.03481931857728687,0.007635815477475193,-0.031764992386296806,0.44254000000000004,0.06454,-0.29022000000000003,6.5,6,24,7,6,33,11.2751171875,59621,40.0896347369528,1008.9559358992119,0,,,,N/A
2024-03-23T21:46:44,2.47597318535,-1.18384898135,9.47139005645,0.03543018381548489,0.0035124751196385882,-0.03329215548179184,0.44142000000000003,0.06958000000000002,-0.27748,6.5,6,24,7,6,33,11.2751171875,59621,40.0896347369528,1008.9559358992119,0,,,,N/A
2024-03-23T21:46:44,2.5004996169999996,-1.1425727915,9.5521478192,0.03344487179134134,0.010995574287564279,-0.03390302071998985,0.43946,0.06454,-0.28840000000000005,6.5,6,24,7,6,33,11.2751171875,59621,40.0896347369528,1008.9559358992119,0,,,,N/A
2024-03-23T21:46:44,2.5088744961,-1.1730812796499999,9.552746024849998,0.03375030441044035,0.0036651914291880926,-0.03375030441044035,0.44478,0.0707,-0.28448,6.5,6,24,7,6,33,11.2751171875,59621,40.0896347369528,1008.9559358992119,0,,,,N/A
2024-03-23T21:46:44,2.55493633115,-1.1551351101499998,9.55035320225,0.03634648167278191,0.009773843811168246,-0.03451388595818787,0.43862000000000007,0.0637,-0.28420000000000006,6.5,6,24,7,6,33,11.2751171875,59621,40.0896347369528,1008.9559358992119,0,,,,N/A
2024-03-23T21:46:44,2.54656145205,-1.1700902514,9.56351372655,0.03772092845872745,0.008093964406123704,-0.030237829290801762,0.44394000000000006,0.06706000000000001,-0.27426000000000006,6.5,6,24,7,6,33,11.1221875,60302,40.157278253257346,1008.9585434302318,0,,,,N/A
2024-03-23T21:46:44,2.48674088705,-1.1730812796499999,9.583254513,0.03634648167278191,0.006719517620178169,-0.031459559767197796,0.43442000000000003,0.06818,-0.28168,6.5,6,24,7,6,33,11.1221875,60302,40.157278253257346,1008.9585434302318,0,,,,N/A
2024-03-23T21:46:44,2.48554447575,-1.1509476706000001,9.53479985535,0.030237829290801762,0.008399397025222712,-0.03130684345764829,0.44142000000000003,0.06146000000000001,-0.29232,6.5,6,24,7,6,33,11.1221875,60302,40.157278253257346,1008.9585434302318,0,,,,N/A
2024-03-23T21:46:44,2.5190439921499994,-1.1497512592999999,9.5437729401,0.03405573702953936,0.009773843811168246,-0.03512475119638588,0.44142000000000003,0.06146000000000001,-0.29232,6.5,6,24,7,6,33,11.1221875,60302,40.157278253257346,1008.9585434302318,0,,,,N/A
2024-03-23T21:46:45,2.54656145205,-1.1509476706000001,9.486345197699999,0.03634648167278191,0.0070249502392771765,-0.031001410838549282,0.44058,0.05922000000000001,-0.29414000000000007,6.5,7,24,7,6,33,11.2407421875,66062,40.26820418554788,1008.9316704672447,0,,,,N/A
2024-03-23T21:46:45,2.5513470972500003,-1.1641081949,9.4923272542,0.03222314131494531,0.00946841119206924,-0.03481931857728687,0.44506000000000007,0.06594000000000001,-0.28392,6.5,7,24,7,6,33,11.2407421875,66062,40.26820418554788,1008.9316704672447,0,,,,N/A
2024-03-23T21:46:45,2.5052852621999997,-1.14556381975,9.561120903949998,0.03207042500539581,0.010537425358915765,-0.03375030441044035,0.44478,0.07042,-0.29022000000000003,6.5,7,24,7,6,33,11.2407421875,66062,40.26820418554788,1008.9316704672447,0,,,,N/A
2024-03-23T21:46:45,2.5328027221,-1.1682956344499997,9.5688975774,0.03665191429188092,0.010384709049366262,-0.0357356164345839,0.4501,0.0637,-0.2926,6.5,7,24,7,6,33,11.2407421875,66062,40.26820418554788,1008.9316704672447,0,,,,N/A
2024-03-23T21:46:45,2.5136601413,-1.17427769095,9.544371145749999,0.03588833274413341,0.005039638215133627,-0.03787364476827696,0.4501,0.0637,-0.2926,6.5,7,24,7,6,33,11.2407421875,66062,40.26820418554788,1008.9316704672447,0,,,,N/A
2024-03-23T21:46:46,2.4909283265999997,-1.1563315214499998,9.6083791503,0.03787364476827696,0.002901609881440573,-0.0316122760767473,0.44982000000000005,0.05922000000000001,-0.27706000000000003,6.5,7,24,7,6,33,11.1309765625,64695,40.2578181126307,1008.9348862116727,0,,,,N/A
2024-03-23T21:46:46,2.5405793955499996,-1.1653046061999999,9.543174734449998,0.03359758810089085,0.005039638215133627,-0.03359758810089085,0.45066,0.06258000000000001,-0.28770000000000007,6.5,7,24,7,6,33,11.1309765625,64695,40.2578181126307,1008.9348862116727,0,,,,N/A
2024-03-23T21:46:46,2.4963121774499997,-1.1802597474499998,9.5437729401,0.036804630601430424,0.008093964406123704,-0.03588833274413341,0.44114000000000003,0.06762,-0.28140000000000004,6.5,7,24,7,6,33,11.1309765625,64695,40.2578181126307,1008.9348862116727,0,,,,N/A
2024-03-23T21:46:46,2.4945175605,-1.160518961,9.5724868113,0.03344487179134134,0.006414085001079162,-0.03466660226773738,0.44254000000000004,0.06286000000000001,-0.28728000000000004,6.5,7,24,7,6,33,11.1309765625,64695,40.2578181126307,1008.9348862116727,0,,,,N/A
2024-03-23T21:46:46,2.5052852621999997,-1.1688938401,9.571290399999999,0.03527746750593539,0.005039638215133627,-0.03466660226773738,0.44254000000000004,0.06286000000000001,-0.28728000000000004,5.5,7,24,7,6,33,11.1309765625,64695,40.2578181126307,1008.9348862116727,0,,,,N/A
2024-03-23T21:46:47,2.3772692530999997,-1.12881406155,9.5449693514,0.038331793696925465,0.007788531787024696,-0.036193765363232405,0.44450000000000006,0.0623,-0.29078000000000004,5.5,7,24,7,6,33,10.94484375,63526,40.28716972239731,1008.9342191000397,0,,,,N/A
2024-03-23T21:46:47,2.5016960282999996,-1.16709922315,9.570093988699998,0.03375030441044035,0.005192354524683131,-0.03313943917224234,0.44954,0.06622000000000001,-0.2835,5.5,7,24,7,6,33,10.94484375,63526,40.28716972239731,1008.9342191000397,0,,,,N/A
2024-03-23T21:46:47,2.5184457864999996,-1.1425727915,9.495916488099999,0.03344487179134134,0.0068722339297276735,-0.03436116964863837,0.44058,0.0679,-0.28854,5.5,7,24,7,6,33,10.94484375,63526,40.28716972239731,1008.9342191000397,0,,,,N/A
2024-03-23T21:46:47,2.4963121774499997,-1.1772687192,9.509675218049999,0.03405573702953936,0.008246680715673207,-0.03344487179134134,0.44058,0.0679,-0.28854,5.5,7,24,7,6,33,10.94484375,63526,40.28716972239731,1008.9342191000397,0,,,,N/A
2024-03-23T21:46:47,2.53220451645,-1.14197458585,9.5018985446,0.03543018381548489,0.009926560120717751,-0.03543018381548489,0.4397400000000001,0.06398000000000001,-0.29064000000000006,5.5,7,24,7,6,33,10.94484375,63526,40.28716972239731,1008.9342191000397,0,,,,N/A
2024-03-23T21:46:48,2.46520548365,-1.1778669248499998,9.51685368585,0.03604104905368291,0.008246680715673207,-0.03390302071998985,0.44982000000000005,0.058660000000000004,-0.29274,5.5,7,24,7,6,33,10.7501171875,63193,40.34507349269782,1008.9329790235181,0,,,,N/A
2024-03-23T21:46:48,2.51246373,-1.1808579531,9.6358966102,0.038331793696925465,0.008857545953871223,-0.03359758810089085,0.45150000000000007,0.06006,-0.28266,5.5,7,24,7,6,33,10.7501171875,63193,40.34507349269782,1008.9329790235181,0,,,,N/A
2024-03-23T21:46:48,2.4951157661499996,-1.1820543644,9.530612415799999,0.030085112981252257,0.009315694882519735,-0.03588833274413341,0.44982000000000005,0.058660000000000004,-0.28686,5.5,7,24,7,6,33,10.7501171875,63193,40.34507349269782,1008.9329790235181,0,,,,N/A
2024-03-23T21:46:48,2.4963121774499997,-1.160518961,9.5294160045,0.03359758810089085,0.008552113334772215,-0.036499197982331415,0.44982000000000005,0.058660000000000004,-0.28686,5.5,7,24,7,6,33,10.7501171875,63193,40.34507349269782,1008.9329790235181,0,,,,N/A
2024-03-23T21:46:48,2.5136601413,-1.17427769095,9.52163933105,0.03298672286269283,0.006414085001079162,-0.03634648167278191,0.45122,0.06594000000000001,-0.28686,5.5,7,24,7,6,33,10.7501171875,63193,40.34507349269782,1008.9329790235181,0,,,,N/A
2024-03-23T21:46:49,2.5453650407499997,-1.1623135779499998,9.4133641084,0.0355829001250344,0.003207042500539581,-0.03298672286269283,0.44450000000000006,0.06146000000000001,-0.29008000000000006,5.5,7,24,7,6,33,10.56671875,63193,40.433422021606994,1008.9417915338798,0,,,,N/A
2024-03-23T21:46:49,2.5010978226500002,-1.17667051355,9.512666246299998,0.030848694528999777,0.007788531787024696,-0.037110063220529434,0.44814000000000004,0.06258000000000001,-0.2793,5.5,7,24,7,6,33,10.56671875,63193,40.433422021606994,1008.9417915338798,0,,,,N/A
2024-03-23T21:46:49,2.48434806445,-1.16350998925,9.5066841898,0.037110063220529434,0.008552113334772215,-0.03497203488683638,0.44814000000000004,0.06258000000000001,-0.2793,5.5,7,24,7,6,33,10.56671875,63193,40.433422021606994,1008.9417915338798,0,,,,N/A
2024-03-23T21:46:49,2.55493633115,-1.15992075535,9.543174734449998,0.03527746750593539,0.010231992739816757,-0.03329215548179184,0.44086000000000003,0.07042,-0.29316000000000003,5.5,7,24,7,6,33,10.56671875,63193,40.433422021606994,1008.9417915338798,0,,,,N/A
2024-03-23T21:46:49,2.4586252214999997,-1.1904292435,9.530014210149998,0.03436116964863837,0.010384709049366262,-0.0357356164345839,0.4467400000000001,0.061180000000000005,-0.2863,5.5,7,24,7,6,33,10.56671875,63193,40.433422021606994,1008.9417915338798,0,,,,N/A
2024-03-23T21:46:49,2.52382963735,-1.1653046061999999,9.549156790949999,0.03344487179134134,0.009315694882519735,-0.03588833274413341,0.44982000000000005,0.06258000000000001,-0.2788800000000001,5.5,7,24,7,6,33,10.56671875,63193,40.433422021606994,1008.9417915338798,0,,,,N/A
2024-03-23T21:46:49,2.4933211492,-1.1784651305,9.5868437469,0.03512475119638588,0.008399397025222712,-0.03527746750593539,0.45122,0.0651,-0.28756,5.5,7,24,7,6,33,10.399921875,63193,40.52337912250541,1008.9416417738664,0,,,,N/A
2024-03-23T21:46:49,2.51665116955,-1.1880364209,9.49651469375,0.03329215548179184,0.0070249502392771765,-0.03375030441044035,0.4478600000000001,0.0539,-0.2888200000000001,5.5,7,24,7,6,33,10.399921875,63193,40.52337912250541,1008.9416417738664,0,,,,N/A
2024-03-23T21:46:49,2.4801606249,-1.1718848683499998,9.527023181899999,0.03054326190990077,0.010231992739816757,-0.03451388595818787,0.44422,0.059500000000000004,-0.28518,5.5,7,24,7,6,33,10.399921875,63193,40.52337912250541,1008.9416417738664,0,,,,N/A
2024-03-23T21:46:50,2.48793729835,-1.1545369045,9.552746024849998,0.03726277953007894,0.010231992739816757,-0.03283400655314333,0.4543000000000001,0.06678,-0.29274,5.5,7,24,7,6,33,10.5096875,69547,40.65124048201298,1008.9300797112684,0,,,,N/A
2024-03-23T21:46:50,2.5220350203999993,-1.1324032954499998,9.51924650845,0.03313943917224234,0.004123340357836604,-0.03543018381548489,0.45122,0.0651,-0.28322,5.5,7,24,7,6,33,10.5096875,69547,40.65124048201298,1008.9300797112684,0,,,,N/A
